Time_Accel;AccelX;AccelY;AccelZ
10:24:47:980;0.11492168;10.457873;-0.7086837
10:24:47:980;0.11492168;10.457873;-0.7086837
10:24:47:980;0.11492168;10.457873;-0.7086837
10:24:47:980;0.11492168;10.457873;-0.7086837
10:24:47:980;0.11492168;10.457873;-0.7086837
10:24:47:980;0.11492168;10.457873;-0.7086837
10:24:47:980;0.11492168;10.457873;-0.7086837
10:24:47:980;0.11492168;10.457873;-0.7086837
10:24:47:980;0.11492168;10.457873;-0.7086837
10:24:47:980;0.11492168;10.457873;-0.7086837
10:24:47:980;0.11492168;10.457873;-0.7086837
10:24:48:099;0.038307227;8.810662;1.0151415
10:24:48:099;0.038307227;8.810662;1.0151415
10:24:48:099;0.038307227;8.810662;1.0151415
10:24:48:099;0.038307227;8.810662;1.0151415
10:24:48:099;0.038307227;8.810662;1.0151415
10:24:48:099;0.038307227;8.810662;1.0151415
10:24:48:099;0.038307227;8.810662;1.0151415
10:24:48:099;0.038307227;8.810662;1.0151415
10:24:48:099;0.038307227;8.810662;1.0151415
10:24:48:099;0.038307227;8.810662;1.0151415
10:24:48:099;0.038307227;8.810662;1.0151415
10:24:48:099;0.038307227;8.810662;1.0151415
10:24:48:099;0.038307227;8.810662;1.0151415
10:24:48:099;0.038307227;8.810662;1.0151415
10:24:48:099;0.038307227;8.810662;1.0151415
10:24:48:099;0.038307227;8.810662;1.0151415
10:24:48:099;0.038307227;8.810662;1.0151415
10:24:48:099;0.038307227;8.810662;1.0151415
10:24:48:099;0.038307227;8.810662;1.0151415
10:24:48:250;0.05746084;10.01734;0.1340753
10:24:48:250;0.05746084;10.01734;0.1340753
10:24:48:250;0.05746084;10.01734;0.1340753
10:24:48:250;0.05746084;10.01734;0.1340753
10:24:48:250;0.05746084;10.01734;0.1340753
10:24:48:250;0.05746084;10.01734;0.1340753
10:24:48:250;0.05746084;10.01734;0.1340753
10:24:48:250;0.05746084;10.01734;0.1340753
10:24:48:250;0.05746084;10.01734;0.1340753
10:24:48:250;0.05746084;10.01734;0.1340753
10:24:48:250;0.05746084;10.01734;0.1340753
10:24:48:250;0.05746084;10.01734;0.1340753
10:24:48:250;0.05746084;10.01734;0.1340753
10:24:48:250;0.05746084;10.01734;0.1340753
10:24:48:250;0.05746084;10.01734;0.1340753
10:24:48:361;-0.15322891;10.572795;-0.5746084
10:24:48:361;-0.15322891;10.572795;-0.5746084
10:24:48:361;-0.15322891;10.572795;-0.5746084
10:24:48:361;-0.15322891;10.572795;-0.5746084
10:24:48:361;-0.15322891;10.572795;-0.5746084
10:24:48:361;-0.15322891;10.572795;-0.5746084
10:24:48:361;-0.15322891;10.572795;-0.5746084
10:24:48:361;-0.15322891;10.572795;-0.5746084
10:24:48:361;-0.15322891;10.572795;-0.5746084
10:24:48:361;-0.15322891;10.572795;-0.5746084
10:24:48:361;-0.15322891;10.572795;-0.5746084
10:24:48:361;-0.15322891;10.572795;-0.5746084
10:24:48:361;-0.15322891;10.572795;-0.5746084
10:24:48:361;-0.15322891;10.572795;-0.5746084
10:24:48:361;-0.15322891;10.572795;-0.5746084
10:24:48:361;-0.15322891;10.572795;-0.5746084
10:24:48:361;-0.15322891;10.572795;-0.5746084
10:24:48:361;-0.15322891;10.572795;-0.5746084
10:24:48:361;-0.15322891;10.572795;-0.5746084
10:24:48:361;-0.15322891;10.572795;-0.5746084
10:24:48:361;-0.15322891;10.572795;-0.5746084
10:24:48:361;-0.15322891;10.572795;-0.5746084
10:24:48:537;-0.22984336;10.189722;-0.63206923
10:24:48:537;-0.22984336;10.189722;-0.63206923
10:24:48:537;-0.22984336;10.189722;-0.63206923
10:24:48:537;-0.22984336;10.189722;-0.63206923
10:24:48:537;-0.22984336;10.189722;-0.63206923
10:24:48:537;-0.22984336;10.189722;-0.63206923
10:24:48:537;-0.22984336;10.189722;-0.63206923
10:24:48:537;-0.22984336;10.189722;-0.63206923
10:24:48:537;-0.22984336;10.189722;-0.63206923
10:24:48:537;-0.22984336;10.189722;-0.63206923
10:24:48:537;-0.22984336;10.189722;-0.63206923
10:24:48:537;-0.22984336;10.189722;-0.63206923
10:24:48:537;-0.22984336;10.189722;-0.63206923
10:24:48:537;-0.22984336;10.189722;-0.63206923
10:24:48:643;-0.019153614;9.825804;0.5554548
10:24:48:643;-0.019153614;9.825804;0.5554548
10:24:48:643;-0.019153614;9.825804;0.5554548
10:24:48:643;-0.019153614;9.825804;0.5554548
10:24:48:643;-0.019153614;9.825804;0.5554548
10:24:48:643;-0.019153614;9.825804;0.5554548
10:24:48:643;-0.019153614;9.825804;0.5554548
10:24:48:643;-0.019153614;9.825804;0.5554548
10:24:48:643;-0.019153614;9.825804;0.5554548
10:24:48:643;-0.019153614;9.825804;0.5554548
10:24:48:643;-0.019153614;9.825804;0.5554548
10:24:48:643;-0.019153614;9.825804;0.5554548
10:24:48:643;-0.019153614;9.825804;0.5554548
10:24:48:745;-0.30645782;9.481039;-0.4213795
10:24:48:745;-0.30645782;9.481039;-0.4213795
10:24:48:745;-0.30645782;9.481039;-0.4213795
10:24:48:745;-0.30645782;9.481039;-0.4213795
10:24:48:745;-0.30645782;9.481039;-0.4213795
10:24:48:745;-0.30645782;9.481039;-0.4213795
10:24:48:745;-0.30645782;9.481039;-0.4213795
10:24:48:745;-0.30645782;9.481039;-0.4213795
10:24:48:745;-0.30645782;9.481039;-0.4213795
10:24:48:745;-0.30645782;9.481039;-0.4213795
10:24:48:745;-0.30645782;9.481039;-0.4213795
10:24:48:745;-0.30645782;9.481039;-0.4213795
10:24:48:745;-0.30645782;9.481039;-0.4213795
10:24:48:745;-0.30645782;9.481039;-0.4213795
10:24:48:745;-0.30645782;9.481039;-0.4213795
10:24:48:745;-0.30645782;9.481039;-0.4213795
10:24:48:745;-0.30645782;9.481039;-0.4213795
10:24:48:880;0.32561144;9.825804;-0.36391866
10:24:48:880;0.32561144;9.825804;-0.36391866
10:24:48:880;0.32561144;9.825804;-0.36391866
10:24:48:880;0.32561144;9.825804;-0.36391866
10:24:48:880;0.32561144;9.825804;-0.36391866
10:24:48:880;0.32561144;9.825804;-0.36391866
10:24:48:880;0.32561144;9.825804;-0.36391866
10:24:48:880;0.32561144;9.825804;-0.36391866
10:24:48:880;0.32561144;9.825804;-0.36391866
10:24:48:880;0.32561144;9.825804;-0.36391866
10:24:48:880;0.32561144;9.825804;-0.36391866
10:24:48:880;0.32561144;9.825804;-0.36391866
10:24:48:880;0.32561144;9.825804;-0.36391866
10:24:48:880;0.32561144;9.825804;-0.36391866
10:24:48:880;0.32561144;9.825804;-0.36391866
10:24:48:999;0.05746084;9.80665;-0.076614454
10:24:48:999;0.05746084;9.80665;-0.076614454
10:24:48:999;0.05746084;9.80665;-0.076614454
10:24:48:999;0.05746084;9.80665;-0.076614454
10:24:48:999;0.05746084;9.80665;-0.076614454
10:24:48:999;0.05746084;9.80665;-0.076614454
10:24:48:999;0.05746084;9.80665;-0.076614454
10:24:48:999;0.05746084;9.80665;-0.076614454
10:24:48:999;0.05746084;9.80665;-0.076614454
10:24:48:999;0.05746084;9.80665;-0.076614454
10:24:48:999;0.05746084;9.80665;-0.076614454
10:24:48:999;0.05746084;9.80665;-0.076614454
10:24:48:999;0.05746084;9.80665;-0.076614454
10:24:48:999;0.05746084;9.80665;-0.076614454
10:24:48:999;0.05746084;9.80665;-0.076614454
10:24:49:116;-0.2873042;10.97502;-0.34476504
10:24:49:116;-0.2873042;10.97502;-0.34476504
10:24:49:116;-0.2873042;10.97502;-0.34476504
10:24:49:116;-0.2873042;10.97502;-0.34476504
10:24:49:116;-0.2873042;10.97502;-0.34476504
10:24:49:116;-0.2873042;10.97502;-0.34476504
10:24:49:116;-0.2873042;10.97502;-0.34476504
10:24:49:116;-0.2873042;10.97502;-0.34476504
10:24:49:116;-0.2873042;10.97502;-0.34476504
10:24:49:116;-0.2873042;10.97502;-0.34476504
10:24:49:116;-0.2873042;10.97502;-0.34476504
10:24:49:116;-0.2873042;10.97502;-0.34476504
10:24:49:116;-0.2873042;10.97502;-0.34476504
10:24:49:116;-0.2873042;10.97502;-0.34476504
10:24:49:219;0.17238252;10.247183;0.5363012
10:24:49:219;0.17238252;10.247183;0.5363012
10:24:49:219;0.17238252;10.247183;0.5363012
10:24:49:219;0.17238252;10.247183;0.5363012
10:24:49:219;0.17238252;10.247183;0.5363012
10:24:49:219;0.17238252;10.247183;0.5363012
10:24:49:219;0.17238252;10.247183;0.5363012
10:24:49:219;0.17238252;10.247183;0.5363012
10:24:49:219;0.17238252;10.247183;0.5363012
10:24:49:219;0.17238252;10.247183;0.5363012
10:24:49:219;0.17238252;10.247183;0.5363012
10:24:49:219;0.17238252;10.247183;0.5363012
10:24:49:219;0.17238252;10.247183;0.5363012
10:24:49:219;0.17238252;10.247183;0.5363012
10:24:49:219;0.17238252;10.247183;0.5363012
10:24:49:337;-0.7086837;10.496181;0.095768064
10:24:49:337;-0.7086837;10.496181;0.095768064
10:24:49:337;-0.7086837;10.496181;0.095768064
10:24:49:337;-0.7086837;10.496181;0.095768064
10:24:49:337;-0.7086837;10.496181;0.095768064
10:24:49:337;-0.7086837;10.496181;0.095768064
10:24:49:337;-0.7086837;10.496181;0.095768064
10:24:49:337;-0.7086837;10.496181;0.095768064
10:24:49:337;-0.7086837;10.496181;0.095768064
10:24:49:337;-0.7086837;10.496181;0.095768064
10:24:49:337;-0.7086837;10.496181;0.095768064
10:24:49:337;-0.7086837;10.496181;0.095768064
10:24:49:337;-0.7086837;10.496181;0.095768064
10:24:49:441;0.038307227;9.844957;0.90021986
10:24:49:441;0.038307227;9.844957;0.90021986
10:24:49:441;0.038307227;9.844957;0.90021986
10:24:49:441;0.038307227;9.844957;0.90021986
10:24:49:441;0.038307227;9.844957;0.90021986
10:24:49:441;0.038307227;9.844957;0.90021986
10:24:49:441;0.038307227;9.844957;0.90021986
10:24:49:441;0.038307227;9.844957;0.90021986
10:24:49:441;0.038307227;9.844957;0.90021986
10:24:49:441;0.038307227;9.844957;0.90021986
10:24:49:441;0.038307227;9.844957;0.90021986
10:24:49:441;0.038307227;9.844957;0.90021986
10:24:49:441;0.038307227;9.844957;0.90021986
10:24:49:441;0.038307227;9.844957;0.90021986
10:24:49:554;0.36391866;9.787497;-1.8387469
10:24:49:554;0.36391866;9.787497;-1.8387469
10:24:49:554;0.36391866;9.787497;-1.8387469
10:24:49:554;0.36391866;9.787497;-1.8387469
10:24:49:554;0.36391866;9.787497;-1.8387469
10:24:49:554;0.36391866;9.787497;-1.8387469
10:24:49:554;0.36391866;9.787497;-1.8387469
10:24:49:554;0.36391866;9.787497;-1.8387469
10:24:49:554;0.36391866;9.787497;-1.8387469
10:24:49:554;0.36391866;9.787497;-1.8387469
10:24:49:554;0.36391866;9.787497;-1.8387469
10:24:49:554;0.36391866;9.787497;-1.8387469
10:24:49:554;0.36391866;9.787497;-1.8387469
10:24:49:554;0.36391866;9.787497;-1.8387469
10:24:49:554;0.36391866;9.787497;-1.8387469
10:24:49:554;0.36391866;9.787497;-1.8387469
10:24:49:554;0.36391866;9.787497;-1.8387469
10:24:49:680;-0.019153614;9.749189;0.21068975
10:24:49:680;-0.019153614;9.749189;0.21068975
10:24:49:680;-0.019153614;9.749189;0.21068975
10:24:49:680;-0.019153614;9.749189;0.21068975
10:24:49:680;-0.019153614;9.749189;0.21068975
10:24:49:680;-0.019153614;9.749189;0.21068975
10:24:49:680;-0.019153614;9.749189;0.21068975
10:24:49:680;-0.019153614;9.749189;0.21068975
10:24:49:680;-0.019153614;9.749189;0.21068975
10:24:49:680;-0.019153614;9.749189;0.21068975
10:24:49:680;-0.019153614;9.749189;0.21068975
10:24:49:680;-0.019153614;9.749189;0.21068975
10:24:49:680;-0.019153614;9.749189;0.21068975
10:24:49:680;-0.019153614;9.749189;0.21068975
10:24:49:680;-0.019153614;9.749189;0.21068975
10:24:49:801;0.5363012;10.01734;0.1340753
10:24:49:801;0.5363012;10.01734;0.1340753
10:24:49:801;0.5363012;10.01734;0.1340753
10:24:49:801;0.5363012;10.01734;0.1340753
10:24:49:801;0.5363012;10.01734;0.1340753
10:24:49:801;0.5363012;10.01734;0.1340753
10:24:49:801;0.5363012;10.01734;0.1340753
10:24:49:801;0.5363012;10.01734;0.1340753
10:24:49:801;0.5363012;10.01734;0.1340753
10:24:49:801;0.5363012;10.01734;0.1340753
10:24:49:801;0.5363012;10.01734;0.1340753
10:24:49:801;0.5363012;10.01734;0.1340753
10:24:49:801;0.5363012;10.01734;0.1340753
10:24:49:801;0.5363012;10.01734;0.1340753
10:24:49:910;-0.076614454;10.668563;-0.21068975
10:24:49:910;-0.076614454;10.668563;-0.21068975
10:24:49:910;-0.076614454;10.668563;-0.21068975
10:24:49:910;-0.076614454;10.668563;-0.21068975
10:24:49:910;-0.076614454;10.668563;-0.21068975
10:24:49:910;-0.076614454;10.668563;-0.21068975
10:24:49:910;-0.076614454;10.668563;-0.21068975
10:24:49:910;-0.076614454;10.668563;-0.21068975
10:24:49:910;-0.076614454;10.668563;-0.21068975
10:24:49:910;-0.076614454;10.668563;-0.21068975
10:24:49:910;-0.076614454;10.668563;-0.21068975
10:24:49:910;-0.076614454;10.668563;-0.21068975
10:24:49:910;-0.076614454;10.668563;-0.21068975
10:24:49:910;-0.076614454;10.668563;-0.21068975
10:24:50:017;-0.5746084;8.523358;1.6663644
10:24:50:017;-0.5746084;8.523358;1.6663644
10:24:50:017;-0.5746084;8.523358;1.6663644
10:24:50:017;-0.5746084;8.523358;1.6663644
10:24:50:017;-0.5746084;8.523358;1.6663644
10:24:50:017;-0.5746084;8.523358;1.6663644
10:24:50:017;-0.5746084;8.523358;1.6663644
10:24:50:017;-0.5746084;8.523358;1.6663644
10:24:50:017;-0.5746084;8.523358;1.6663644
10:24:50:017;-0.5746084;8.523358;1.6663644
10:24:50:017;-0.5746084;8.523358;1.6663644
10:24:50:017;-0.5746084;8.523358;1.6663644
10:24:50:017;-0.5746084;8.523358;1.6663644
10:24:50:118;0.19153613;8.0445175;0.38307226
10:24:50:118;0.19153613;8.0445175;0.38307226
10:24:50:118;0.19153613;8.0445175;0.38307226
10:24:50:118;0.19153613;8.0445175;0.38307226
10:24:50:118;0.19153613;8.0445175;0.38307226
10:24:50:118;0.19153613;8.0445175;0.38307226
10:24:50:118;0.19153613;8.0445175;0.38307226
10:24:50:118;0.19153613;8.0445175;0.38307226
10:24:50:118;0.19153613;8.0445175;0.38307226
10:24:50:118;0.19153613;8.0445175;0.38307226
10:24:50:118;0.19153613;8.0445175;0.38307226
10:24:50:118;0.19153613;8.0445175;0.38307226
10:24:50:118;0.19153613;8.0445175;0.38307226
10:24:50:118;0.19153613;8.0445175;0.38307226
10:24:50:118;0.19153613;8.0445175;0.38307226
10:24:50:237;-0.2681506;11.166556;-1.6472107
10:24:50:237;-0.2681506;11.166556;-1.6472107
10:24:50:237;-0.2681506;11.166556;-1.6472107
10:24:50:237;-0.2681506;11.166556;-1.6472107
10:24:50:237;-0.2681506;11.166556;-1.6472107
10:24:50:237;-0.2681506;11.166556;-1.6472107
10:24:50:237;-0.2681506;11.166556;-1.6472107
10:24:50:237;-0.2681506;11.166556;-1.6472107
10:24:50:237;-0.2681506;11.166556;-1.6472107
10:24:50:237;-0.2681506;11.166556;-1.6472107
10:24:50:237;-0.2681506;11.166556;-1.6472107
10:24:50:237;-0.2681506;11.166556;-1.6472107
10:24:50:237;-0.2681506;11.166556;-1.6472107
10:24:50:237;-0.2681506;11.166556;-1.6472107
10:24:50:237;-0.2681506;11.166556;-1.6472107
10:24:50:354;0.2873042;10.28549;0.38307226
10:24:50:354;0.2873042;10.28549;0.38307226
10:24:50:354;0.2873042;10.28549;0.38307226
10:24:50:354;0.2873042;10.28549;0.38307226
10:24:50:354;0.2873042;10.28549;0.38307226
10:24:50:354;0.2873042;10.28549;0.38307226
10:24:50:354;0.2873042;10.28549;0.38307226
10:24:50:354;0.2873042;10.28549;0.38307226
10:24:50:354;0.2873042;10.28549;0.38307226
10:24:50:354;0.2873042;10.28549;0.38307226
10:24:50:354;0.2873042;10.28549;0.38307226
10:24:50:354;0.2873042;10.28549;0.38307226
10:24:50:354;0.2873042;10.28549;0.38307226
10:24:50:455;-0.40222588;11.9135475;-0.4405331
10:24:50:455;-0.40222588;11.9135475;-0.4405331
10:24:50:455;-0.40222588;11.9135475;-0.4405331
10:24:50:455;-0.40222588;11.9135475;-0.4405331
10:24:50:455;-0.40222588;11.9135475;-0.4405331
10:24:50:455;-0.40222588;11.9135475;-0.4405331
10:24:50:455;-0.40222588;11.9135475;-0.4405331
10:24:50:455;-0.40222588;11.9135475;-0.4405331
10:24:50:455;-0.40222588;11.9135475;-0.4405331
10:24:50:455;-0.40222588;11.9135475;-0.4405331
10:24:50:455;-0.40222588;11.9135475;-0.4405331
10:24:50:455;-0.40222588;11.9135475;-0.4405331
10:24:50:455;-0.40222588;11.9135475;-0.4405331
10:24:50:561;-0.34476504;10.132261;0.90021986
10:24:50:561;-0.34476504;10.132261;0.90021986
10:24:50:561;-0.34476504;10.132261;0.90021986
10:24:50:561;-0.34476504;10.132261;0.90021986
10:24:50:561;-0.34476504;10.132261;0.90021986
10:24:50:561;-0.34476504;10.132261;0.90021986
10:24:50:561;-0.34476504;10.132261;0.90021986
10:24:50:561;-0.34476504;10.132261;0.90021986
10:24:50:561;-0.34476504;10.132261;0.90021986
10:24:50:561;-0.34476504;10.132261;0.90021986
10:24:50:561;-0.34476504;10.132261;0.90021986
10:24:50:561;-0.34476504;10.132261;0.90021986
10:24:50:561;-0.34476504;10.132261;0.90021986
10:24:50:561;-0.34476504;10.132261;0.90021986
10:24:50:561;-0.34476504;10.132261;0.90021986
10:24:50:679;-0.19153613;9.481039;-0.45968673
10:24:50:679;-0.19153613;9.481039;-0.45968673
10:24:50:679;-0.19153613;9.481039;-0.45968673
10:24:50:679;-0.19153613;9.481039;-0.45968673
10:24:50:679;-0.19153613;9.481039;-0.45968673
10:24:50:679;-0.19153613;9.481039;-0.45968673
10:24:50:679;-0.19153613;9.481039;-0.45968673
10:24:50:679;-0.19153613;9.481039;-0.45968673
10:24:50:679;-0.19153613;9.481039;-0.45968673
10:24:50:679;-0.19153613;9.481039;-0.45968673
10:24:50:679;-0.19153613;9.481039;-0.45968673
10:24:50:679;-0.19153613;9.481039;-0.45968673
10:24:50:679;-0.19153613;9.481039;-0.45968673
10:24:50:679;-0.19153613;9.481039;-0.45968673
10:24:50:679;-0.19153613;9.481039;-0.45968673
10:24:50:679;-0.19153613;9.481039;-0.45968673
10:24:50:799;-0.11492168;7.680599;0.24899697
10:24:50:799;-0.11492168;7.680599;0.24899697
10:24:50:799;-0.11492168;7.680599;0.24899697
10:24:50:799;-0.11492168;7.680599;0.24899697
10:24:50:799;-0.11492168;7.680599;0.24899697
10:24:50:799;-0.11492168;7.680599;0.24899697
10:24:50:799;-0.11492168;7.680599;0.24899697
10:24:50:799;-0.11492168;7.680599;0.24899697
10:24:50:799;-0.11492168;7.680599;0.24899697
10:24:50:799;-0.11492168;7.680599;0.24899697
10:24:50:799;-0.11492168;7.680599;0.24899697
10:24:50:799;-0.11492168;7.680599;0.24899697
10:24:50:799;-0.11492168;7.680599;0.24899697
10:24:50:904;-1.0151415;9.902418;0.30645782
10:24:50:904;-1.0151415;9.902418;0.30645782
10:24:50:904;-1.0151415;9.902418;0.30645782
10:24:50:904;-1.0151415;9.902418;0.30645782
10:24:50:904;-1.0151415;9.902418;0.30645782
10:24:50:904;-1.0151415;9.902418;0.30645782
10:24:50:904;-1.0151415;9.902418;0.30645782
10:24:50:904;-1.0151415;9.902418;0.30645782
10:24:50:904;-1.0151415;9.902418;0.30645782
10:24:50:904;-1.0151415;9.902418;0.30645782
10:24:50:904;-1.0151415;9.902418;0.30645782
10:24:50:904;-1.0151415;9.902418;0.30645782
10:24:50:904;-1.0151415;9.902418;0.30645782
10:24:51:007;-0.47884035;9.653421;0.15322891
10:24:51:007;-0.47884035;9.653421;0.15322891
10:24:51:007;-0.47884035;9.653421;0.15322891
10:24:51:007;-0.47884035;9.653421;0.15322891
10:24:51:007;-0.47884035;9.653421;0.15322891
10:24:51:007;-0.47884035;9.653421;0.15322891
10:24:51:007;-0.47884035;9.653421;0.15322891
10:24:51:007;-0.47884035;9.653421;0.15322891
10:24:51:007;-0.47884035;9.653421;0.15322891
10:24:51:007;-0.47884035;9.653421;0.15322891
10:24:51:007;-0.47884035;9.653421;0.15322891
10:24:51:007;-0.47884035;9.653421;0.15322891
10:24:51:007;-0.47884035;9.653421;0.15322891
10:24:51:007;-0.47884035;9.653421;0.15322891
10:24:51:110;-0.38307226;10.477027;0.30645782
10:24:51:110;-0.38307226;10.477027;0.30645782
10:24:51:110;-0.38307226;10.477027;0.30645782
10:24:51:110;-0.38307226;10.477027;0.30645782
10:24:51:110;-0.38307226;10.477027;0.30645782
10:24:51:110;-0.38307226;10.477027;0.30645782
10:24:51:110;-0.38307226;10.477027;0.30645782
10:24:51:110;-0.38307226;10.477027;0.30645782
10:24:51:110;-0.38307226;10.477027;0.30645782
10:24:51:110;-0.38307226;10.477027;0.30645782
10:24:51:110;-0.38307226;10.477027;0.30645782
10:24:51:110;-0.38307226;10.477027;0.30645782
10:24:51:110;-0.38307226;10.477027;0.30645782
10:24:51:110;-0.38307226;10.477027;0.30645782
10:24:51:110;-0.38307226;10.477027;0.30645782
10:24:51:110;-0.38307226;10.477027;0.30645782
10:24:51:239;-0.24899697;10.726024;-0.34476504
10:24:51:239;-0.24899697;10.726024;-0.34476504
10:24:51:239;-0.24899697;10.726024;-0.34476504
10:24:51:239;-0.24899697;10.726024;-0.34476504
10:24:51:239;-0.24899697;10.726024;-0.34476504
10:24:51:239;-0.24899697;10.726024;-0.34476504
10:24:51:239;-0.24899697;10.726024;-0.34476504
10:24:51:239;-0.24899697;10.726024;-0.34476504
10:24:51:239;-0.24899697;10.726024;-0.34476504
10:24:51:239;-0.24899697;10.726024;-0.34476504
10:24:51:239;-0.24899697;10.726024;-0.34476504
10:24:51:239;-0.24899697;10.726024;-0.34476504
10:24:51:239;-0.24899697;10.726024;-0.34476504
10:24:51:239;-0.24899697;10.726024;-0.34476504
10:24:51:351;-0.49799395;10.228029;-0.7661445
10:24:51:351;-0.49799395;10.228029;-0.7661445
10:24:51:351;-0.49799395;10.228029;-0.7661445
10:24:51:351;-0.49799395;10.228029;-0.7661445
10:24:51:351;-0.49799395;10.228029;-0.7661445
10:24:51:351;-0.49799395;10.228029;-0.7661445
10:24:51:351;-0.49799395;10.228029;-0.7661445
10:24:51:351;-0.49799395;10.228029;-0.7661445
10:24:51:351;-0.49799395;10.228029;-0.7661445
10:24:51:351;-0.49799395;10.228029;-0.7661445
10:24:51:351;-0.49799395;10.228029;-0.7661445
10:24:51:351;-0.49799395;10.228029;-0.7661445
10:24:51:351;-0.49799395;10.228029;-0.7661445
10:24:51:351;-0.49799395;10.228029;-0.7661445
10:24:51:351;-0.49799395;10.228029;-0.7661445
10:24:51:351;-0.49799395;10.228029;-0.7661445
10:24:51:475;-0.49799395;8.829816;0.15322891
10:24:51:475;-0.49799395;8.829816;0.15322891
10:24:51:475;-0.49799395;8.829816;0.15322891
10:24:51:475;-0.49799395;8.829816;0.15322891
10:24:51:475;-0.49799395;8.829816;0.15322891
10:24:51:475;-0.49799395;8.829816;0.15322891
10:24:51:475;-0.49799395;8.829816;0.15322891
10:24:51:475;-0.49799395;8.829816;0.15322891
10:24:51:475;-0.49799395;8.829816;0.15322891
10:24:51:475;-0.49799395;8.829816;0.15322891
10:24:51:475;-0.49799395;8.829816;0.15322891
10:24:51:475;-0.49799395;8.829816;0.15322891
10:24:51:475;-0.49799395;8.829816;0.15322891
10:24:51:475;-0.49799395;8.829816;0.15322891
10:24:51:475;-0.49799395;8.829816;0.15322891
10:24:51:475;-0.49799395;8.829816;0.15322891
10:24:51:595;-0.4405331;9.481039;0.47884035
10:24:51:595;-0.4405331;9.481039;0.47884035
10:24:51:595;-0.4405331;9.481039;0.47884035
10:24:51:595;-0.4405331;9.481039;0.47884035
10:24:51:595;-0.4405331;9.481039;0.47884035
10:24:51:595;-0.4405331;9.481039;0.47884035
10:24:51:595;-0.4405331;9.481039;0.47884035
10:24:51:595;-0.4405331;9.481039;0.47884035
10:24:51:595;-0.4405331;9.481039;0.47884035
10:24:51:595;-0.4405331;9.481039;0.47884035
10:24:51:595;-0.4405331;9.481039;0.47884035
10:24:51:595;-0.4405331;9.481039;0.47884035
10:24:51:595;-0.4405331;9.481039;0.47884035
10:24:51:595;-0.4405331;9.481039;0.47884035
10:24:51:710;-0.17238252;10.113108;0.61291564
10:24:51:710;-0.17238252;10.113108;0.61291564
10:24:51:710;-0.17238252;10.113108;0.61291564
10:24:51:710;-0.17238252;10.113108;0.61291564
10:24:51:710;-0.17238252;10.113108;0.61291564
10:24:51:710;-0.17238252;10.113108;0.61291564
10:24:51:710;-0.17238252;10.113108;0.61291564
10:24:51:710;-0.17238252;10.113108;0.61291564
10:24:51:710;-0.17238252;10.113108;0.61291564
10:24:51:710;-0.17238252;10.113108;0.61291564
10:24:51:710;-0.17238252;10.113108;0.61291564
10:24:51:710;-0.17238252;10.113108;0.61291564
10:24:51:710;-0.17238252;10.113108;0.61291564
10:24:51:710;-0.17238252;10.113108;0.61291564
10:24:51:710;-0.17238252;10.113108;0.61291564
10:24:51:710;-0.17238252;10.113108;0.61291564
10:24:51:710;-0.17238252;10.113108;0.61291564
10:24:51:710;-0.17238252;10.113108;0.61291564
10:24:51:710;-0.17238252;10.113108;0.61291564
10:24:51:858;-0.21068975;10.611102;0.30645782
10:24:51:858;-0.21068975;10.611102;0.30645782
10:24:51:858;-0.21068975;10.611102;0.30645782
10:24:51:858;-0.21068975;10.611102;0.30645782
10:24:51:858;-0.21068975;10.611102;0.30645782
10:24:51:858;-0.21068975;10.611102;0.30645782
10:24:51:858;-0.21068975;10.611102;0.30645782
10:24:51:858;-0.21068975;10.611102;0.30645782
10:24:51:858;-0.21068975;10.611102;0.30645782
10:24:51:858;-0.21068975;10.611102;0.30645782
10:24:51:858;-0.21068975;10.611102;0.30645782
10:24:51:858;-0.21068975;10.611102;0.30645782
10:24:51:858;-0.21068975;10.611102;0.30645782
10:24:51:858;-0.21068975;10.611102;0.30645782
10:24:51:962;-0.05746084;10.247183;-0.32561144
10:24:51:962;-0.05746084;10.247183;-0.32561144
10:24:51:962;-0.05746084;10.247183;-0.32561144
10:24:51:962;-0.05746084;10.247183;-0.32561144
10:24:51:962;-0.05746084;10.247183;-0.32561144
10:24:51:962;-0.05746084;10.247183;-0.32561144
10:24:51:962;-0.05746084;10.247183;-0.32561144
10:24:51:962;-0.05746084;10.247183;-0.32561144
10:24:51:962;-0.05746084;10.247183;-0.32561144
10:24:51:962;-0.05746084;10.247183;-0.32561144
10:24:51:962;-0.05746084;10.247183;-0.32561144
10:24:51:962;-0.05746084;10.247183;-0.32561144
10:24:51:962;-0.05746084;10.247183;-0.32561144
10:24:51:962;-0.05746084;10.247183;-0.32561144
10:24:51:962;-0.05746084;10.247183;-0.32561144
10:24:52:080;-0.19153613;10.151415;0.038307227
10:24:52:080;-0.19153613;10.151415;0.038307227
10:24:52:080;-0.19153613;10.151415;0.038307227
10:24:52:080;-0.19153613;10.151415;0.038307227
10:24:52:080;-0.19153613;10.151415;0.038307227
10:24:52:080;-0.19153613;10.151415;0.038307227
10:24:52:080;-0.19153613;10.151415;0.038307227
10:24:52:080;-0.19153613;10.151415;0.038307227
10:24:52:080;-0.19153613;10.151415;0.038307227
10:24:52:080;-0.19153613;10.151415;0.038307227
10:24:52:080;-0.19153613;10.151415;0.038307227
10:24:52:080;-0.19153613;10.151415;0.038307227
10:24:52:080;-0.19153613;10.151415;0.038307227
10:24:52:080;-0.19153613;10.151415;0.038307227
10:24:52:080;-0.19153613;10.151415;0.038307227
10:24:52:200;-0.40222588;10.247183;-0.038307227
10:24:52:200;-0.40222588;10.247183;-0.038307227
10:24:52:200;-0.40222588;10.247183;-0.038307227
10:24:52:200;-0.40222588;10.247183;-0.038307227
10:24:52:200;-0.40222588;10.247183;-0.038307227
10:24:52:200;-0.40222588;10.247183;-0.038307227
10:24:52:200;-0.40222588;10.247183;-0.038307227
10:24:52:200;-0.40222588;10.247183;-0.038307227
10:24:52:200;-0.40222588;10.247183;-0.038307227
10:24:52:200;-0.40222588;10.247183;-0.038307227
10:24:52:200;-0.40222588;10.247183;-0.038307227
10:24:52:200;-0.40222588;10.247183;-0.038307227
10:24:52:200;-0.40222588;10.247183;-0.038307227
10:24:52:200;-0.40222588;10.247183;-0.038307227
10:24:52:200;-0.40222588;10.247183;-0.038307227
10:24:52:316;-0.21068975;10.01734;-0.38307226
10:24:52:316;-0.21068975;10.01734;-0.38307226
10:24:52:316;-0.21068975;10.01734;-0.38307226
10:24:52:316;-0.21068975;10.01734;-0.38307226
10:24:52:316;-0.21068975;10.01734;-0.38307226
10:24:52:316;-0.21068975;10.01734;-0.38307226
10:24:52:316;-0.21068975;10.01734;-0.38307226
10:24:52:316;-0.21068975;10.01734;-0.38307226
10:24:52:316;-0.21068975;10.01734;-0.38307226
10:24:52:316;-0.21068975;10.01734;-0.38307226
10:24:52:316;-0.21068975;10.01734;-0.38307226
10:24:52:316;-0.21068975;10.01734;-0.38307226
10:24:52:316;-0.21068975;10.01734;-0.38307226
10:24:52:316;-0.21068975;10.01734;-0.38307226
10:24:52:316;-0.21068975;10.01734;-0.38307226
10:24:52:316;-0.21068975;10.01734;-0.38307226
10:24:52:316;-0.21068975;10.01734;-0.38307226
10:24:52:449;-0.6703765;9.615114;-0.11492168
10:24:52:449;-0.6703765;9.615114;-0.11492168
10:24:52:449;-0.6703765;9.615114;-0.11492168
10:24:52:449;-0.6703765;9.615114;-0.11492168
10:24:52:449;-0.6703765;9.615114;-0.11492168
10:24:52:449;-0.6703765;9.615114;-0.11492168
10:24:52:449;-0.6703765;9.615114;-0.11492168
10:24:52:449;-0.6703765;9.615114;-0.11492168
10:24:52:449;-0.6703765;9.615114;-0.11492168
10:24:52:449;-0.6703765;9.615114;-0.11492168
10:24:52:449;-0.6703765;9.615114;-0.11492168
10:24:52:449;-0.6703765;9.615114;-0.11492168
10:24:52:449;-0.6703765;9.615114;-0.11492168
10:24:52:449;-0.6703765;9.615114;-0.11492168
10:24:52:559;-0.19153613;9.672575;0.47884035
10:24:52:559;-0.19153613;9.672575;0.47884035
10:24:52:559;-0.19153613;9.672575;0.47884035
10:24:52:559;-0.19153613;9.672575;0.47884035
10:24:52:559;-0.19153613;9.672575;0.47884035
10:24:52:559;-0.19153613;9.672575;0.47884035
10:24:52:559;-0.19153613;9.672575;0.47884035
10:24:52:559;-0.19153613;9.672575;0.47884035
10:24:52:559;-0.19153613;9.672575;0.47884035
10:24:52:559;-0.19153613;9.672575;0.47884035
10:24:52:559;-0.19153613;9.672575;0.47884035
10:24:52:559;-0.19153613;9.672575;0.47884035
10:24:52:559;-0.19153613;9.672575;0.47884035
10:24:52:559;-0.19153613;9.672575;0.47884035
10:24:52:559;-0.19153613;9.672575;0.47884035
10:24:52:559;-0.19153613;9.672575;0.47884035
10:24:52:559;-0.19153613;9.672575;0.47884035
10:24:52:689;-0.38307226;10.515334;-0.51714754
10:24:52:689;-0.38307226;10.515334;-0.51714754
10:24:52:689;-0.38307226;10.515334;-0.51714754
10:24:52:689;-0.38307226;10.515334;-0.51714754
10:24:52:689;-0.38307226;10.515334;-0.51714754
10:24:52:689;-0.38307226;10.515334;-0.51714754
10:24:52:689;-0.38307226;10.515334;-0.51714754
10:24:52:689;-0.38307226;10.515334;-0.51714754
10:24:52:689;-0.38307226;10.515334;-0.51714754
10:24:52:689;-0.38307226;10.515334;-0.51714754
10:24:52:689;-0.38307226;10.515334;-0.51714754
10:24:52:689;-0.38307226;10.515334;-0.51714754
10:24:52:689;-0.38307226;10.515334;-0.51714754
10:24:52:796;-0.32561144;9.251195;0.61291564
10:24:52:796;-0.32561144;9.251195;0.61291564
10:24:52:796;-0.32561144;9.251195;0.61291564
10:24:52:796;-0.32561144;9.251195;0.61291564
10:24:52:796;-0.32561144;9.251195;0.61291564
10:24:52:796;-0.32561144;9.251195;0.61291564
10:24:52:796;-0.32561144;9.251195;0.61291564
10:24:52:796;-0.32561144;9.251195;0.61291564
10:24:52:796;-0.32561144;9.251195;0.61291564
10:24:52:796;-0.32561144;9.251195;0.61291564
10:24:52:796;-0.32561144;9.251195;0.61291564
10:24:52:796;-0.32561144;9.251195;0.61291564
10:24:52:796;-0.32561144;9.251195;0.61291564
10:24:52:796;-0.32561144;9.251195;0.61291564
10:24:52:796;-0.32561144;9.251195;0.61291564
10:24:52:796;-0.32561144;9.251195;0.61291564
10:24:52:796;-0.32561144;9.251195;0.61291564
10:24:52:928;-0.15322891;9.461885;0.7086837
10:24:52:928;-0.15322891;9.461885;0.7086837
10:24:52:928;-0.15322891;9.461885;0.7086837
10:24:52:928;-0.15322891;9.461885;0.7086837
10:24:52:928;-0.15322891;9.461885;0.7086837
10:24:52:928;-0.15322891;9.461885;0.7086837
10:24:52:928;-0.15322891;9.461885;0.7086837
10:24:52:928;-0.15322891;9.461885;0.7086837
10:24:52:928;-0.15322891;9.461885;0.7086837
10:24:52:928;-0.15322891;9.461885;0.7086837
10:24:52:928;-0.15322891;9.461885;0.7086837
10:24:52:928;-0.15322891;9.461885;0.7086837
10:24:52:928;-0.15322891;9.461885;0.7086837
10:24:52:928;-0.15322891;9.461885;0.7086837
10:24:52:928;-0.15322891;9.461885;0.7086837
10:24:53:045;-0.49799395;9.883265;0.8619126
10:24:53:045;-0.49799395;9.883265;0.8619126
10:24:53:045;-0.49799395;9.883265;0.8619126
10:24:53:045;-0.49799395;9.883265;0.8619126
10:24:53:045;-0.49799395;9.883265;0.8619126
10:24:53:045;-0.49799395;9.883265;0.8619126
10:24:53:045;-0.49799395;9.883265;0.8619126
10:24:53:045;-0.49799395;9.883265;0.8619126
10:24:53:045;-0.49799395;9.883265;0.8619126
10:24:53:045;-0.49799395;9.883265;0.8619126
10:24:53:045;-0.49799395;9.883265;0.8619126
10:24:53:045;-0.49799395;9.883265;0.8619126
10:24:53:045;-0.49799395;9.883265;0.8619126
10:24:53:045;-0.49799395;9.883265;0.8619126
10:24:53:045;-0.49799395;9.883265;0.8619126
10:24:53:045;-0.49799395;9.883265;0.8619126
10:24:53:045;-0.49799395;9.883265;0.8619126
10:24:53:045;-0.49799395;9.883265;0.8619126
10:24:53:045;-0.49799395;9.883265;0.8619126
10:24:53:045;-0.49799395;9.883265;0.8619126
10:24:53:199;-0.80445176;9.442732;0.7661445
10:24:53:199;-0.80445176;9.442732;0.7661445
10:24:53:199;-0.80445176;9.442732;0.7661445
10:24:53:199;-0.80445176;9.442732;0.7661445
10:24:53:199;-0.80445176;9.442732;0.7661445
10:24:53:199;-0.80445176;9.442732;0.7661445
10:24:53:199;-0.80445176;9.442732;0.7661445
10:24:53:199;-0.80445176;9.442732;0.7661445
10:24:53:199;-0.80445176;9.442732;0.7661445
10:24:53:199;-0.80445176;9.442732;0.7661445
10:24:53:199;-0.80445176;9.442732;0.7661445
10:24:53:199;-0.80445176;9.442732;0.7661445
10:24:53:199;-0.80445176;9.442732;0.7661445
10:24:53:303;-0.22984336;9.959879;-1.283292
10:24:53:303;-0.22984336;9.959879;-1.283292
10:24:53:303;-0.22984336;9.959879;-1.283292
10:24:53:303;-0.22984336;9.959879;-1.283292
10:24:53:303;-0.22984336;9.959879;-1.283292
10:24:53:303;-0.22984336;9.959879;-1.283292
10:24:53:303;-0.22984336;9.959879;-1.283292
10:24:53:303;-0.22984336;9.959879;-1.283292
10:24:53:303;-0.22984336;9.959879;-1.283292
10:24:53:303;-0.22984336;9.959879;-1.283292
10:24:53:303;-0.22984336;9.959879;-1.283292
10:24:53:303;-0.22984336;9.959879;-1.283292
10:24:53:303;-0.22984336;9.959879;-1.283292
10:24:53:303;-0.22984336;9.959879;-1.283292
10:24:53:303;-0.22984336;9.959879;-1.283292
10:24:53:303;-0.22984336;9.959879;-1.283292
10:24:53:422;-1.091756;11.281479;0.4213795
10:24:53:422;-1.091756;11.281479;0.4213795
10:24:53:422;-1.091756;11.281479;0.4213795
10:24:53:422;-1.091756;11.281479;0.4213795
10:24:53:422;-1.091756;11.281479;0.4213795
10:24:53:422;-1.091756;11.281479;0.4213795
10:24:53:422;-1.091756;11.281479;0.4213795
10:24:53:422;-1.091756;11.281479;0.4213795
10:24:53:422;-1.091756;11.281479;0.4213795
10:24:53:422;-1.091756;11.281479;0.4213795
10:24:53:422;-1.091756;11.281479;0.4213795
10:24:53:422;-1.091756;11.281479;0.4213795
10:24:53:422;-1.091756;11.281479;0.4213795
10:24:53:422;-1.091756;11.281479;0.4213795
10:24:53:422;-1.091756;11.281479;0.4213795
10:24:53:541;-0.38307226;10.515334;-0.82360536
10:24:53:541;-0.38307226;10.515334;-0.82360536
10:24:53:541;-0.38307226;10.515334;-0.82360536
10:24:53:541;-0.38307226;10.515334;-0.82360536
10:24:53:541;-0.38307226;10.515334;-0.82360536
10:24:53:541;-0.38307226;10.515334;-0.82360536
10:24:53:541;-0.38307226;10.515334;-0.82360536
10:24:53:541;-0.38307226;10.515334;-0.82360536
10:24:53:541;-0.38307226;10.515334;-0.82360536
10:24:53:541;-0.38307226;10.515334;-0.82360536
10:24:53:541;-0.38307226;10.515334;-0.82360536
10:24:53:541;-0.38307226;10.515334;-0.82360536
10:24:53:541;-0.38307226;10.515334;-0.82360536
10:24:53:541;-0.38307226;10.515334;-0.82360536
10:24:53:541;-0.38307226;10.515334;-0.82360536
10:24:53:662;-0.34476504;10.323798;-0.6895301
10:24:53:662;-0.34476504;10.323798;-0.6895301
10:24:53:662;-0.34476504;10.323798;-0.6895301
10:24:53:662;-0.34476504;10.323798;-0.6895301
10:24:53:662;-0.34476504;10.323798;-0.6895301
10:24:53:662;-0.34476504;10.323798;-0.6895301
10:24:53:662;-0.34476504;10.323798;-0.6895301
10:24:53:662;-0.34476504;10.323798;-0.6895301
10:24:53:662;-0.34476504;10.323798;-0.6895301
10:24:53:662;-0.34476504;10.323798;-0.6895301
10:24:53:662;-0.34476504;10.323798;-0.6895301
10:24:53:662;-0.34476504;10.323798;-0.6895301
10:24:53:662;-0.34476504;10.323798;-0.6895301
10:24:53:662;-0.34476504;10.323798;-0.6895301
10:24:53:662;-0.34476504;10.323798;-0.6895301
10:24:53:779;-0.11492168;9.481039;1.3790601
10:24:53:779;-0.11492168;9.481039;1.3790601
10:24:53:779;-0.11492168;9.481039;1.3790601
10:24:53:779;-0.11492168;9.481039;1.3790601
10:24:53:779;-0.11492168;9.481039;1.3790601
10:24:53:779;-0.11492168;9.481039;1.3790601
10:24:53:779;-0.11492168;9.481039;1.3790601
10:24:53:779;-0.11492168;9.481039;1.3790601
10:24:53:779;-0.11492168;9.481039;1.3790601
10:24:53:779;-0.11492168;9.481039;1.3790601
10:24:53:779;-0.11492168;9.481039;1.3790601
10:24:53:779;-0.11492168;9.481039;1.3790601
10:24:53:779;-0.11492168;9.481039;1.3790601
10:24:53:779;-0.11492168;9.481039;1.3790601
10:24:53:779;-0.11492168;9.481039;1.3790601
10:24:53:896;-0.34476504;9.730036;-0.038307227
10:24:53:896;-0.34476504;9.730036;-0.038307227
10:24:53:896;-0.34476504;9.730036;-0.038307227
10:24:53:896;-0.34476504;9.730036;-0.038307227
10:24:53:896;-0.34476504;9.730036;-0.038307227
10:24:53:896;-0.34476504;9.730036;-0.038307227
10:24:53:896;-0.34476504;9.730036;-0.038307227
10:24:53:896;-0.34476504;9.730036;-0.038307227
10:24:53:896;-0.34476504;9.730036;-0.038307227
10:24:53:896;-0.34476504;9.730036;-0.038307227
10:24:53:896;-0.34476504;9.730036;-0.038307227
10:24:53:896;-0.34476504;9.730036;-0.038307227
10:24:53:896;-0.34476504;9.730036;-0.038307227
10:24:53:896;-0.34476504;9.730036;-0.038307227
10:24:53:896;-0.34476504;9.730036;-0.038307227
10:24:54:013;-0.6703765;10.093954;0.5746084
10:24:54:013;-0.6703765;10.093954;0.5746084
10:24:54:013;-0.6703765;10.093954;0.5746084
10:24:54:013;-0.6703765;10.093954;0.5746084
10:24:54:013;-0.6703765;10.093954;0.5746084
10:24:54:013;-0.6703765;10.093954;0.5746084
10:24:54:013;-0.6703765;10.093954;0.5746084
10:24:54:013;-0.6703765;10.093954;0.5746084
10:24:54:013;-0.6703765;10.093954;0.5746084
10:24:54:013;-0.6703765;10.093954;0.5746084
10:24:54:013;-0.6703765;10.093954;0.5746084
10:24:54:013;-0.6703765;10.093954;0.5746084
10:24:54:013;-0.6703765;10.093954;0.5746084
10:24:54:114;0.19153613;9.519346;0.038307227
10:24:54:114;0.19153613;9.519346;0.038307227
10:24:54:114;0.19153613;9.519346;0.038307227
10:24:54:114;0.19153613;9.519346;0.038307227
10:24:54:114;0.19153613;9.519346;0.038307227
10:24:54:114;0.19153613;9.519346;0.038307227
10:24:54:114;0.19153613;9.519346;0.038307227
10:24:54:114;0.19153613;9.519346;0.038307227
10:24:54:114;0.19153613;9.519346;0.038307227
10:24:54:114;0.19153613;9.519346;0.038307227
10:24:54:114;0.19153613;9.519346;0.038307227
10:24:54:114;0.19153613;9.519346;0.038307227
10:24:54:114;0.19153613;9.519346;0.038307227
10:24:54:114;0.19153613;9.519346;0.038307227
10:24:54:114;0.19153613;9.519346;0.038307227
10:24:54:233;0.076614454;10.43872;0.51714754
10:24:54:233;0.076614454;10.43872;0.51714754
10:24:54:233;0.076614454;10.43872;0.51714754
10:24:54:233;0.076614454;10.43872;0.51714754
10:24:54:233;0.076614454;10.43872;0.51714754
10:24:54:233;0.076614454;10.43872;0.51714754
10:24:54:233;0.076614454;10.43872;0.51714754
10:24:54:233;0.076614454;10.43872;0.51714754
10:24:54:233;0.076614454;10.43872;0.51714754
10:24:54:233;0.076614454;10.43872;0.51714754
10:24:54:233;0.076614454;10.43872;0.51714754
10:24:54:233;0.076614454;10.43872;0.51714754
10:24:54:233;0.076614454;10.43872;0.51714754
10:24:54:334;-0.4213795;10.496181;0.7278373
10:24:54:334;-0.4213795;10.496181;0.7278373
10:24:54:334;-0.4213795;10.496181;0.7278373
10:24:54:334;-0.4213795;10.496181;0.7278373
10:24:54:334;-0.4213795;10.496181;0.7278373
10:24:54:334;-0.4213795;10.496181;0.7278373
10:24:54:334;-0.4213795;10.496181;0.7278373
10:24:54:334;-0.4213795;10.496181;0.7278373
10:24:54:334;-0.4213795;10.496181;0.7278373
10:24:54:334;-0.4213795;10.496181;0.7278373
10:24:54:334;-0.4213795;10.496181;0.7278373
10:24:54:334;-0.4213795;10.496181;0.7278373
10:24:54:334;-0.4213795;10.496181;0.7278373
10:24:54:334;-0.4213795;10.496181;0.7278373
10:24:54:334;-0.4213795;10.496181;0.7278373
10:24:54:452;-0.38307226;10.898406;0.1340753
10:24:54:452;-0.38307226;10.898406;0.1340753
10:24:54:452;-0.38307226;10.898406;0.1340753
10:24:54:452;-0.38307226;10.898406;0.1340753
10:24:54:452;-0.38307226;10.898406;0.1340753
10:24:54:452;-0.38307226;10.898406;0.1340753
10:24:54:452;-0.38307226;10.898406;0.1340753
10:24:54:452;-0.38307226;10.898406;0.1340753
10:24:54:452;-0.38307226;10.898406;0.1340753
10:24:54:452;-0.38307226;10.898406;0.1340753
10:24:54:452;-0.38307226;10.898406;0.1340753
10:24:54:452;-0.38307226;10.898406;0.1340753
10:24:54:452;-0.38307226;10.898406;0.1340753
10:24:54:452;-0.38307226;10.898406;0.1340753
10:24:54:557;-0.095768064;10.6877165;0.5363012
10:24:54:557;-0.095768064;10.6877165;0.5363012
10:24:54:557;-0.095768064;10.6877165;0.5363012
10:24:54:557;-0.095768064;10.6877165;0.5363012
10:24:54:557;-0.095768064;10.6877165;0.5363012
10:24:54:557;-0.095768064;10.6877165;0.5363012
10:24:54:557;-0.095768064;10.6877165;0.5363012
10:24:54:557;-0.095768064;10.6877165;0.5363012
10:24:54:557;-0.095768064;10.6877165;0.5363012
10:24:54:557;-0.095768064;10.6877165;0.5363012
10:24:54:557;-0.095768064;10.6877165;0.5363012
10:24:54:557;-0.095768064;10.6877165;0.5363012
10:24:54:557;-0.095768064;10.6877165;0.5363012
10:24:54:557;-0.095768064;10.6877165;0.5363012
10:24:54:671;-0.15322891;9.691729;-0.63206923
10:24:54:671;-0.15322891;9.691729;-0.63206923
10:24:54:671;-0.15322891;9.691729;-0.63206923
10:24:54:671;-0.15322891;9.691729;-0.63206923
10:24:54:671;-0.15322891;9.691729;-0.63206923
10:24:54:671;-0.15322891;9.691729;-0.63206923
10:24:54:671;-0.15322891;9.691729;-0.63206923
10:24:54:671;-0.15322891;9.691729;-0.63206923
10:24:54:671;-0.15322891;9.691729;-0.63206923
10:24:54:671;-0.15322891;9.691729;-0.63206923
10:24:54:671;-0.15322891;9.691729;-0.63206923
10:24:54:671;-0.15322891;9.691729;-0.63206923
10:24:54:671;-0.15322891;9.691729;-0.63206923
10:24:54:671;-0.15322891;9.691729;-0.63206923
10:24:54:671;-0.15322891;9.691729;-0.63206923
10:24:54:671;-0.15322891;9.691729;-0.63206923
10:24:54:671;-0.15322891;9.691729;-0.63206923
10:24:54:803;-0.05746084;10.649409;0.34476504
10:24:54:803;-0.05746084;10.649409;0.34476504
10:24:54:803;-0.05746084;10.649409;0.34476504
10:24:54:803;-0.05746084;10.649409;0.34476504
10:24:54:803;-0.05746084;10.649409;0.34476504
10:24:54:803;-0.05746084;10.649409;0.34476504
10:24:54:803;-0.05746084;10.649409;0.34476504
10:24:54:803;-0.05746084;10.649409;0.34476504
10:24:54:803;-0.05746084;10.649409;0.34476504
10:24:54:803;-0.05746084;10.649409;0.34476504
10:24:54:803;-0.05746084;10.649409;0.34476504
10:24:54:803;-0.05746084;10.649409;0.34476504
10:24:54:803;-0.05746084;10.649409;0.34476504
10:24:54:803;-0.05746084;10.649409;0.34476504
10:24:54:908;0.11492168;10.342952;-0.7661445
10:24:54:908;0.11492168;10.342952;-0.7661445
10:24:54:908;0.11492168;10.342952;-0.7661445
10:24:54:908;0.11492168;10.342952;-0.7661445
10:24:54:908;0.11492168;10.342952;-0.7661445
10:24:54:908;0.11492168;10.342952;-0.7661445
10:24:54:908;0.11492168;10.342952;-0.7661445
10:24:54:908;0.11492168;10.342952;-0.7661445
10:24:54:908;0.11492168;10.342952;-0.7661445
10:24:54:908;0.11492168;10.342952;-0.7661445
10:24:54:908;0.11492168;10.342952;-0.7661445
10:24:54:908;0.11492168;10.342952;-0.7661445
10:24:54:908;0.11492168;10.342952;-0.7661445
10:24:55:014;-0.45968673;7.7572136;0.6703765
10:24:55:014;-0.45968673;7.7572136;0.6703765
10:24:55:014;-0.45968673;7.7572136;0.6703765
10:24:55:014;-0.45968673;7.7572136;0.6703765
10:24:55:014;-0.45968673;7.7572136;0.6703765
10:24:55:014;-0.45968673;7.7572136;0.6703765
10:24:55:014;-0.45968673;7.7572136;0.6703765
10:24:55:014;-0.45968673;7.7572136;0.6703765
10:24:55:014;-0.45968673;7.7572136;0.6703765
10:24:55:014;-0.45968673;7.7572136;0.6703765
10:24:55:014;-0.45968673;7.7572136;0.6703765
10:24:55:014;-0.45968673;7.7572136;0.6703765
10:24:55:014;-0.45968673;7.7572136;0.6703765
10:24:55:014;-0.45968673;7.7572136;0.6703765
10:24:55:014;-0.45968673;7.7572136;0.6703765
10:24:55:014;-0.45968673;7.7572136;0.6703765
10:24:55:014;-0.45968673;7.7572136;0.6703765
10:24:55:014;-0.45968673;7.7572136;0.6703765
10:24:55:150;-0.22984336;9.232041;0.17238252
10:24:55:150;-0.22984336;9.232041;0.17238252
10:24:55:150;-0.22984336;9.232041;0.17238252
10:24:55:150;-0.22984336;9.232041;0.17238252
10:24:55:150;-0.22984336;9.232041;0.17238252
10:24:55:150;-0.22984336;9.232041;0.17238252
10:24:55:150;-0.22984336;9.232041;0.17238252
10:24:55:150;-0.22984336;9.232041;0.17238252
10:24:55:150;-0.22984336;9.232041;0.17238252
10:24:55:150;-0.22984336;9.232041;0.17238252
10:24:55:150;-0.22984336;9.232041;0.17238252
10:24:55:150;-0.22984336;9.232041;0.17238252
10:24:55:150;-0.22984336;9.232041;0.17238252
10:24:55:150;-0.22984336;9.232041;0.17238252
10:24:55:260;0.038307227;9.921572;-0.45968673
10:24:55:260;0.038307227;9.921572;-0.45968673
10:24:55:260;0.038307227;9.921572;-0.45968673
10:24:55:260;0.038307227;9.921572;-0.45968673
10:24:55:260;0.038307227;9.921572;-0.45968673
10:24:55:260;0.038307227;9.921572;-0.45968673
10:24:55:260;0.038307227;9.921572;-0.45968673
10:24:55:260;0.038307227;9.921572;-0.45968673
10:24:55:260;0.038307227;9.921572;-0.45968673
10:24:55:260;0.038307227;9.921572;-0.45968673
10:24:55:260;0.038307227;9.921572;-0.45968673
10:24:55:260;0.038307227;9.921572;-0.45968673
10:24:55:260;0.038307227;9.921572;-0.45968673
10:24:55:260;0.038307227;9.921572;-0.45968673
10:24:55:369;0.095768064;10.649409;-0.24899697
10:24:55:369;0.095768064;10.649409;-0.24899697
10:24:55:369;0.095768064;10.649409;-0.24899697
10:24:55:369;0.095768064;10.649409;-0.24899697
10:24:55:369;0.095768064;10.649409;-0.24899697
10:24:55:369;0.095768064;10.649409;-0.24899697
10:24:55:369;0.095768064;10.649409;-0.24899697
10:24:55:369;0.095768064;10.649409;-0.24899697
10:24:55:369;0.095768064;10.649409;-0.24899697
10:24:55:369;0.095768064;10.649409;-0.24899697
10:24:55:369;0.095768064;10.649409;-0.24899697
10:24:55:369;0.095768064;10.649409;-0.24899697
10:24:55:369;0.095768064;10.649409;-0.24899697
10:24:55:369;0.095768064;10.649409;-0.24899697
10:24:55:369;0.095768064;10.649409;-0.24899697
10:24:55:488;-0.076614454;9.998186;0.05746084
10:24:55:488;-0.076614454;9.998186;0.05746084
10:24:55:488;-0.076614454;9.998186;0.05746084
10:24:55:488;-0.076614454;9.998186;0.05746084
10:24:55:488;-0.076614454;9.998186;0.05746084
10:24:55:488;-0.076614454;9.998186;0.05746084
10:24:55:488;-0.076614454;9.998186;0.05746084
10:24:55:488;-0.076614454;9.998186;0.05746084
10:24:55:488;-0.076614454;9.998186;0.05746084
10:24:55:488;-0.076614454;9.998186;0.05746084
10:24:55:488;-0.076614454;9.998186;0.05746084
10:24:55:488;-0.076614454;9.998186;0.05746084
10:24:55:488;-0.076614454;9.998186;0.05746084
10:24:55:488;-0.076614454;9.998186;0.05746084
10:24:55:488;-0.076614454;9.998186;0.05746084
10:24:55:607;0.038307227;10.055647;0.21068975
10:24:55:607;0.038307227;10.055647;0.21068975
10:24:55:607;0.038307227;10.055647;0.21068975
10:24:55:607;0.038307227;10.055647;0.21068975
10:24:55:607;0.038307227;10.055647;0.21068975
10:24:55:607;0.038307227;10.055647;0.21068975
10:24:55:607;0.038307227;10.055647;0.21068975
10:24:55:607;0.038307227;10.055647;0.21068975
10:24:55:607;0.038307227;10.055647;0.21068975
10:24:55:607;0.038307227;10.055647;0.21068975
10:24:55:607;0.038307227;10.055647;0.21068975
10:24:55:607;0.038307227;10.055647;0.21068975
10:24:55:607;0.038307227;10.055647;0.21068975
10:24:55:607;0.038307227;10.055647;0.21068975
10:24:55:711;-0.5746084;9.710882;0.47884035
10:24:55:711;-0.5746084;9.710882;0.47884035
10:24:55:711;-0.5746084;9.710882;0.47884035
10:24:55:711;-0.5746084;9.710882;0.47884035
10:24:55:711;-0.5746084;9.710882;0.47884035
10:24:55:711;-0.5746084;9.710882;0.47884035
10:24:55:711;-0.5746084;9.710882;0.47884035
10:24:55:711;-0.5746084;9.710882;0.47884035
10:24:55:711;-0.5746084;9.710882;0.47884035
10:24:55:711;-0.5746084;9.710882;0.47884035
10:24:55:711;-0.5746084;9.710882;0.47884035
10:24:55:711;-0.5746084;9.710882;0.47884035
10:24:55:711;-0.5746084;9.710882;0.47884035
10:24:55:711;-0.5746084;9.710882;0.47884035
10:24:55:823;-0.21068975;10.745177;-1.8579005
10:24:55:823;-0.21068975;10.745177;-1.8579005
10:24:55:823;-0.21068975;10.745177;-1.8579005
10:24:55:823;-0.21068975;10.745177;-1.8579005
10:24:55:823;-0.21068975;10.745177;-1.8579005
10:24:55:823;-0.21068975;10.745177;-1.8579005
10:24:55:823;-0.21068975;10.745177;-1.8579005
10:24:55:823;-0.21068975;10.745177;-1.8579005
10:24:55:823;-0.21068975;10.745177;-1.8579005
10:24:55:823;-0.21068975;10.745177;-1.8579005
10:24:55:823;-0.21068975;10.745177;-1.8579005
10:24:55:823;-0.21068975;10.745177;-1.8579005
10:24:55:823;-0.21068975;10.745177;-1.8579005
10:24:55:924;-0.4405331;9.3661175;-0.8619126
10:24:55:924;-0.4405331;9.3661175;-0.8619126
10:24:55:924;-0.4405331;9.3661175;-0.8619126
10:24:55:924;-0.4405331;9.3661175;-0.8619126
10:24:55:924;-0.4405331;9.3661175;-0.8619126
10:24:55:924;-0.4405331;9.3661175;-0.8619126
10:24:55:924;-0.4405331;9.3661175;-0.8619126
10:24:55:924;-0.4405331;9.3661175;-0.8619126
10:24:55:924;-0.4405331;9.3661175;-0.8619126
10:24:55:924;-0.4405331;9.3661175;-0.8619126
10:24:55:924;-0.4405331;9.3661175;-0.8619126
10:24:55:924;-0.4405331;9.3661175;-0.8619126
10:24:55:924;-0.4405331;9.3661175;-0.8619126
10:24:56:027;0.2873042;8.734048;2.432509
10:24:56:027;0.2873042;8.734048;2.432509
10:24:56:027;0.2873042;8.734048;2.432509
10:24:56:027;0.2873042;8.734048;2.432509
10:24:56:027;0.2873042;8.734048;2.432509
10:24:56:027;0.2873042;8.734048;2.432509
10:24:56:027;0.2873042;8.734048;2.432509
10:24:56:027;0.2873042;8.734048;2.432509
10:24:56:027;0.2873042;8.734048;2.432509
10:24:56:027;0.2873042;8.734048;2.432509
10:24:56:027;0.2873042;8.734048;2.432509
10:24:56:027;0.2873042;8.734048;2.432509
10:24:56:027;0.2873042;8.734048;2.432509
10:24:56:027;0.2873042;8.734048;2.432509
10:24:56:137;-0.5363012;9.576807;0.6703765
10:24:56:137;-0.5363012;9.576807;0.6703765
10:24:56:137;-0.5363012;9.576807;0.6703765
10:24:56:137;-0.5363012;9.576807;0.6703765
10:24:56:137;-0.5363012;9.576807;0.6703765
10:24:56:137;-0.5363012;9.576807;0.6703765
10:24:56:137;-0.5363012;9.576807;0.6703765
10:24:56:137;-0.5363012;9.576807;0.6703765
10:24:56:137;-0.5363012;9.576807;0.6703765
10:24:56:137;-0.5363012;9.576807;0.6703765
10:24:56:137;-0.5363012;9.576807;0.6703765
10:24:56:137;-0.5363012;9.576807;0.6703765
10:24:56:137;-0.5363012;9.576807;0.6703765
10:24:56:137;-0.5363012;9.576807;0.6703765
10:24:56:244;-0.095768064;9.078813;0.11492168
10:24:56:244;-0.095768064;9.078813;0.11492168
10:24:56:244;-0.095768064;9.078813;0.11492168
10:24:56:244;-0.095768064;9.078813;0.11492168
10:24:56:244;-0.095768064;9.078813;0.11492168
10:24:56:244;-0.095768064;9.078813;0.11492168
10:24:56:244;-0.095768064;9.078813;0.11492168
10:24:56:244;-0.095768064;9.078813;0.11492168
10:24:56:244;-0.095768064;9.078813;0.11492168
10:24:56:244;-0.095768064;9.078813;0.11492168
10:24:56:244;-0.095768064;9.078813;0.11492168
10:24:56:244;-0.095768064;9.078813;0.11492168
10:24:56:244;-0.095768064;9.078813;0.11492168
10:24:56:244;-0.095768064;9.078813;0.11492168
10:24:56:244;-0.095768064;9.078813;0.11492168
10:24:56:244;-0.095768064;9.078813;0.11492168
10:24:56:244;-0.095768064;9.078813;0.11492168
10:24:56:382;-0.7469909;9.749189;0.59376204
10:24:56:382;-0.7469909;9.749189;0.59376204
10:24:56:382;-0.7469909;9.749189;0.59376204
10:24:56:382;-0.7469909;9.749189;0.59376204
10:24:56:382;-0.7469909;9.749189;0.59376204
10:24:56:382;-0.7469909;9.749189;0.59376204
10:24:56:382;-0.7469909;9.749189;0.59376204
10:24:56:382;-0.7469909;9.749189;0.59376204
10:24:56:382;-0.7469909;9.749189;0.59376204
10:24:56:382;-0.7469909;9.749189;0.59376204
10:24:56:382;-0.7469909;9.749189;0.59376204
10:24:56:382;-0.7469909;9.749189;0.59376204
10:24:56:382;-0.7469909;9.749189;0.59376204
10:24:56:382;-0.7469909;9.749189;0.59376204
10:24:56:382;-0.7469909;9.749189;0.59376204
10:24:56:382;-0.7469909;9.749189;0.59376204
10:24:56:382;-0.7469909;9.749189;0.59376204
10:24:56:514;-0.90021986;10.304645;0.6895301
10:24:56:514;-0.90021986;10.304645;0.6895301
10:24:56:514;-0.90021986;10.304645;0.6895301
10:24:56:514;-0.90021986;10.304645;0.6895301
10:24:56:514;-0.90021986;10.304645;0.6895301
10:24:56:514;-0.90021986;10.304645;0.6895301
10:24:56:514;-0.90021986;10.304645;0.6895301
10:24:56:514;-0.90021986;10.304645;0.6895301
10:24:56:514;-0.90021986;10.304645;0.6895301
10:24:56:514;-0.90021986;10.304645;0.6895301
10:24:56:514;-0.90021986;10.304645;0.6895301
10:24:56:514;-0.90021986;10.304645;0.6895301
10:24:56:514;-0.90021986;10.304645;0.6895301
10:24:56:514;-0.90021986;10.304645;0.6895301
10:24:56:514;-0.90021986;10.304645;0.6895301
10:24:56:632;0.05746084;10.28549;0.24899697
10:24:56:632;0.05746084;10.28549;0.24899697
10:24:56:632;0.05746084;10.28549;0.24899697
10:24:56:632;0.05746084;10.28549;0.24899697
10:24:56:632;0.05746084;10.28549;0.24899697
10:24:56:632;0.05746084;10.28549;0.24899697
10:24:56:632;0.05746084;10.28549;0.24899697
10:24:56:632;0.05746084;10.28549;0.24899697
10:24:56:632;0.05746084;10.28549;0.24899697
10:24:56:632;0.05746084;10.28549;0.24899697
10:24:56:632;0.05746084;10.28549;0.24899697
10:24:56:632;0.05746084;10.28549;0.24899697
10:24:56:632;0.05746084;10.28549;0.24899697
10:24:56:632;0.05746084;10.28549;0.24899697
10:24:56:736;-0.095768064;10.036493;0.19153613
10:24:56:736;-0.095768064;10.036493;0.19153613
10:24:56:736;-0.095768064;10.036493;0.19153613
10:24:56:736;-0.095768064;10.036493;0.19153613
10:24:56:736;-0.095768064;10.036493;0.19153613
10:24:56:736;-0.095768064;10.036493;0.19153613
10:24:56:736;-0.095768064;10.036493;0.19153613
10:24:56:736;-0.095768064;10.036493;0.19153613
10:24:56:736;-0.095768064;10.036493;0.19153613
10:24:56:736;-0.095768064;10.036493;0.19153613
10:24:56:736;-0.095768064;10.036493;0.19153613
10:24:56:736;-0.095768064;10.036493;0.19153613
10:24:56:736;-0.095768064;10.036493;0.19153613
10:24:56:736;-0.095768064;10.036493;0.19153613
10:24:56:736;-0.095768064;10.036493;0.19153613
10:24:56:736;-0.095768064;10.036493;0.19153613
10:24:56:865;-0.15322891;9.595961;0.7469909
10:24:56:865;-0.15322891;9.595961;0.7469909
10:24:56:865;-0.15322891;9.595961;0.7469909
10:24:56:865;-0.15322891;9.595961;0.7469909
10:24:56:865;-0.15322891;9.595961;0.7469909
10:24:56:865;-0.15322891;9.595961;0.7469909
10:24:56:865;-0.15322891;9.595961;0.7469909
10:24:56:865;-0.15322891;9.595961;0.7469909
10:24:56:865;-0.15322891;9.595961;0.7469909
10:24:56:865;-0.15322891;9.595961;0.7469909
10:24:56:865;-0.15322891;9.595961;0.7469909
10:24:56:865;-0.15322891;9.595961;0.7469909
10:24:56:865;-0.15322891;9.595961;0.7469909
10:24:56:865;-0.15322891;9.595961;0.7469909
10:24:56:865;-0.15322891;9.595961;0.7469909
10:24:56:978;-0.076614454;11.204864;-0.2681506
10:24:56:978;-0.076614454;11.204864;-0.2681506
10:24:56:978;-0.076614454;11.204864;-0.2681506
10:24:56:978;-0.076614454;11.204864;-0.2681506
10:24:56:978;-0.076614454;11.204864;-0.2681506
10:24:56:978;-0.076614454;11.204864;-0.2681506
10:24:56:978;-0.076614454;11.204864;-0.2681506
10:24:56:978;-0.076614454;11.204864;-0.2681506
10:24:56:978;-0.076614454;11.204864;-0.2681506
10:24:56:978;-0.076614454;11.204864;-0.2681506
10:24:56:978;-0.076614454;11.204864;-0.2681506
10:24:56:978;-0.076614454;11.204864;-0.2681506
10:24:56:978;-0.076614454;11.204864;-0.2681506
10:24:57:081;-0.095768064;10.745177;-0.4405331
10:24:57:081;-0.095768064;10.745177;-0.4405331
10:24:57:081;-0.095768064;10.745177;-0.4405331
10:24:57:081;-0.095768064;10.745177;-0.4405331
10:24:57:081;-0.095768064;10.745177;-0.4405331
10:24:57:081;-0.095768064;10.745177;-0.4405331
10:24:57:081;-0.095768064;10.745177;-0.4405331
10:24:57:081;-0.095768064;10.745177;-0.4405331
10:24:57:081;-0.095768064;10.745177;-0.4405331
10:24:57:081;-0.095768064;10.745177;-0.4405331
10:24:57:081;-0.095768064;10.745177;-0.4405331
10:24:57:081;-0.095768064;10.745177;-0.4405331
10:24:57:081;-0.095768064;10.745177;-0.4405331
10:24:57:081;-0.095768064;10.745177;-0.4405331
10:24:57:081;-0.095768064;10.745177;-0.4405331
10:24:57:197;0.24899697;9.059659;-0.4213795
10:24:57:197;0.24899697;9.059659;-0.4213795
10:24:57:197;0.24899697;9.059659;-0.4213795
10:24:57:197;0.24899697;9.059659;-0.4213795
10:24:57:197;0.24899697;9.059659;-0.4213795
10:24:57:197;0.24899697;9.059659;-0.4213795
10:24:57:197;0.24899697;9.059659;-0.4213795
10:24:57:197;0.24899697;9.059659;-0.4213795
10:24:57:197;0.24899697;9.059659;-0.4213795
10:24:57:197;0.24899697;9.059659;-0.4213795
10:24:57:197;0.24899697;9.059659;-0.4213795
10:24:57:197;0.24899697;9.059659;-0.4213795
10:24:57:197;0.24899697;9.059659;-0.4213795
10:24:57:197;0.24899697;9.059659;-0.4213795
10:24:57:197;0.24899697;9.059659;-0.4213795
10:24:57:197;0.24899697;9.059659;-0.4213795
10:24:57:197;0.24899697;9.059659;-0.4213795
10:24:57:197;0.24899697;9.059659;-0.4213795
10:24:57:197;0.24899697;9.059659;-0.4213795
10:24:57:197;0.24899697;9.059659;-0.4213795
10:24:57:197;0.24899697;9.059659;-0.4213795
10:24:57:366;-0.32561144;9.883265;0.36391866
10:24:57:366;-0.32561144;9.883265;0.36391866
10:24:57:366;-0.32561144;9.883265;0.36391866
10:24:57:366;-0.32561144;9.883265;0.36391866
10:24:57:366;-0.32561144;9.883265;0.36391866
10:24:57:366;-0.32561144;9.883265;0.36391866
10:24:57:366;-0.32561144;9.883265;0.36391866
10:24:57:366;-0.32561144;9.883265;0.36391866
10:24:57:366;-0.32561144;9.883265;0.36391866
10:24:57:366;-0.32561144;9.883265;0.36391866
10:24:57:366;-0.32561144;9.883265;0.36391866
10:24:57:366;-0.32561144;9.883265;0.36391866
10:24:57:366;-0.32561144;9.883265;0.36391866
10:24:57:366;-0.32561144;9.883265;0.36391866
10:24:57:470;-0.4405331;9.040505;0.8619126
10:24:57:470;-0.4405331;9.040505;0.8619126
10:24:57:470;-0.4405331;9.040505;0.8619126
10:24:57:470;-0.4405331;9.040505;0.8619126
10:24:57:470;-0.4405331;9.040505;0.8619126
10:24:57:470;-0.4405331;9.040505;0.8619126
10:24:57:470;-0.4405331;9.040505;0.8619126
10:24:57:470;-0.4405331;9.040505;0.8619126
10:24:57:470;-0.4405331;9.040505;0.8619126
10:24:57:470;-0.4405331;9.040505;0.8619126
10:24:57:470;-0.4405331;9.040505;0.8619126
10:24:57:470;-0.4405331;9.040505;0.8619126
10:24:57:470;-0.4405331;9.040505;0.8619126
10:24:57:470;-0.4405331;9.040505;0.8619126
10:24:57:470;-0.4405331;9.040505;0.8619126
10:24:57:470;-0.4405331;9.040505;0.8619126
10:24:57:594;-0.5746084;9.308656;0.45968673
10:24:57:594;-0.5746084;9.308656;0.45968673
10:24:57:594;-0.5746084;9.308656;0.45968673
10:24:57:594;-0.5746084;9.308656;0.45968673
10:24:57:594;-0.5746084;9.308656;0.45968673
10:24:57:594;-0.5746084;9.308656;0.45968673
10:24:57:594;-0.5746084;9.308656;0.45968673
10:24:57:594;-0.5746084;9.308656;0.45968673
10:24:57:594;-0.5746084;9.308656;0.45968673
10:24:57:594;-0.5746084;9.308656;0.45968673
10:24:57:594;-0.5746084;9.308656;0.45968673
10:24:57:594;-0.5746084;9.308656;0.45968673
10:24:57:594;-0.5746084;9.308656;0.45968673
10:24:57:594;-0.5746084;9.308656;0.45968673
10:24:57:594;-0.5746084;9.308656;0.45968673
10:24:57:713;0.4213795;9.940725;-0.4405331
10:24:57:713;0.4213795;9.940725;-0.4405331
10:24:57:713;0.4213795;9.940725;-0.4405331
10:24:57:713;0.4213795;9.940725;-0.4405331
10:24:57:713;0.4213795;9.940725;-0.4405331
10:24:57:713;0.4213795;9.940725;-0.4405331
10:24:57:713;0.4213795;9.940725;-0.4405331
10:24:57:713;0.4213795;9.940725;-0.4405331
10:24:57:713;0.4213795;9.940725;-0.4405331
10:24:57:713;0.4213795;9.940725;-0.4405331
10:24:57:713;0.4213795;9.940725;-0.4405331
10:24:57:713;0.4213795;9.940725;-0.4405331
10:24:57:713;0.4213795;9.940725;-0.4405331
10:24:57:713;0.4213795;9.940725;-0.4405331
10:24:57:713;0.4213795;9.940725;-0.4405331
10:24:57:830;-0.11492168;10.093954;-0.05746084
10:24:57:830;-0.11492168;10.093954;-0.05746084
10:24:57:830;-0.11492168;10.093954;-0.05746084
10:24:57:830;-0.11492168;10.093954;-0.05746084
10:24:57:830;-0.11492168;10.093954;-0.05746084
10:24:57:830;-0.11492168;10.093954;-0.05746084
10:24:57:830;-0.11492168;10.093954;-0.05746084
10:24:57:830;-0.11492168;10.093954;-0.05746084
10:24:57:830;-0.11492168;10.093954;-0.05746084
10:24:57:830;-0.11492168;10.093954;-0.05746084
10:24:57:830;-0.11492168;10.093954;-0.05746084
10:24:57:830;-0.11492168;10.093954;-0.05746084
10:24:57:830;-0.11492168;10.093954;-0.05746084
10:24:57:830;-0.11492168;10.093954;-0.05746084
10:24:57:942;-0.2681506;9.998186;0.22984336
10:24:57:942;-0.2681506;9.998186;0.22984336
10:24:57:942;-0.2681506;9.998186;0.22984336
10:24:57:942;-0.2681506;9.998186;0.22984336
10:24:57:942;-0.2681506;9.998186;0.22984336
10:24:57:942;-0.2681506;9.998186;0.22984336
10:24:57:942;-0.2681506;9.998186;0.22984336
10:24:57:942;-0.2681506;9.998186;0.22984336
10:24:57:942;-0.2681506;9.998186;0.22984336
10:24:57:942;-0.2681506;9.998186;0.22984336
10:24:57:942;-0.2681506;9.998186;0.22984336
10:24:57:942;-0.2681506;9.998186;0.22984336
10:24:57:942;-0.2681506;9.998186;0.22984336
10:24:57:942;-0.2681506;9.998186;0.22984336
10:24:57:942;-0.2681506;9.998186;0.22984336
10:24:58:061;-0.2681506;10.5919485;-0.47884035
10:24:58:061;-0.2681506;10.5919485;-0.47884035
10:24:58:061;-0.2681506;10.5919485;-0.47884035
10:24:58:061;-0.2681506;10.5919485;-0.47884035
10:24:58:061;-0.2681506;10.5919485;-0.47884035
10:24:58:061;-0.2681506;10.5919485;-0.47884035
10:24:58:061;-0.2681506;10.5919485;-0.47884035
10:24:58:061;-0.2681506;10.5919485;-0.47884035
10:24:58:061;-0.2681506;10.5919485;-0.47884035
10:24:58:061;-0.2681506;10.5919485;-0.47884035
10:24:58:061;-0.2681506;10.5919485;-0.47884035
10:24:58:061;-0.2681506;10.5919485;-0.47884035
10:24:58:061;-0.2681506;10.5919485;-0.47884035
10:24:58:061;-0.2681506;10.5919485;-0.47884035
10:24:58:168;-0.40222588;9.404425;0.5363012
10:24:58:168;-0.40222588;9.404425;0.5363012
10:24:58:168;-0.40222588;9.404425;0.5363012
10:24:58:168;-0.40222588;9.404425;0.5363012
10:24:58:168;-0.40222588;9.404425;0.5363012
10:24:58:168;-0.40222588;9.404425;0.5363012
10:24:58:168;-0.40222588;9.404425;0.5363012
10:24:58:168;-0.40222588;9.404425;0.5363012
10:24:58:168;-0.40222588;9.404425;0.5363012
10:24:58:168;-0.40222588;9.404425;0.5363012
10:24:58:168;-0.40222588;9.404425;0.5363012
10:24:58:168;-0.40222588;9.404425;0.5363012
10:24:58:168;-0.40222588;9.404425;0.5363012
10:24:58:168;-0.40222588;9.404425;0.5363012
10:24:58:279;-0.49799395;10.208876;-0.095768064
10:24:58:279;-0.49799395;10.208876;-0.095768064
10:24:58:279;-0.49799395;10.208876;-0.095768064
10:24:58:279;-0.49799395;10.208876;-0.095768064
10:24:58:279;-0.49799395;10.208876;-0.095768064
10:24:58:279;-0.49799395;10.208876;-0.095768064
10:24:58:279;-0.49799395;10.208876;-0.095768064
10:24:58:279;-0.49799395;10.208876;-0.095768064
10:24:58:279;-0.49799395;10.208876;-0.095768064
10:24:58:279;-0.49799395;10.208876;-0.095768064
10:24:58:279;-0.49799395;10.208876;-0.095768064
10:24:58:279;-0.49799395;10.208876;-0.095768064
10:24:58:279;-0.49799395;10.208876;-0.095768064
10:24:58:279;-0.49799395;10.208876;-0.095768064
10:24:58:279;-0.49799395;10.208876;-0.095768064
10:24:58:397;-0.90021986;10.208876;0.019153614
10:24:58:397;-0.90021986;10.208876;0.019153614
10:24:58:397;-0.90021986;10.208876;0.019153614
10:24:58:397;-0.90021986;10.208876;0.019153614
10:24:58:397;-0.90021986;10.208876;0.019153614
10:24:58:397;-0.90021986;10.208876;0.019153614
10:24:58:397;-0.90021986;10.208876;0.019153614
10:24:58:397;-0.90021986;10.208876;0.019153614
10:24:58:397;-0.90021986;10.208876;0.019153614
10:24:58:397;-0.90021986;10.208876;0.019153614
10:24:58:397;-0.90021986;10.208876;0.019153614
10:24:58:397;-0.90021986;10.208876;0.019153614
10:24:58:397;-0.90021986;10.208876;0.019153614
10:24:58:397;-0.90021986;10.208876;0.019153614
10:24:58:397;-0.90021986;10.208876;0.019153614
10:24:58:515;-0.78529817;9.710882;0.842759
10:24:58:515;-0.78529817;9.710882;0.842759
10:24:58:515;-0.78529817;9.710882;0.842759
10:24:58:515;-0.78529817;9.710882;0.842759
10:24:58:515;-0.78529817;9.710882;0.842759
10:24:58:515;-0.78529817;9.710882;0.842759
10:24:58:515;-0.78529817;9.710882;0.842759
10:24:58:515;-0.78529817;9.710882;0.842759
10:24:58:515;-0.78529817;9.710882;0.842759
10:24:58:515;-0.78529817;9.710882;0.842759
10:24:58:515;-0.78529817;9.710882;0.842759
10:24:58:515;-0.78529817;9.710882;0.842759
10:24:58:515;-0.78529817;9.710882;0.842759
10:24:58:515;-0.78529817;9.710882;0.842759
10:24:58:515;-0.78529817;9.710882;0.842759
10:24:58:515;-0.78529817;9.710882;0.842759
10:24:58:634;-0.5554548;10.01734;-0.47884035
10:24:58:634;-0.5554548;10.01734;-0.47884035
10:24:58:634;-0.5554548;10.01734;-0.47884035
10:24:58:634;-0.5554548;10.01734;-0.47884035
10:24:58:634;-0.5554548;10.01734;-0.47884035
10:24:58:634;-0.5554548;10.01734;-0.47884035
10:24:58:634;-0.5554548;10.01734;-0.47884035
10:24:58:634;-0.5554548;10.01734;-0.47884035
10:24:58:634;-0.5554548;10.01734;-0.47884035
10:24:58:634;-0.5554548;10.01734;-0.47884035
10:24:58:634;-0.5554548;10.01734;-0.47884035
10:24:58:634;-0.5554548;10.01734;-0.47884035
10:24:58:634;-0.5554548;10.01734;-0.47884035
10:24:58:634;-0.5554548;10.01734;-0.47884035
10:24:58:634;-0.5554548;10.01734;-0.47884035
10:24:58:634;-0.5554548;10.01734;-0.47884035
10:24:58:634;-0.5554548;10.01734;-0.47884035
10:24:58:772;-0.61291564;9.80665;0.5746084
10:24:58:772;-0.61291564;9.80665;0.5746084
10:24:58:772;-0.61291564;9.80665;0.5746084
10:24:58:772;-0.61291564;9.80665;0.5746084
10:24:58:772;-0.61291564;9.80665;0.5746084
10:24:58:772;-0.61291564;9.80665;0.5746084
10:24:58:772;-0.61291564;9.80665;0.5746084
10:24:58:772;-0.61291564;9.80665;0.5746084
10:24:58:772;-0.61291564;9.80665;0.5746084
10:24:58:772;-0.61291564;9.80665;0.5746084
10:24:58:772;-0.61291564;9.80665;0.5746084
10:24:58:772;-0.61291564;9.80665;0.5746084
10:24:58:772;-0.61291564;9.80665;0.5746084
10:24:58:772;-0.61291564;9.80665;0.5746084
10:24:58:879;-0.32561144;9.442732;-0.038307227
10:24:58:879;-0.32561144;9.442732;-0.038307227
10:24:58:879;-0.32561144;9.442732;-0.038307227
10:24:58:879;-0.32561144;9.442732;-0.038307227
10:24:58:879;-0.32561144;9.442732;-0.038307227
10:24:58:879;-0.32561144;9.442732;-0.038307227
10:24:58:879;-0.32561144;9.442732;-0.038307227
10:24:58:879;-0.32561144;9.442732;-0.038307227
10:24:58:879;-0.32561144;9.442732;-0.038307227
10:24:58:879;-0.32561144;9.442732;-0.038307227
10:24:58:879;-0.32561144;9.442732;-0.038307227
10:24:58:879;-0.32561144;9.442732;-0.038307227
10:24:58:879;-0.32561144;9.442732;-0.038307227
10:24:58:879;-0.32561144;9.442732;-0.038307227
10:24:58:879;-0.32561144;9.442732;-0.038307227
10:24:58:997;-0.1340753;10.362105;-0.59376204
10:24:58:997;-0.1340753;10.362105;-0.59376204
10:24:58:997;-0.1340753;10.362105;-0.59376204
10:24:58:997;-0.1340753;10.362105;-0.59376204
10:24:58:997;-0.1340753;10.362105;-0.59376204
10:24:58:997;-0.1340753;10.362105;-0.59376204
10:24:58:997;-0.1340753;10.362105;-0.59376204
10:24:58:997;-0.1340753;10.362105;-0.59376204
10:24:58:997;-0.1340753;10.362105;-0.59376204
10:24:58:997;-0.1340753;10.362105;-0.59376204
10:24:58:997;-0.1340753;10.362105;-0.59376204
10:24:58:997;-0.1340753;10.362105;-0.59376204
10:24:58:997;-0.1340753;10.362105;-0.59376204
10:24:58:997;-0.1340753;10.362105;-0.59376204
10:24:58:997;-0.1340753;10.362105;-0.59376204
10:24:58:997;-0.1340753;10.362105;-0.59376204
10:24:58:997;-0.1340753;10.362105;-0.59376204
10:24:58:997;-0.1340753;10.362105;-0.59376204
10:24:58:997;-0.1340753;10.362105;-0.59376204
10:24:58:997;-0.1340753;10.362105;-0.59376204
10:24:58:997;-0.1340753;10.362105;-0.59376204
10:24:58:997;-0.1340753;10.362105;-0.59376204
10:24:58:997;-0.1340753;10.362105;-0.59376204
10:24:58:997;-0.1340753;10.362105;-0.59376204
10:24:59:187;-0.5554548;9.883265;-0.19153613
10:24:59:187;-0.5554548;9.883265;-0.19153613
10:24:59:187;-0.5554548;9.883265;-0.19153613
10:24:59:187;-0.5554548;9.883265;-0.19153613
10:24:59:187;-0.5554548;9.883265;-0.19153613
10:24:59:187;-0.5554548;9.883265;-0.19153613
10:24:59:187;-0.5554548;9.883265;-0.19153613
10:24:59:187;-0.5554548;9.883265;-0.19153613
10:24:59:187;-0.5554548;9.883265;-0.19153613
10:24:59:187;-0.5554548;9.883265;-0.19153613
10:24:59:187;-0.5554548;9.883265;-0.19153613
10:24:59:187;-0.5554548;9.883265;-0.19153613
10:24:59:187;-0.5554548;9.883265;-0.19153613
10:24:59:187;-0.5554548;9.883265;-0.19153613
10:24:59:294;-0.17238252;9.481039;-0.2681506
10:24:59:294;-0.17238252;9.481039;-0.2681506
10:24:59:294;-0.17238252;9.481039;-0.2681506
10:24:59:294;-0.17238252;9.481039;-0.2681506
10:24:59:294;-0.17238252;9.481039;-0.2681506
10:24:59:294;-0.17238252;9.481039;-0.2681506
10:24:59:294;-0.17238252;9.481039;-0.2681506
10:24:59:294;-0.17238252;9.481039;-0.2681506
10:24:59:294;-0.17238252;9.481039;-0.2681506
10:24:59:294;-0.17238252;9.481039;-0.2681506
10:24:59:294;-0.17238252;9.481039;-0.2681506
10:24:59:294;-0.17238252;9.481039;-0.2681506
10:24:59:294;-0.17238252;9.481039;-0.2681506
10:24:59:294;-0.17238252;9.481039;-0.2681506
10:24:59:294;-0.17238252;9.481039;-0.2681506
10:24:59:294;-0.17238252;9.481039;-0.2681506
10:24:59:421;-1.5131354;10.572795;0.47884035
10:24:59:421;-1.5131354;10.572795;0.47884035
10:24:59:421;-1.5131354;10.572795;0.47884035
10:24:59:421;-1.5131354;10.572795;0.47884035
10:24:59:421;-1.5131354;10.572795;0.47884035
10:24:59:421;-1.5131354;10.572795;0.47884035
10:24:59:421;-1.5131354;10.572795;0.47884035
10:24:59:421;-1.5131354;10.572795;0.47884035
10:24:59:421;-1.5131354;10.572795;0.47884035
10:24:59:421;-1.5131354;10.572795;0.47884035
10:24:59:421;-1.5131354;10.572795;0.47884035
10:24:59:421;-1.5131354;10.572795;0.47884035
10:24:59:421;-1.5131354;10.572795;0.47884035
10:24:59:421;-1.5131354;10.572795;0.47884035
10:24:59:531;-0.78529817;9.672575;-0.2873042
10:24:59:531;-0.78529817;9.672575;-0.2873042
10:24:59:531;-0.78529817;9.672575;-0.2873042
10:24:59:531;-0.78529817;9.672575;-0.2873042
10:24:59:531;-0.78529817;9.672575;-0.2873042
10:24:59:531;-0.78529817;9.672575;-0.2873042
10:24:59:531;-0.78529817;9.672575;-0.2873042
10:24:59:531;-0.78529817;9.672575;-0.2873042
10:24:59:531;-0.78529817;9.672575;-0.2873042
10:24:59:531;-0.78529817;9.672575;-0.2873042
10:24:59:531;-0.78529817;9.672575;-0.2873042
10:24:59:531;-0.78529817;9.672575;-0.2873042
10:24:59:531;-0.78529817;9.672575;-0.2873042
10:24:59:531;-0.78529817;9.672575;-0.2873042
10:24:59:531;-0.78529817;9.672575;-0.2873042
10:24:59:531;-0.78529817;9.672575;-0.2873042
10:24:59:531;-0.78529817;9.672575;-0.2873042
10:24:59:531;-0.78529817;9.672575;-0.2873042
10:24:59:531;-0.78529817;9.672575;-0.2873042
10:24:59:531;-0.78529817;9.672575;-0.2873042
10:24:59:685;-0.15322891;10.323798;-0.40222588
10:24:59:685;-0.15322891;10.323798;-0.40222588
10:24:59:685;-0.15322891;10.323798;-0.40222588
10:24:59:685;-0.15322891;10.323798;-0.40222588
10:24:59:685;-0.15322891;10.323798;-0.40222588
10:24:59:685;-0.15322891;10.323798;-0.40222588
10:24:59:685;-0.15322891;10.323798;-0.40222588
10:24:59:685;-0.15322891;10.323798;-0.40222588
10:24:59:685;-0.15322891;10.323798;-0.40222588
10:24:59:685;-0.15322891;10.323798;-0.40222588
10:24:59:685;-0.15322891;10.323798;-0.40222588
10:24:59:685;-0.15322891;10.323798;-0.40222588
10:24:59:685;-0.15322891;10.323798;-0.40222588
10:24:59:786;-0.4405331;11.070788;-0.19153613
10:24:59:786;-0.4405331;11.070788;-0.19153613
10:24:59:786;-0.4405331;11.070788;-0.19153613
10:24:59:786;-0.4405331;11.070788;-0.19153613
10:24:59:786;-0.4405331;11.070788;-0.19153613
10:24:59:786;-0.4405331;11.070788;-0.19153613
10:24:59:786;-0.4405331;11.070788;-0.19153613
10:24:59:786;-0.4405331;11.070788;-0.19153613
10:24:59:786;-0.4405331;11.070788;-0.19153613
10:24:59:786;-0.4405331;11.070788;-0.19153613
10:24:59:786;-0.4405331;11.070788;-0.19153613
10:24:59:786;-0.4405331;11.070788;-0.19153613
10:24:59:786;-0.4405331;11.070788;-0.19153613
10:24:59:786;-0.4405331;11.070788;-0.19153613
10:24:59:786;-0.4405331;11.070788;-0.19153613
10:24:59:906;0.05746084;10.113108;-0.38307226
10:24:59:906;0.05746084;10.113108;-0.38307226
10:24:59:906;0.05746084;10.113108;-0.38307226
10:24:59:906;0.05746084;10.113108;-0.38307226
10:24:59:906;0.05746084;10.113108;-0.38307226
10:24:59:906;0.05746084;10.113108;-0.38307226
10:24:59:906;0.05746084;10.113108;-0.38307226
10:24:59:906;0.05746084;10.113108;-0.38307226
10:24:59:906;0.05746084;10.113108;-0.38307226
10:24:59:906;0.05746084;10.113108;-0.38307226
10:24:59:906;0.05746084;10.113108;-0.38307226
10:24:59:906;0.05746084;10.113108;-0.38307226
10:24:59:906;0.05746084;10.113108;-0.38307226
10:24:59:906;0.05746084;10.113108;-0.38307226
10:24:59:906;0.05746084;10.113108;-0.38307226
10:24:59:906;0.05746084;10.113108;-0.38307226
10:24:59:906;0.05746084;10.113108;-0.38307226
10:25:00:032;-0.19153613;11.358093;0.17238252
10:25:00:032;-0.19153613;11.358093;0.17238252
10:25:00:032;-0.19153613;11.358093;0.17238252
10:25:00:032;-0.19153613;11.358093;0.17238252
10:25:00:032;-0.19153613;11.358093;0.17238252
10:25:00:032;-0.19153613;11.358093;0.17238252
10:25:00:032;-0.19153613;11.358093;0.17238252
10:25:00:032;-0.19153613;11.358093;0.17238252
10:25:00:032;-0.19153613;11.358093;0.17238252
10:25:00:032;-0.19153613;11.358093;0.17238252
10:25:00:032;-0.19153613;11.358093;0.17238252
10:25:00:032;-0.19153613;11.358093;0.17238252
10:25:00:032;-0.19153613;11.358093;0.17238252
10:25:00:032;-0.19153613;11.358093;0.17238252
10:25:00:146;0.1340753;9.768343;0.93852705
10:25:00:146;0.1340753;9.768343;0.93852705
10:25:00:146;0.1340753;9.768343;0.93852705
10:25:00:146;0.1340753;9.768343;0.93852705
10:25:00:146;0.1340753;9.768343;0.93852705
10:25:00:146;0.1340753;9.768343;0.93852705
10:25:00:146;0.1340753;9.768343;0.93852705
10:25:00:146;0.1340753;9.768343;0.93852705
10:25:00:146;0.1340753;9.768343;0.93852705
10:25:00:146;0.1340753;9.768343;0.93852705
10:25:00:146;0.1340753;9.768343;0.93852705
10:25:00:146;0.1340753;9.768343;0.93852705
10:25:00:146;0.1340753;9.768343;0.93852705
10:25:00:146;0.1340753;9.768343;0.93852705
10:25:00:146;0.1340753;9.768343;0.93852705
10:25:00:264;0.095768064;9.883265;-0.49799395
10:25:00:264;0.095768064;9.883265;-0.49799395
10:25:00:264;0.095768064;9.883265;-0.49799395
10:25:00:264;0.095768064;9.883265;-0.49799395
10:25:00:264;0.095768064;9.883265;-0.49799395
10:25:00:264;0.095768064;9.883265;-0.49799395
10:25:00:264;0.095768064;9.883265;-0.49799395
10:25:00:264;0.095768064;9.883265;-0.49799395
10:25:00:264;0.095768064;9.883265;-0.49799395
10:25:00:264;0.095768064;9.883265;-0.49799395
10:25:00:264;0.095768064;9.883265;-0.49799395
10:25:00:264;0.095768064;9.883265;-0.49799395
10:25:00:264;0.095768064;9.883265;-0.49799395
10:25:00:264;0.095768064;9.883265;-0.49799395
10:25:00:264;0.095768064;9.883265;-0.49799395
10:25:00:381;0.038307227;8.925584;-0.2873042
10:25:00:381;0.038307227;8.925584;-0.2873042
10:25:00:381;0.038307227;8.925584;-0.2873042
10:25:00:381;0.038307227;8.925584;-0.2873042
10:25:00:381;0.038307227;8.925584;-0.2873042
10:25:00:381;0.038307227;8.925584;-0.2873042
10:25:00:381;0.038307227;8.925584;-0.2873042
10:25:00:381;0.038307227;8.925584;-0.2873042
10:25:00:381;0.038307227;8.925584;-0.2873042
10:25:00:381;0.038307227;8.925584;-0.2873042
10:25:00:381;0.038307227;8.925584;-0.2873042
10:25:00:381;0.038307227;8.925584;-0.2873042
10:25:00:381;0.038307227;8.925584;-0.2873042
10:25:00:381;0.038307227;8.925584;-0.2873042
10:25:00:381;0.038307227;8.925584;-0.2873042
10:25:00:499;-0.4213795;9.653421;0.4213795
10:25:00:499;-0.4213795;9.653421;0.4213795
10:25:00:499;-0.4213795;9.653421;0.4213795
10:25:00:499;-0.4213795;9.653421;0.4213795
10:25:00:499;-0.4213795;9.653421;0.4213795
10:25:00:499;-0.4213795;9.653421;0.4213795
10:25:00:499;-0.4213795;9.653421;0.4213795
10:25:00:499;-0.4213795;9.653421;0.4213795
10:25:00:499;-0.4213795;9.653421;0.4213795
10:25:00:499;-0.4213795;9.653421;0.4213795
10:25:00:499;-0.4213795;9.653421;0.4213795
10:25:00:499;-0.4213795;9.653421;0.4213795
10:25:00:499;-0.4213795;9.653421;0.4213795
10:25:00:600;-0.21068975;10.132261;0.51714754
10:25:00:600;-0.21068975;10.132261;0.51714754
10:25:00:600;-0.21068975;10.132261;0.51714754
10:25:00:600;-0.21068975;10.132261;0.51714754
10:25:00:600;-0.21068975;10.132261;0.51714754
10:25:00:600;-0.21068975;10.132261;0.51714754
10:25:00:600;-0.21068975;10.132261;0.51714754
10:25:00:600;-0.21068975;10.132261;0.51714754
10:25:00:600;-0.21068975;10.132261;0.51714754
10:25:00:600;-0.21068975;10.132261;0.51714754
10:25:00:600;-0.21068975;10.132261;0.51714754
10:25:00:600;-0.21068975;10.132261;0.51714754
10:25:00:600;-0.21068975;10.132261;0.51714754
10:25:00:600;-0.21068975;10.132261;0.51714754
10:25:00:706;-0.2681506;10.515334;0.15322891
10:25:00:706;-0.2681506;10.515334;0.15322891
10:25:00:706;-0.2681506;10.515334;0.15322891
10:25:00:706;-0.2681506;10.515334;0.15322891
10:25:00:706;-0.2681506;10.515334;0.15322891
10:25:00:706;-0.2681506;10.515334;0.15322891
10:25:00:706;-0.2681506;10.515334;0.15322891
10:25:00:706;-0.2681506;10.515334;0.15322891
10:25:00:706;-0.2681506;10.515334;0.15322891
10:25:00:706;-0.2681506;10.515334;0.15322891
10:25:00:706;-0.2681506;10.515334;0.15322891
10:25:00:706;-0.2681506;10.515334;0.15322891
10:25:00:706;-0.2681506;10.515334;0.15322891
10:25:00:706;-0.2681506;10.515334;0.15322891
10:25:00:815;-0.32561144;10.0748005;0.4405331
10:25:00:815;-0.32561144;10.0748005;0.4405331
10:25:00:815;-0.32561144;10.0748005;0.4405331
10:25:00:815;-0.32561144;10.0748005;0.4405331
10:25:00:815;-0.32561144;10.0748005;0.4405331
10:25:00:815;-0.32561144;10.0748005;0.4405331
10:25:00:815;-0.32561144;10.0748005;0.4405331
10:25:00:815;-0.32561144;10.0748005;0.4405331
10:25:00:815;-0.32561144;10.0748005;0.4405331
10:25:00:815;-0.32561144;10.0748005;0.4405331
10:25:00:815;-0.32561144;10.0748005;0.4405331
10:25:00:815;-0.32561144;10.0748005;0.4405331
10:25:00:815;-0.32561144;10.0748005;0.4405331
10:25:00:815;-0.32561144;10.0748005;0.4405331
10:25:00:923;-0.2681506;10.419566;-0.61291564
10:25:00:923;-0.2681506;10.419566;-0.61291564
10:25:00:923;-0.2681506;10.419566;-0.61291564
10:25:00:923;-0.2681506;10.419566;-0.61291564
10:25:00:923;-0.2681506;10.419566;-0.61291564
10:25:00:923;-0.2681506;10.419566;-0.61291564
10:25:00:923;-0.2681506;10.419566;-0.61291564
10:25:00:923;-0.2681506;10.419566;-0.61291564
10:25:00:923;-0.2681506;10.419566;-0.61291564
10:25:00:923;-0.2681506;10.419566;-0.61291564
10:25:00:923;-0.2681506;10.419566;-0.61291564
10:25:00:923;-0.2681506;10.419566;-0.61291564
10:25:00:923;-0.2681506;10.419566;-0.61291564
10:25:00:923;-0.2681506;10.419566;-0.61291564
10:25:00:923;-0.2681506;10.419566;-0.61291564
10:25:01:041;-0.5363012;9.749189;0.5746084
10:25:01:041;-0.5363012;9.749189;0.5746084
10:25:01:041;-0.5363012;9.749189;0.5746084
10:25:01:041;-0.5363012;9.749189;0.5746084
10:25:01:041;-0.5363012;9.749189;0.5746084
10:25:01:041;-0.5363012;9.749189;0.5746084
10:25:01:041;-0.5363012;9.749189;0.5746084
10:25:01:041;-0.5363012;9.749189;0.5746084
10:25:01:041;-0.5363012;9.749189;0.5746084
10:25:01:041;-0.5363012;9.749189;0.5746084
10:25:01:041;-0.5363012;9.749189;0.5746084
10:25:01:041;-0.5363012;9.749189;0.5746084
10:25:01:041;-0.5363012;9.749189;0.5746084
10:25:01:041;-0.5363012;9.749189;0.5746084
10:25:01:041;-0.5363012;9.749189;0.5746084
10:25:01:159;0.019153614;10.113108;-0.076614454
10:25:01:159;0.019153614;10.113108;-0.076614454
10:25:01:159;0.019153614;10.113108;-0.076614454
10:25:01:159;0.019153614;10.113108;-0.076614454
10:25:01:159;0.019153614;10.113108;-0.076614454
10:25:01:159;0.019153614;10.113108;-0.076614454
10:25:01:159;0.019153614;10.113108;-0.076614454
10:25:01:159;0.019153614;10.113108;-0.076614454
10:25:01:159;0.019153614;10.113108;-0.076614454
10:25:01:159;0.019153614;10.113108;-0.076614454
10:25:01:159;0.019153614;10.113108;-0.076614454
10:25:01:159;0.019153614;10.113108;-0.076614454
10:25:01:159;0.019153614;10.113108;-0.076614454
10:25:01:159;0.019153614;10.113108;-0.076614454
10:25:01:159;0.019153614;10.113108;-0.076614454
10:25:01:159;0.019153614;10.113108;-0.076614454
10:25:01:289;0.11492168;10.266336;-0.40222588
10:25:01:289;0.11492168;10.266336;-0.40222588
10:25:01:289;0.11492168;10.266336;-0.40222588
10:25:01:289;0.11492168;10.266336;-0.40222588
10:25:01:289;0.11492168;10.266336;-0.40222588
10:25:01:289;0.11492168;10.266336;-0.40222588
10:25:01:289;0.11492168;10.266336;-0.40222588
10:25:01:289;0.11492168;10.266336;-0.40222588
10:25:01:289;0.11492168;10.266336;-0.40222588
10:25:01:289;0.11492168;10.266336;-0.40222588
10:25:01:289;0.11492168;10.266336;-0.40222588
10:25:01:289;0.11492168;10.266336;-0.40222588
10:25:01:289;0.11492168;10.266336;-0.40222588
10:25:01:289;0.11492168;10.266336;-0.40222588
10:25:01:289;0.11492168;10.266336;-0.40222588
10:25:01:289;0.11492168;10.266336;-0.40222588
10:25:01:289;0.11492168;10.266336;-0.40222588
10:25:01:289;0.11492168;10.266336;-0.40222588
10:25:01:289;0.11492168;10.266336;-0.40222588
10:25:01:289;0.11492168;10.266336;-0.40222588
10:25:01:443;-0.34476504;10.304645;-0.45968673
10:25:01:443;-0.34476504;10.304645;-0.45968673
10:25:01:443;-0.34476504;10.304645;-0.45968673
10:25:01:443;-0.34476504;10.304645;-0.45968673
10:25:01:443;-0.34476504;10.304645;-0.45968673
10:25:01:443;-0.34476504;10.304645;-0.45968673
10:25:01:443;-0.34476504;10.304645;-0.45968673
10:25:01:443;-0.34476504;10.304645;-0.45968673
10:25:01:443;-0.34476504;10.304645;-0.45968673
10:25:01:443;-0.34476504;10.304645;-0.45968673
10:25:01:443;-0.34476504;10.304645;-0.45968673
10:25:01:443;-0.34476504;10.304645;-0.45968673
10:25:01:443;-0.34476504;10.304645;-0.45968673
10:25:01:443;-0.34476504;10.304645;-0.45968673
10:25:01:443;-0.34476504;10.304645;-0.45968673
10:25:01:559;-0.6703765;9.634268;0.80445176
10:25:01:559;-0.6703765;9.634268;0.80445176
10:25:01:559;-0.6703765;9.634268;0.80445176
10:25:01:559;-0.6703765;9.634268;0.80445176
10:25:01:559;-0.6703765;9.634268;0.80445176
10:25:01:559;-0.6703765;9.634268;0.80445176
10:25:01:559;-0.6703765;9.634268;0.80445176
10:25:01:559;-0.6703765;9.634268;0.80445176
10:25:01:559;-0.6703765;9.634268;0.80445176
10:25:01:559;-0.6703765;9.634268;0.80445176
10:25:01:559;-0.6703765;9.634268;0.80445176
10:25:01:559;-0.6703765;9.634268;0.80445176
10:25:01:559;-0.6703765;9.634268;0.80445176
10:25:01:663;-0.1340753;10.01734;-0.30645782
10:25:01:663;-0.1340753;10.01734;-0.30645782
10:25:01:663;-0.1340753;10.01734;-0.30645782
10:25:01:663;-0.1340753;10.01734;-0.30645782
10:25:01:663;-0.1340753;10.01734;-0.30645782
10:25:01:663;-0.1340753;10.01734;-0.30645782
10:25:01:663;-0.1340753;10.01734;-0.30645782
10:25:01:663;-0.1340753;10.01734;-0.30645782
10:25:01:663;-0.1340753;10.01734;-0.30645782
10:25:01:663;-0.1340753;10.01734;-0.30645782
10:25:01:663;-0.1340753;10.01734;-0.30645782
10:25:01:663;-0.1340753;10.01734;-0.30645782
10:25:01:663;-0.1340753;10.01734;-0.30645782
10:25:01:663;-0.1340753;10.01734;-0.30645782
10:25:01:663;-0.1340753;10.01734;-0.30645782
10:25:01:779;-0.8810662;9.3661175;0.34476504
10:25:01:779;-0.8810662;9.3661175;0.34476504
10:25:01:779;-0.8810662;9.3661175;0.34476504
10:25:01:779;-0.8810662;9.3661175;0.34476504
10:25:01:779;-0.8810662;9.3661175;0.34476504
10:25:01:779;-0.8810662;9.3661175;0.34476504
10:25:01:779;-0.8810662;9.3661175;0.34476504
10:25:01:779;-0.8810662;9.3661175;0.34476504
10:25:01:779;-0.8810662;9.3661175;0.34476504
10:25:01:779;-0.8810662;9.3661175;0.34476504
10:25:01:779;-0.8810662;9.3661175;0.34476504
10:25:01:779;-0.8810662;9.3661175;0.34476504
10:25:01:779;-0.8810662;9.3661175;0.34476504
10:25:01:881;-0.15322891;10.036493;0.34476504
10:25:01:881;-0.15322891;10.036493;0.34476504
10:25:01:881;-0.15322891;10.036493;0.34476504
10:25:01:881;-0.15322891;10.036493;0.34476504
10:25:01:881;-0.15322891;10.036493;0.34476504
10:25:01:881;-0.15322891;10.036493;0.34476504
10:25:01:881;-0.15322891;10.036493;0.34476504
10:25:01:881;-0.15322891;10.036493;0.34476504
10:25:01:881;-0.15322891;10.036493;0.34476504
10:25:01:881;-0.15322891;10.036493;0.34476504
10:25:01:881;-0.15322891;10.036493;0.34476504
10:25:01:881;-0.15322891;10.036493;0.34476504
10:25:01:881;-0.15322891;10.036493;0.34476504
10:25:01:881;-0.15322891;10.036493;0.34476504
10:25:01:881;-0.15322891;10.036493;0.34476504
10:25:01:998;-0.4213795;9.097966;0.61291564
10:25:01:998;-0.4213795;9.097966;0.61291564
10:25:01:998;-0.4213795;9.097966;0.61291564
10:25:01:998;-0.4213795;9.097966;0.61291564
10:25:01:998;-0.4213795;9.097966;0.61291564
10:25:01:998;-0.4213795;9.097966;0.61291564
10:25:01:998;-0.4213795;9.097966;0.61291564
10:25:01:998;-0.4213795;9.097966;0.61291564
10:25:01:998;-0.4213795;9.097966;0.61291564
10:25:01:998;-0.4213795;9.097966;0.61291564
10:25:01:998;-0.4213795;9.097966;0.61291564
10:25:01:998;-0.4213795;9.097966;0.61291564
10:25:01:998;-0.4213795;9.097966;0.61291564
10:25:01:998;-0.4213795;9.097966;0.61291564
10:25:01:998;-0.4213795;9.097966;0.61291564
10:25:02:116;-0.51714754;10.113108;0.095768064
10:25:02:116;-0.51714754;10.113108;0.095768064
10:25:02:116;-0.51714754;10.113108;0.095768064
10:25:02:116;-0.51714754;10.113108;0.095768064
10:25:02:116;-0.51714754;10.113108;0.095768064
10:25:02:116;-0.51714754;10.113108;0.095768064
10:25:02:116;-0.51714754;10.113108;0.095768064
10:25:02:116;-0.51714754;10.113108;0.095768064
10:25:02:116;-0.51714754;10.113108;0.095768064
10:25:02:116;-0.51714754;10.113108;0.095768064
10:25:02:116;-0.51714754;10.113108;0.095768064
10:25:02:116;-0.51714754;10.113108;0.095768064
10:25:02:116;-0.51714754;10.113108;0.095768064
10:25:02:116;-0.51714754;10.113108;0.095768064
10:25:02:116;-0.51714754;10.113108;0.095768064
10:25:02:233;-0.4213795;10.477027;-0.095768064
10:25:02:233;-0.4213795;10.477027;-0.095768064
10:25:02:233;-0.4213795;10.477027;-0.095768064
10:25:02:233;-0.4213795;10.477027;-0.095768064
10:25:02:233;-0.4213795;10.477027;-0.095768064
10:25:02:233;-0.4213795;10.477027;-0.095768064
10:25:02:233;-0.4213795;10.477027;-0.095768064
10:25:02:233;-0.4213795;10.477027;-0.095768064
10:25:02:233;-0.4213795;10.477027;-0.095768064
10:25:02:233;-0.4213795;10.477027;-0.095768064
10:25:02:233;-0.4213795;10.477027;-0.095768064
10:25:02:233;-0.4213795;10.477027;-0.095768064
10:25:02:233;-0.4213795;10.477027;-0.095768064
10:25:02:233;-0.4213795;10.477027;-0.095768064
10:25:02:233;-0.4213795;10.477027;-0.095768064
10:25:02:233;-0.4213795;10.477027;-0.095768064
10:25:02:352;-0.80445176;9.691729;0.05746084
10:25:02:352;-0.80445176;9.691729;0.05746084
10:25:02:352;-0.80445176;9.691729;0.05746084
10:25:02:352;-0.80445176;9.691729;0.05746084
10:25:02:352;-0.80445176;9.691729;0.05746084
10:25:02:352;-0.80445176;9.691729;0.05746084
10:25:02:352;-0.80445176;9.691729;0.05746084
10:25:02:352;-0.80445176;9.691729;0.05746084
10:25:02:352;-0.80445176;9.691729;0.05746084
10:25:02:352;-0.80445176;9.691729;0.05746084
10:25:02:352;-0.80445176;9.691729;0.05746084
10:25:02:352;-0.80445176;9.691729;0.05746084
10:25:02:352;-0.80445176;9.691729;0.05746084
10:25:02:352;-0.80445176;9.691729;0.05746084
10:25:02:352;-0.80445176;9.691729;0.05746084
10:25:02:352;-0.80445176;9.691729;0.05746084
10:25:02:352;-0.80445176;9.691729;0.05746084
10:25:02:352;-0.80445176;9.691729;0.05746084
10:25:02:352;-0.80445176;9.691729;0.05746084
10:25:02:352;-0.80445176;9.691729;0.05746084
10:25:02:509;-0.34476504;9.864111;0.5554548
10:25:02:509;-0.34476504;9.864111;0.5554548
10:25:02:509;-0.34476504;9.864111;0.5554548
10:25:02:509;-0.34476504;9.864111;0.5554548
10:25:02:509;-0.34476504;9.864111;0.5554548
10:25:02:509;-0.34476504;9.864111;0.5554548
10:25:02:509;-0.34476504;9.864111;0.5554548
10:25:02:509;-0.34476504;9.864111;0.5554548
10:25:02:509;-0.34476504;9.864111;0.5554548
10:25:02:509;-0.34476504;9.864111;0.5554548
10:25:02:509;-0.34476504;9.864111;0.5554548
10:25:02:509;-0.34476504;9.864111;0.5554548
10:25:02:509;-0.34476504;9.864111;0.5554548
10:25:02:612;-0.36391866;9.672575;0.4405331
10:25:02:612;-0.36391866;9.672575;0.4405331
10:25:02:612;-0.36391866;9.672575;0.4405331
10:25:02:612;-0.36391866;9.672575;0.4405331
10:25:02:612;-0.36391866;9.672575;0.4405331
10:25:02:612;-0.36391866;9.672575;0.4405331
10:25:02:612;-0.36391866;9.672575;0.4405331
10:25:02:612;-0.36391866;9.672575;0.4405331
10:25:02:612;-0.36391866;9.672575;0.4405331
10:25:02:612;-0.36391866;9.672575;0.4405331
10:25:02:612;-0.36391866;9.672575;0.4405331
10:25:02:612;-0.36391866;9.672575;0.4405331
10:25:02:612;-0.36391866;9.672575;0.4405331
10:25:02:612;-0.36391866;9.672575;0.4405331
10:25:02:719;-0.19153613;9.768343;0.22984336
10:25:02:719;-0.19153613;9.768343;0.22984336
10:25:02:719;-0.19153613;9.768343;0.22984336
10:25:02:719;-0.19153613;9.768343;0.22984336
10:25:02:719;-0.19153613;9.768343;0.22984336
10:25:02:719;-0.19153613;9.768343;0.22984336
10:25:02:719;-0.19153613;9.768343;0.22984336
10:25:02:719;-0.19153613;9.768343;0.22984336
10:25:02:719;-0.19153613;9.768343;0.22984336
10:25:02:719;-0.19153613;9.768343;0.22984336
10:25:02:719;-0.19153613;9.768343;0.22984336
10:25:02:719;-0.19153613;9.768343;0.22984336
10:25:02:719;-0.19153613;9.768343;0.22984336
10:25:02:719;-0.19153613;9.768343;0.22984336
10:25:02:719;-0.19153613;9.768343;0.22984336
10:25:02:719;-0.19153613;9.768343;0.22984336
10:25:02:719;-0.19153613;9.768343;0.22984336
10:25:02:719;-0.19153613;9.768343;0.22984336
10:25:02:862;-0.2681506;9.940725;-0.019153614
10:25:02:862;-0.2681506;9.940725;-0.019153614
10:25:02:862;-0.2681506;9.940725;-0.019153614
10:25:02:862;-0.2681506;9.940725;-0.019153614
10:25:02:862;-0.2681506;9.940725;-0.019153614
10:25:02:862;-0.2681506;9.940725;-0.019153614
10:25:02:862;-0.2681506;9.940725;-0.019153614
10:25:02:862;-0.2681506;9.940725;-0.019153614
10:25:02:862;-0.2681506;9.940725;-0.019153614
10:25:02:862;-0.2681506;9.940725;-0.019153614
10:25:02:862;-0.2681506;9.940725;-0.019153614
10:25:02:862;-0.2681506;9.940725;-0.019153614
10:25:02:862;-0.2681506;9.940725;-0.019153614
10:25:02:965;-0.4213795;10.189722;0.076614454
10:25:02:965;-0.4213795;10.189722;0.076614454
10:25:02:965;-0.4213795;10.189722;0.076614454
10:25:02:965;-0.4213795;10.189722;0.076614454
10:25:02:965;-0.4213795;10.189722;0.076614454
10:25:02:965;-0.4213795;10.189722;0.076614454
10:25:02:965;-0.4213795;10.189722;0.076614454
10:25:02:965;-0.4213795;10.189722;0.076614454
10:25:02:965;-0.4213795;10.189722;0.076614454
10:25:02:965;-0.4213795;10.189722;0.076614454
10:25:02:965;-0.4213795;10.189722;0.076614454
10:25:02:965;-0.4213795;10.189722;0.076614454
10:25:02:965;-0.4213795;10.189722;0.076614454
10:25:02:965;-0.4213795;10.189722;0.076614454
10:25:03:073;-0.076614454;10.515334;0.19153613
10:25:03:073;-0.076614454;10.515334;0.19153613
10:25:03:073;-0.076614454;10.515334;0.19153613
10:25:03:073;-0.076614454;10.515334;0.19153613
10:25:03:073;-0.076614454;10.515334;0.19153613
10:25:03:073;-0.076614454;10.515334;0.19153613
10:25:03:073;-0.076614454;10.515334;0.19153613
10:25:03:073;-0.076614454;10.515334;0.19153613
10:25:03:073;-0.076614454;10.515334;0.19153613
10:25:03:073;-0.076614454;10.515334;0.19153613
10:25:03:073;-0.076614454;10.515334;0.19153613
10:25:03:073;-0.076614454;10.515334;0.19153613
10:25:03:073;-0.076614454;10.515334;0.19153613
10:25:03:174;-0.24899697;9.672575;-0.11492168
10:25:03:174;-0.24899697;9.672575;-0.11492168
10:25:03:174;-0.24899697;9.672575;-0.11492168
10:25:03:174;-0.24899697;9.672575;-0.11492168
10:25:03:174;-0.24899697;9.672575;-0.11492168
10:25:03:174;-0.24899697;9.672575;-0.11492168
10:25:03:174;-0.24899697;9.672575;-0.11492168
10:25:03:174;-0.24899697;9.672575;-0.11492168
10:25:03:174;-0.24899697;9.672575;-0.11492168
10:25:03:174;-0.24899697;9.672575;-0.11492168
10:25:03:174;-0.24899697;9.672575;-0.11492168
10:25:03:174;-0.24899697;9.672575;-0.11492168
10:25:03:174;-0.24899697;9.672575;-0.11492168
10:25:03:275;0.21068975;9.3661175;0.05746084
10:25:03:275;0.21068975;9.3661175;0.05746084
10:25:03:275;0.21068975;9.3661175;0.05746084
10:25:03:275;0.21068975;9.3661175;0.05746084
10:25:03:275;0.21068975;9.3661175;0.05746084
10:25:03:275;0.21068975;9.3661175;0.05746084
10:25:03:275;0.21068975;9.3661175;0.05746084
10:25:03:275;0.21068975;9.3661175;0.05746084
10:25:03:275;0.21068975;9.3661175;0.05746084
10:25:03:275;0.21068975;9.3661175;0.05746084
10:25:03:275;0.21068975;9.3661175;0.05746084
10:25:03:275;0.21068975;9.3661175;0.05746084
10:25:03:275;0.21068975;9.3661175;0.05746084
10:25:03:275;0.21068975;9.3661175;0.05746084
10:25:03:275;0.21068975;9.3661175;0.05746084
10:25:03:391;-1.2258313;12.181698;-0.076614454
10:25:03:391;-1.2258313;12.181698;-0.076614454
10:25:03:391;-1.2258313;12.181698;-0.076614454
10:25:03:391;-1.2258313;12.181698;-0.076614454
10:25:03:391;-1.2258313;12.181698;-0.076614454
10:25:03:391;-1.2258313;12.181698;-0.076614454
10:25:03:391;-1.2258313;12.181698;-0.076614454
10:25:03:391;-1.2258313;12.181698;-0.076614454
10:25:03:391;-1.2258313;12.181698;-0.076614454
10:25:03:391;-1.2258313;12.181698;-0.076614454
10:25:03:391;-1.2258313;12.181698;-0.076614454
10:25:03:391;-1.2258313;12.181698;-0.076614454
10:25:03:391;-1.2258313;12.181698;-0.076614454
10:25:03:391;-1.2258313;12.181698;-0.076614454
10:25:03:391;-1.2258313;12.181698;-0.076614454
10:25:03:510;-0.34476504;8.063671;1.2449849
10:25:03:510;-0.34476504;8.063671;1.2449849
10:25:03:510;-0.34476504;8.063671;1.2449849
10:25:03:510;-0.34476504;8.063671;1.2449849
10:25:03:510;-0.34476504;8.063671;1.2449849
10:25:03:510;-0.34476504;8.063671;1.2449849
10:25:03:510;-0.34476504;8.063671;1.2449849
10:25:03:510;-0.34476504;8.063671;1.2449849
10:25:03:510;-0.34476504;8.063671;1.2449849
10:25:03:510;-0.34476504;8.063671;1.2449849
10:25:03:510;-0.34476504;8.063671;1.2449849
10:25:03:510;-0.34476504;8.063671;1.2449849
10:25:03:510;-0.34476504;8.063671;1.2449849
10:25:03:510;-0.34476504;8.063671;1.2449849
10:25:03:510;-0.34476504;8.063671;1.2449849
10:25:03:627;-1.0726024;11.109096;-0.842759
10:25:03:627;-1.0726024;11.109096;-0.842759
10:25:03:627;-1.0726024;11.109096;-0.842759
10:25:03:627;-1.0726024;11.109096;-0.842759
10:25:03:627;-1.0726024;11.109096;-0.842759
10:25:03:627;-1.0726024;11.109096;-0.842759
10:25:03:627;-1.0726024;11.109096;-0.842759
10:25:03:627;-1.0726024;11.109096;-0.842759
10:25:03:627;-1.0726024;11.109096;-0.842759
10:25:03:627;-1.0726024;11.109096;-0.842759
10:25:03:627;-1.0726024;11.109096;-0.842759
10:25:03:627;-1.0726024;11.109096;-0.842759
10:25:03:627;-1.0726024;11.109096;-0.842759
10:25:03:627;-1.0726024;11.109096;-0.842759
10:25:03:627;-1.0726024;11.109096;-0.842759
10:25:03:627;-1.0726024;11.109096;-0.842759
10:25:03:627;-1.0726024;11.109096;-0.842759
10:25:03:627;-1.0726024;11.109096;-0.842759
10:25:03:627;-1.0726024;11.109096;-0.842759
10:25:03:627;-1.0726024;11.109096;-0.842759
10:25:03:784;-0.7086837;9.308656;0.842759
10:25:03:784;-0.7086837;9.308656;0.842759
10:25:03:784;-0.7086837;9.308656;0.842759
10:25:03:784;-0.7086837;9.308656;0.842759
10:25:03:784;-0.7086837;9.308656;0.842759
10:25:03:784;-0.7086837;9.308656;0.842759
10:25:03:784;-0.7086837;9.308656;0.842759
10:25:03:784;-0.7086837;9.308656;0.842759
10:25:03:784;-0.7086837;9.308656;0.842759
10:25:03:784;-0.7086837;9.308656;0.842759
10:25:03:784;-0.7086837;9.308656;0.842759
10:25:03:784;-0.7086837;9.308656;0.842759
10:25:03:784;-0.7086837;9.308656;0.842759
10:25:03:887;-0.4405331;10.611102;-0.5746084
10:25:03:887;-0.4405331;10.611102;-0.5746084
10:25:03:887;-0.4405331;10.611102;-0.5746084
10:25:03:887;-0.4405331;10.611102;-0.5746084
10:25:03:887;-0.4405331;10.611102;-0.5746084
10:25:03:887;-0.4405331;10.611102;-0.5746084
10:25:03:887;-0.4405331;10.611102;-0.5746084
10:25:03:887;-0.4405331;10.611102;-0.5746084
10:25:03:887;-0.4405331;10.611102;-0.5746084
10:25:03:887;-0.4405331;10.611102;-0.5746084
10:25:03:887;-0.4405331;10.611102;-0.5746084
10:25:03:887;-0.4405331;10.611102;-0.5746084
10:25:03:887;-0.4405331;10.611102;-0.5746084
10:25:03:887;-0.4405331;10.611102;-0.5746084
10:25:03:995;-0.6703765;9.691729;0.47884035
10:25:03:995;-0.6703765;9.691729;0.47884035
10:25:03:995;-0.6703765;9.691729;0.47884035
10:25:03:995;-0.6703765;9.691729;0.47884035
10:25:03:995;-0.6703765;9.691729;0.47884035
10:25:03:995;-0.6703765;9.691729;0.47884035
10:25:03:995;-0.6703765;9.691729;0.47884035
10:25:03:995;-0.6703765;9.691729;0.47884035
10:25:03:995;-0.6703765;9.691729;0.47884035
10:25:03:995;-0.6703765;9.691729;0.47884035
10:25:03:995;-0.6703765;9.691729;0.47884035
10:25:03:995;-0.6703765;9.691729;0.47884035
10:25:03:995;-0.6703765;9.691729;0.47884035
10:25:04:096;-0.1340753;9.730036;0.40222588
10:25:04:096;-0.1340753;9.730036;0.40222588
10:25:04:096;-0.1340753;9.730036;0.40222588
10:25:04:096;-0.1340753;9.730036;0.40222588
10:25:04:096;-0.1340753;9.730036;0.40222588
10:25:04:096;-0.1340753;9.730036;0.40222588
10:25:04:096;-0.1340753;9.730036;0.40222588
10:25:04:096;-0.1340753;9.730036;0.40222588
10:25:04:096;-0.1340753;9.730036;0.40222588
10:25:04:096;-0.1340753;9.730036;0.40222588
10:25:04:096;-0.1340753;9.730036;0.40222588
10:25:04:096;-0.1340753;9.730036;0.40222588
10:25:04:096;-0.1340753;9.730036;0.40222588
10:25:04:096;-0.1340753;9.730036;0.40222588
10:25:04:096;-0.1340753;9.730036;0.40222588
10:25:04:213;-0.11492168;10.28549;-0.11492168
10:25:04:213;-0.11492168;10.28549;-0.11492168
10:25:04:213;-0.11492168;10.28549;-0.11492168
10:25:04:213;-0.11492168;10.28549;-0.11492168
10:25:04:213;-0.11492168;10.28549;-0.11492168
10:25:04:213;-0.11492168;10.28549;-0.11492168
10:25:04:213;-0.11492168;10.28549;-0.11492168
10:25:04:213;-0.11492168;10.28549;-0.11492168
10:25:04:213;-0.11492168;10.28549;-0.11492168
10:25:04:213;-0.11492168;10.28549;-0.11492168
10:25:04:213;-0.11492168;10.28549;-0.11492168
10:25:04:213;-0.11492168;10.28549;-0.11492168
10:25:04:213;-0.11492168;10.28549;-0.11492168
10:25:04:213;-0.11492168;10.28549;-0.11492168
10:25:04:213;-0.11492168;10.28549;-0.11492168
10:25:04:332;0.47884035;10.208876;-0.63206923
10:25:04:332;0.47884035;10.208876;-0.63206923
10:25:04:332;0.47884035;10.208876;-0.63206923
10:25:04:332;0.47884035;10.208876;-0.63206923
10:25:04:332;0.47884035;10.208876;-0.63206923
10:25:04:332;0.47884035;10.208876;-0.63206923
10:25:04:332;0.47884035;10.208876;-0.63206923
10:25:04:332;0.47884035;10.208876;-0.63206923
10:25:04:332;0.47884035;10.208876;-0.63206923
10:25:04:332;0.47884035;10.208876;-0.63206923
10:25:04:332;0.47884035;10.208876;-0.63206923
10:25:04:332;0.47884035;10.208876;-0.63206923
10:25:04:332;0.47884035;10.208876;-0.63206923
10:25:04:332;0.47884035;10.208876;-0.63206923
10:25:04:332;0.47884035;10.208876;-0.63206923
10:25:04:450;-0.19153613;9.998186;-0.038307227
10:25:04:450;-0.19153613;9.998186;-0.038307227
10:25:04:450;-0.19153613;9.998186;-0.038307227
10:25:04:450;-0.19153613;9.998186;-0.038307227
10:25:04:450;-0.19153613;9.998186;-0.038307227
10:25:04:450;-0.19153613;9.998186;-0.038307227
10:25:04:450;-0.19153613;9.998186;-0.038307227
10:25:04:450;-0.19153613;9.998186;-0.038307227
10:25:04:450;-0.19153613;9.998186;-0.038307227
10:25:04:450;-0.19153613;9.998186;-0.038307227
10:25:04:450;-0.19153613;9.998186;-0.038307227
10:25:04:450;-0.19153613;9.998186;-0.038307227
10:25:04:450;-0.19153613;9.998186;-0.038307227
10:25:04:450;-0.19153613;9.998186;-0.038307227
10:25:04:450;-0.19153613;9.998186;-0.038307227
10:25:04:450;-0.19153613;9.998186;-0.038307227
10:25:04:450;-0.19153613;9.998186;-0.038307227
10:25:04:579;-0.15322891;9.883265;0.1340753
10:25:04:579;-0.15322891;9.883265;0.1340753
10:25:04:579;-0.15322891;9.883265;0.1340753
10:25:04:579;-0.15322891;9.883265;0.1340753
10:25:04:579;-0.15322891;9.883265;0.1340753
10:25:04:579;-0.15322891;9.883265;0.1340753
10:25:04:579;-0.15322891;9.883265;0.1340753
10:25:04:579;-0.15322891;9.883265;0.1340753
10:25:04:579;-0.15322891;9.883265;0.1340753
10:25:04:579;-0.15322891;9.883265;0.1340753
10:25:04:579;-0.15322891;9.883265;0.1340753
10:25:04:579;-0.15322891;9.883265;0.1340753
10:25:04:579;-0.15322891;9.883265;0.1340753
10:25:04:680;-0.5363012;10.01734;-0.15322891
10:25:04:680;-0.5363012;10.01734;-0.15322891
10:25:04:680;-0.5363012;10.01734;-0.15322891
10:25:04:680;-0.5363012;10.01734;-0.15322891
10:25:04:680;-0.5363012;10.01734;-0.15322891
10:25:04:680;-0.5363012;10.01734;-0.15322891
10:25:04:680;-0.5363012;10.01734;-0.15322891
10:25:04:680;-0.5363012;10.01734;-0.15322891
10:25:04:680;-0.5363012;10.01734;-0.15322891
10:25:04:680;-0.5363012;10.01734;-0.15322891
10:25:04:680;-0.5363012;10.01734;-0.15322891
10:25:04:680;-0.5363012;10.01734;-0.15322891
10:25:04:680;-0.5363012;10.01734;-0.15322891
10:25:04:785;-0.38307226;10.43872;-0.19153613
10:25:04:785;-0.38307226;10.43872;-0.19153613
10:25:04:785;-0.38307226;10.43872;-0.19153613
10:25:04:785;-0.38307226;10.43872;-0.19153613
10:25:04:785;-0.38307226;10.43872;-0.19153613
10:25:04:785;-0.38307226;10.43872;-0.19153613
10:25:04:785;-0.38307226;10.43872;-0.19153613
10:25:04:785;-0.38307226;10.43872;-0.19153613
10:25:04:785;-0.38307226;10.43872;-0.19153613
10:25:04:785;-0.38307226;10.43872;-0.19153613
10:25:04:785;-0.38307226;10.43872;-0.19153613
10:25:04:785;-0.38307226;10.43872;-0.19153613
10:25:04:785;-0.38307226;10.43872;-0.19153613
10:25:04:785;-0.38307226;10.43872;-0.19153613
10:25:04:785;-0.38307226;10.43872;-0.19153613
10:25:04:901;-0.21068975;9.902418;0.49799395
10:25:04:901;-0.21068975;9.902418;0.49799395
10:25:04:901;-0.21068975;9.902418;0.49799395
10:25:04:901;-0.21068975;9.902418;0.49799395
10:25:04:901;-0.21068975;9.902418;0.49799395
10:25:04:901;-0.21068975;9.902418;0.49799395
10:25:04:901;-0.21068975;9.902418;0.49799395
10:25:04:901;-0.21068975;9.902418;0.49799395
10:25:04:901;-0.21068975;9.902418;0.49799395
10:25:04:901;-0.21068975;9.902418;0.49799395
10:25:04:901;-0.21068975;9.902418;0.49799395
10:25:04:901;-0.21068975;9.902418;0.49799395
10:25:04:901;-0.21068975;9.902418;0.49799395
10:25:04:901;-0.21068975;9.902418;0.49799395
10:25:04:901;-0.21068975;9.902418;0.49799395
10:25:05:018;-0.2873042;11.013328;-0.9959879
10:25:05:018;-0.2873042;11.013328;-0.9959879
10:25:05:018;-0.2873042;11.013328;-0.9959879
10:25:05:018;-0.2873042;11.013328;-0.9959879
10:25:05:018;-0.2873042;11.013328;-0.9959879
10:25:05:018;-0.2873042;11.013328;-0.9959879
10:25:05:018;-0.2873042;11.013328;-0.9959879
10:25:05:018;-0.2873042;11.013328;-0.9959879
10:25:05:018;-0.2873042;11.013328;-0.9959879
10:25:05:018;-0.2873042;11.013328;-0.9959879
10:25:05:018;-0.2873042;11.013328;-0.9959879
10:25:05:018;-0.2873042;11.013328;-0.9959879
10:25:05:018;-0.2873042;11.013328;-0.9959879
10:25:05:124;-0.1340753;10.515334;-0.7278373
10:25:05:124;-0.1340753;10.515334;-0.7278373
10:25:05:124;-0.1340753;10.515334;-0.7278373
10:25:05:124;-0.1340753;10.515334;-0.7278373
10:25:05:124;-0.1340753;10.515334;-0.7278373
10:25:05:124;-0.1340753;10.515334;-0.7278373
10:25:05:124;-0.1340753;10.515334;-0.7278373
10:25:05:124;-0.1340753;10.515334;-0.7278373
10:25:05:124;-0.1340753;10.515334;-0.7278373
10:25:05:124;-0.1340753;10.515334;-0.7278373
10:25:05:124;-0.1340753;10.515334;-0.7278373
10:25:05:124;-0.1340753;10.515334;-0.7278373
10:25:05:124;-0.1340753;10.515334;-0.7278373
10:25:05:124;-0.1340753;10.515334;-0.7278373
10:25:05:124;-0.1340753;10.515334;-0.7278373
10:25:05:241;-0.40222588;9.040505;0.9959879
10:25:05:241;-0.40222588;9.040505;0.9959879
10:25:05:241;-0.40222588;9.040505;0.9959879
10:25:05:241;-0.40222588;9.040505;0.9959879
10:25:05:241;-0.40222588;9.040505;0.9959879
10:25:05:241;-0.40222588;9.040505;0.9959879
10:25:05:241;-0.40222588;9.040505;0.9959879
10:25:05:241;-0.40222588;9.040505;0.9959879
10:25:05:241;-0.40222588;9.040505;0.9959879
10:25:05:241;-0.40222588;9.040505;0.9959879
10:25:05:241;-0.40222588;9.040505;0.9959879
10:25:05:241;-0.40222588;9.040505;0.9959879
10:25:05:241;-0.40222588;9.040505;0.9959879
10:25:05:241;-0.40222588;9.040505;0.9959879
10:25:05:241;-0.40222588;9.040505;0.9959879
10:25:05:357;-0.5554548;11.089942;-1.283292
10:25:05:357;-0.5554548;11.089942;-1.283292
10:25:05:357;-0.5554548;11.089942;-1.283292
10:25:05:357;-0.5554548;11.089942;-1.283292
10:25:05:357;-0.5554548;11.089942;-1.283292
10:25:05:357;-0.5554548;11.089942;-1.283292
10:25:05:357;-0.5554548;11.089942;-1.283292
10:25:05:357;-0.5554548;11.089942;-1.283292
10:25:05:357;-0.5554548;11.089942;-1.283292
10:25:05:357;-0.5554548;11.089942;-1.283292
10:25:05:357;-0.5554548;11.089942;-1.283292
10:25:05:357;-0.5554548;11.089942;-1.283292
10:25:05:357;-0.5554548;11.089942;-1.283292
10:25:05:357;-0.5554548;11.089942;-1.283292
10:25:05:462;-0.63206923;10.5919485;-0.36391866
10:25:05:462;-0.63206923;10.5919485;-0.36391866
10:25:05:462;-0.63206923;10.5919485;-0.36391866
10:25:05:462;-0.63206923;10.5919485;-0.36391866
10:25:05:462;-0.63206923;10.5919485;-0.36391866
10:25:05:462;-0.63206923;10.5919485;-0.36391866
10:25:05:462;-0.63206923;10.5919485;-0.36391866
10:25:05:462;-0.63206923;10.5919485;-0.36391866
10:25:05:462;-0.63206923;10.5919485;-0.36391866
10:25:05:462;-0.63206923;10.5919485;-0.36391866
10:25:05:462;-0.63206923;10.5919485;-0.36391866
10:25:05:462;-0.63206923;10.5919485;-0.36391866
10:25:05:462;-0.63206923;10.5919485;-0.36391866
10:25:05:565;-0.32561144;10.208876;0.40222588
10:25:05:565;-0.32561144;10.208876;0.40222588
10:25:05:565;-0.32561144;10.208876;0.40222588
10:25:05:565;-0.32561144;10.208876;0.40222588
10:25:05:565;-0.32561144;10.208876;0.40222588
10:25:05:565;-0.32561144;10.208876;0.40222588
10:25:05:565;-0.32561144;10.208876;0.40222588
10:25:05:565;-0.32561144;10.208876;0.40222588
10:25:05:565;-0.32561144;10.208876;0.40222588
10:25:05:565;-0.32561144;10.208876;0.40222588
10:25:05:565;-0.32561144;10.208876;0.40222588
10:25:05:565;-0.32561144;10.208876;0.40222588
10:25:05:565;-0.32561144;10.208876;0.40222588
10:25:05:565;-0.32561144;10.208876;0.40222588
10:25:05:565;-0.32561144;10.208876;0.40222588
10:25:05:684;-0.11492168;9.864111;0.19153613
10:25:05:684;-0.11492168;9.864111;0.19153613
10:25:05:684;-0.11492168;9.864111;0.19153613
10:25:05:684;-0.11492168;9.864111;0.19153613
10:25:05:684;-0.11492168;9.864111;0.19153613
10:25:05:684;-0.11492168;9.864111;0.19153613
10:25:05:684;-0.11492168;9.864111;0.19153613
10:25:05:684;-0.11492168;9.864111;0.19153613
10:25:05:684;-0.11492168;9.864111;0.19153613
10:25:05:684;-0.11492168;9.864111;0.19153613
10:25:05:684;-0.11492168;9.864111;0.19153613
10:25:05:684;-0.11492168;9.864111;0.19153613
10:25:05:684;-0.11492168;9.864111;0.19153613
10:25:05:684;-0.11492168;9.864111;0.19153613
10:25:05:684;-0.11492168;9.864111;0.19153613
10:25:05:800;-0.1340753;10.43872;-0.63206923
10:25:05:800;-0.1340753;10.43872;-0.63206923
10:25:05:800;-0.1340753;10.43872;-0.63206923
10:25:05:800;-0.1340753;10.43872;-0.63206923
10:25:05:800;-0.1340753;10.43872;-0.63206923
10:25:05:800;-0.1340753;10.43872;-0.63206923
10:25:05:800;-0.1340753;10.43872;-0.63206923
10:25:05:800;-0.1340753;10.43872;-0.63206923
10:25:05:800;-0.1340753;10.43872;-0.63206923
10:25:05:800;-0.1340753;10.43872;-0.63206923
10:25:05:800;-0.1340753;10.43872;-0.63206923
10:25:05:800;-0.1340753;10.43872;-0.63206923
10:25:05:800;-0.1340753;10.43872;-0.63206923
10:25:05:902;-0.24899697;10.036493;-0.15322891
10:25:05:902;-0.24899697;10.036493;-0.15322891
10:25:05:902;-0.24899697;10.036493;-0.15322891
10:25:05:902;-0.24899697;10.036493;-0.15322891
10:25:05:902;-0.24899697;10.036493;-0.15322891
10:25:05:902;-0.24899697;10.036493;-0.15322891
10:25:05:902;-0.24899697;10.036493;-0.15322891
10:25:05:902;-0.24899697;10.036493;-0.15322891
10:25:05:902;-0.24899697;10.036493;-0.15322891
10:25:05:902;-0.24899697;10.036493;-0.15322891
10:25:05:902;-0.24899697;10.036493;-0.15322891
10:25:05:902;-0.24899697;10.036493;-0.15322891
10:25:05:902;-0.24899697;10.036493;-0.15322891
10:25:05:902;-0.24899697;10.036493;-0.15322891
10:25:05:902;-0.24899697;10.036493;-0.15322891
10:25:06:021;-0.51714754;9.825804;0.32561144
10:25:06:021;-0.51714754;9.825804;0.32561144
10:25:06:021;-0.51714754;9.825804;0.32561144
10:25:06:021;-0.51714754;9.825804;0.32561144
10:25:06:021;-0.51714754;9.825804;0.32561144
10:25:06:021;-0.51714754;9.825804;0.32561144
10:25:06:021;-0.51714754;9.825804;0.32561144
10:25:06:021;-0.51714754;9.825804;0.32561144
10:25:06:021;-0.51714754;9.825804;0.32561144
10:25:06:021;-0.51714754;9.825804;0.32561144
10:25:06:021;-0.51714754;9.825804;0.32561144
10:25:06:021;-0.51714754;9.825804;0.32561144
10:25:06:021;-0.51714754;9.825804;0.32561144
10:25:06:021;-0.51714754;9.825804;0.32561144
10:25:06:021;-0.51714754;9.825804;0.32561144
10:25:06:140;-0.24899697;10.668563;-0.51714754
10:25:06:140;-0.24899697;10.668563;-0.51714754
10:25:06:140;-0.24899697;10.668563;-0.51714754
10:25:06:140;-0.24899697;10.668563;-0.51714754
10:25:06:140;-0.24899697;10.668563;-0.51714754
10:25:06:140;-0.24899697;10.668563;-0.51714754
10:25:06:140;-0.24899697;10.668563;-0.51714754
10:25:06:140;-0.24899697;10.668563;-0.51714754
10:25:06:140;-0.24899697;10.668563;-0.51714754
10:25:06:140;-0.24899697;10.668563;-0.51714754
10:25:06:140;-0.24899697;10.668563;-0.51714754
10:25:06:140;-0.24899697;10.668563;-0.51714754
10:25:06:140;-0.24899697;10.668563;-0.51714754
10:25:06:140;-0.24899697;10.668563;-0.51714754
10:25:06:140;-0.24899697;10.668563;-0.51714754
10:25:06:140;-0.24899697;10.668563;-0.51714754
10:25:06:262;-0.1340753;10.419566;-0.5746084
10:25:06:262;-0.1340753;10.419566;-0.5746084
10:25:06:262;-0.1340753;10.419566;-0.5746084
10:25:06:262;-0.1340753;10.419566;-0.5746084
10:25:06:262;-0.1340753;10.419566;-0.5746084
10:25:06:262;-0.1340753;10.419566;-0.5746084
10:25:06:262;-0.1340753;10.419566;-0.5746084
10:25:06:262;-0.1340753;10.419566;-0.5746084
10:25:06:262;-0.1340753;10.419566;-0.5746084
10:25:06:262;-0.1340753;10.419566;-0.5746084
10:25:06:262;-0.1340753;10.419566;-0.5746084
10:25:06:262;-0.1340753;10.419566;-0.5746084
10:25:06:262;-0.1340753;10.419566;-0.5746084
10:25:06:364;-0.38307226;10.381259;-0.40222588
10:25:06:364;-0.38307226;10.381259;-0.40222588
10:25:06:364;-0.38307226;10.381259;-0.40222588
10:25:06:364;-0.38307226;10.381259;-0.40222588
10:25:06:364;-0.38307226;10.381259;-0.40222588
10:25:06:364;-0.38307226;10.381259;-0.40222588
10:25:06:364;-0.38307226;10.381259;-0.40222588
10:25:06:364;-0.38307226;10.381259;-0.40222588
10:25:06:364;-0.38307226;10.381259;-0.40222588
10:25:06:364;-0.38307226;10.381259;-0.40222588
10:25:06:364;-0.38307226;10.381259;-0.40222588
10:25:06:364;-0.38307226;10.381259;-0.40222588
10:25:06:364;-0.38307226;10.381259;-0.40222588
10:25:06:467;0.05746084;9.940725;-0.38307226
10:25:06:467;0.05746084;9.940725;-0.38307226
10:25:06:467;0.05746084;9.940725;-0.38307226
10:25:06:467;0.05746084;9.940725;-0.38307226
10:25:06:467;0.05746084;9.940725;-0.38307226
10:25:06:467;0.05746084;9.940725;-0.38307226
10:25:06:467;0.05746084;9.940725;-0.38307226
10:25:06:467;0.05746084;9.940725;-0.38307226
10:25:06:467;0.05746084;9.940725;-0.38307226
10:25:06:467;0.05746084;9.940725;-0.38307226
10:25:06:467;0.05746084;9.940725;-0.38307226
10:25:06:467;0.05746084;9.940725;-0.38307226
10:25:06:467;0.05746084;9.940725;-0.38307226
10:25:06:569;-0.45968673;9.672575;0.2873042
10:25:06:569;-0.45968673;9.672575;0.2873042
10:25:06:569;-0.45968673;9.672575;0.2873042
10:25:06:569;-0.45968673;9.672575;0.2873042
10:25:06:569;-0.45968673;9.672575;0.2873042
10:25:06:569;-0.45968673;9.672575;0.2873042
10:25:06:569;-0.45968673;9.672575;0.2873042
10:25:06:569;-0.45968673;9.672575;0.2873042
10:25:06:569;-0.45968673;9.672575;0.2873042
10:25:06:569;-0.45968673;9.672575;0.2873042
10:25:06:569;-0.45968673;9.672575;0.2873042
10:25:06:569;-0.45968673;9.672575;0.2873042
10:25:06:569;-0.45968673;9.672575;0.2873042
10:25:06:569;-0.45968673;9.672575;0.2873042
10:25:06:672;-0.82360536;9.519346;-0.095768064
10:25:06:672;-0.82360536;9.519346;-0.095768064
10:25:06:672;-0.82360536;9.519346;-0.095768064
10:25:06:672;-0.82360536;9.519346;-0.095768064
10:25:06:672;-0.82360536;9.519346;-0.095768064
10:25:06:672;-0.82360536;9.519346;-0.095768064
10:25:06:672;-0.82360536;9.519346;-0.095768064
10:25:06:672;-0.82360536;9.519346;-0.095768064
10:25:06:672;-0.82360536;9.519346;-0.095768064
10:25:06:672;-0.82360536;9.519346;-0.095768064
10:25:06:672;-0.82360536;9.519346;-0.095768064
10:25:06:672;-0.82360536;9.519346;-0.095768064
10:25:06:672;-0.82360536;9.519346;-0.095768064
10:25:06:672;-0.82360536;9.519346;-0.095768064
10:25:06:672;-0.82360536;9.519346;-0.095768064
10:25:06:790;-0.5746084;9.921572;-0.36391866
10:25:06:790;-0.5746084;9.921572;-0.36391866
10:25:06:790;-0.5746084;9.921572;-0.36391866
10:25:06:790;-0.5746084;9.921572;-0.36391866
10:25:06:790;-0.5746084;9.921572;-0.36391866
10:25:06:790;-0.5746084;9.921572;-0.36391866
10:25:06:790;-0.5746084;9.921572;-0.36391866
10:25:06:790;-0.5746084;9.921572;-0.36391866
10:25:06:790;-0.5746084;9.921572;-0.36391866
10:25:06:790;-0.5746084;9.921572;-0.36391866
10:25:06:790;-0.5746084;9.921572;-0.36391866
10:25:06:790;-0.5746084;9.921572;-0.36391866
10:25:06:790;-0.5746084;9.921572;-0.36391866
10:25:06:893;-0.11492168;9.270349;0.15322891
10:25:06:893;-0.11492168;9.270349;0.15322891
10:25:06:893;-0.11492168;9.270349;0.15322891
10:25:06:893;-0.11492168;9.270349;0.15322891
10:25:06:893;-0.11492168;9.270349;0.15322891
10:25:06:893;-0.11492168;9.270349;0.15322891
10:25:06:893;-0.11492168;9.270349;0.15322891
10:25:06:893;-0.11492168;9.270349;0.15322891
10:25:06:893;-0.11492168;9.270349;0.15322891
10:25:06:893;-0.11492168;9.270349;0.15322891
10:25:06:893;-0.11492168;9.270349;0.15322891
10:25:06:893;-0.11492168;9.270349;0.15322891
10:25:06:893;-0.11492168;9.270349;0.15322891
10:25:06:893;-0.11492168;9.270349;0.15322891
10:25:06:893;-0.11492168;9.270349;0.15322891
10:25:07:011;-0.019153614;10.151415;-0.22984336
10:25:07:011;-0.019153614;10.151415;-0.22984336
10:25:07:011;-0.019153614;10.151415;-0.22984336
10:25:07:011;-0.019153614;10.151415;-0.22984336
10:25:07:011;-0.019153614;10.151415;-0.22984336
10:25:07:011;-0.019153614;10.151415;-0.22984336
10:25:07:011;-0.019153614;10.151415;-0.22984336
10:25:07:011;-0.019153614;10.151415;-0.22984336
10:25:07:011;-0.019153614;10.151415;-0.22984336
10:25:07:011;-0.019153614;10.151415;-0.22984336
10:25:07:011;-0.019153614;10.151415;-0.22984336
10:25:07:011;-0.019153614;10.151415;-0.22984336
10:25:07:011;-0.019153614;10.151415;-0.22984336
10:25:07:011;-0.019153614;10.151415;-0.22984336
10:25:07:011;-0.019153614;10.151415;-0.22984336
10:25:07:129;-0.5746084;10.534488;-0.78529817
10:25:07:129;-0.5746084;10.534488;-0.78529817
10:25:07:129;-0.5746084;10.534488;-0.78529817
10:25:07:129;-0.5746084;10.534488;-0.78529817
10:25:07:129;-0.5746084;10.534488;-0.78529817
10:25:07:129;-0.5746084;10.534488;-0.78529817
10:25:07:129;-0.5746084;10.534488;-0.78529817
10:25:07:129;-0.5746084;10.534488;-0.78529817
10:25:07:129;-0.5746084;10.534488;-0.78529817
10:25:07:129;-0.5746084;10.534488;-0.78529817
10:25:07:129;-0.5746084;10.534488;-0.78529817
10:25:07:129;-0.5746084;10.534488;-0.78529817
10:25:07:129;-0.5746084;10.534488;-0.78529817
10:25:07:129;-0.5746084;10.534488;-0.78529817
10:25:07:129;-0.5746084;10.534488;-0.78529817
10:25:07:247;-0.19153613;10.43872;-0.24899697
10:25:07:247;-0.19153613;10.43872;-0.24899697
10:25:07:247;-0.19153613;10.43872;-0.24899697
10:25:07:247;-0.19153613;10.43872;-0.24899697
10:25:07:247;-0.19153613;10.43872;-0.24899697
10:25:07:247;-0.19153613;10.43872;-0.24899697
10:25:07:247;-0.19153613;10.43872;-0.24899697
10:25:07:247;-0.19153613;10.43872;-0.24899697
10:25:07:247;-0.19153613;10.43872;-0.24899697
10:25:07:247;-0.19153613;10.43872;-0.24899697
10:25:07:247;-0.19153613;10.43872;-0.24899697
10:25:07:247;-0.19153613;10.43872;-0.24899697
10:25:07:247;-0.19153613;10.43872;-0.24899697
10:25:07:247;-0.19153613;10.43872;-0.24899697
10:25:07:247;-0.19153613;10.43872;-0.24899697
10:25:07:363;-0.6703765;9.864111;0.05746084
10:25:07:363;-0.6703765;9.864111;0.05746084
10:25:07:363;-0.6703765;9.864111;0.05746084
10:25:07:363;-0.6703765;9.864111;0.05746084
10:25:07:363;-0.6703765;9.864111;0.05746084
10:25:07:363;-0.6703765;9.864111;0.05746084
10:25:07:363;-0.6703765;9.864111;0.05746084
10:25:07:363;-0.6703765;9.864111;0.05746084
10:25:07:363;-0.6703765;9.864111;0.05746084
10:25:07:363;-0.6703765;9.864111;0.05746084
10:25:07:363;-0.6703765;9.864111;0.05746084
10:25:07:363;-0.6703765;9.864111;0.05746084
10:25:07:363;-0.6703765;9.864111;0.05746084
10:25:07:464;-0.22984336;9.902418;-0.17238252
10:25:07:464;-0.22984336;9.902418;-0.17238252
10:25:07:464;-0.22984336;9.902418;-0.17238252
10:25:07:464;-0.22984336;9.902418;-0.17238252
10:25:07:464;-0.22984336;9.902418;-0.17238252
10:25:07:464;-0.22984336;9.902418;-0.17238252
10:25:07:464;-0.22984336;9.902418;-0.17238252
10:25:07:464;-0.22984336;9.902418;-0.17238252
10:25:07:464;-0.22984336;9.902418;-0.17238252
10:25:07:464;-0.22984336;9.902418;-0.17238252
10:25:07:464;-0.22984336;9.902418;-0.17238252
10:25:07:464;-0.22984336;9.902418;-0.17238252
10:25:07:464;-0.22984336;9.902418;-0.17238252
10:25:07:464;-0.22984336;9.902418;-0.17238252
10:25:07:464;-0.22984336;9.902418;-0.17238252
10:25:07:583;-0.4213795;9.404425;0.15322891
10:25:07:583;-0.4213795;9.404425;0.15322891
10:25:07:583;-0.4213795;9.404425;0.15322891
10:25:07:583;-0.4213795;9.404425;0.15322891
10:25:07:583;-0.4213795;9.404425;0.15322891
10:25:07:583;-0.4213795;9.404425;0.15322891
10:25:07:583;-0.4213795;9.404425;0.15322891
10:25:07:583;-0.4213795;9.404425;0.15322891
10:25:07:583;-0.4213795;9.404425;0.15322891
10:25:07:583;-0.4213795;9.404425;0.15322891
10:25:07:583;-0.4213795;9.404425;0.15322891
10:25:07:583;-0.4213795;9.404425;0.15322891
10:25:07:583;-0.4213795;9.404425;0.15322891
10:25:07:583;-0.4213795;9.404425;0.15322891
10:25:07:583;-0.4213795;9.404425;0.15322891
10:25:07:583;-0.4213795;9.404425;0.15322891
10:25:07:706;-0.076614454;10.381259;-0.5554548
10:25:07:706;-0.076614454;10.381259;-0.5554548
10:25:07:706;-0.076614454;10.381259;-0.5554548
10:25:07:706;-0.076614454;10.381259;-0.5554548
10:25:07:706;-0.076614454;10.381259;-0.5554548
10:25:07:706;-0.076614454;10.381259;-0.5554548
10:25:07:706;-0.076614454;10.381259;-0.5554548
10:25:07:706;-0.076614454;10.381259;-0.5554548
10:25:07:706;-0.076614454;10.381259;-0.5554548
10:25:07:706;-0.076614454;10.381259;-0.5554548
10:25:07:706;-0.076614454;10.381259;-0.5554548
10:25:07:706;-0.076614454;10.381259;-0.5554548
10:25:07:706;-0.076614454;10.381259;-0.5554548
10:25:07:706;-0.076614454;10.381259;-0.5554548
10:25:07:820;-0.59376204;10.28549;-0.82360536
10:25:07:820;-0.59376204;10.28549;-0.82360536
10:25:07:820;-0.59376204;10.28549;-0.82360536
10:25:07:820;-0.59376204;10.28549;-0.82360536
10:25:07:820;-0.59376204;10.28549;-0.82360536
10:25:07:820;-0.59376204;10.28549;-0.82360536
10:25:07:820;-0.59376204;10.28549;-0.82360536
10:25:07:820;-0.59376204;10.28549;-0.82360536
10:25:07:820;-0.59376204;10.28549;-0.82360536
10:25:07:820;-0.59376204;10.28549;-0.82360536
10:25:07:820;-0.59376204;10.28549;-0.82360536
10:25:07:820;-0.59376204;10.28549;-0.82360536
10:25:07:820;-0.59376204;10.28549;-0.82360536
10:25:07:820;-0.59376204;10.28549;-0.82360536
10:25:07:820;-0.59376204;10.28549;-0.82360536
10:25:07:820;-0.59376204;10.28549;-0.82360536
10:25:07:820;-0.59376204;10.28549;-0.82360536
10:25:07:820;-0.59376204;10.28549;-0.82360536
10:25:07:820;-0.59376204;10.28549;-0.82360536
10:25:07:820;-0.59376204;10.28549;-0.82360536
10:25:07:820;-0.59376204;10.28549;-0.82360536
10:25:07:820;-0.59376204;10.28549;-0.82360536
10:25:07:985;-0.40222588;9.289502;-0.038307227
10:25:07:985;-0.40222588;9.289502;-0.038307227
10:25:07:985;-0.40222588;9.289502;-0.038307227
10:25:07:985;-0.40222588;9.289502;-0.038307227
10:25:07:985;-0.40222588;9.289502;-0.038307227
10:25:07:985;-0.40222588;9.289502;-0.038307227
10:25:07:985;-0.40222588;9.289502;-0.038307227
10:25:07:985;-0.40222588;9.289502;-0.038307227
10:25:07:985;-0.40222588;9.289502;-0.038307227
10:25:07:985;-0.40222588;9.289502;-0.038307227
10:25:07:985;-0.40222588;9.289502;-0.038307227
10:25:07:985;-0.40222588;9.289502;-0.038307227
10:25:07:985;-0.40222588;9.289502;-0.038307227
10:25:07:985;-0.40222588;9.289502;-0.038307227
10:25:07:985;-0.40222588;9.289502;-0.038307227
10:25:07:985;-0.40222588;9.289502;-0.038307227
10:25:07:985;-0.40222588;9.289502;-0.038307227
10:25:07:985;-0.40222588;9.289502;-0.038307227
10:25:07:985;-0.40222588;9.289502;-0.038307227
10:25:07:985;-0.40222588;9.289502;-0.038307227
10:25:07:985;-0.40222588;9.289502;-0.038307227
10:25:07:985;-0.40222588;9.289502;-0.038307227
10:25:07:985;-0.40222588;9.289502;-0.038307227
10:25:07:985;-0.40222588;9.289502;-0.038307227
10:25:07:985;-0.40222588;9.289502;-0.038307227
10:25:07:985;-0.40222588;9.289502;-0.038307227
10:25:07:985;-0.40222588;9.289502;-0.038307227
10:25:07:985;-0.40222588;9.289502;-0.038307227
10:25:07:985;-0.40222588;9.289502;-0.038307227
10:25:07:985;-0.40222588;9.289502;-0.038307227
10:25:07:985;-0.40222588;9.289502;-0.038307227
10:25:07:985;-0.40222588;9.289502;-0.038307227
10:25:07:985;-0.40222588;9.289502;-0.038307227
10:25:08:250;0.6895301;10.093954;0.038307227
10:25:08:250;0.6895301;10.093954;0.038307227
10:25:08:250;0.6895301;10.093954;0.038307227
10:25:08:250;0.6895301;10.093954;0.038307227
10:25:08:250;0.6895301;10.093954;0.038307227
10:25:08:250;0.6895301;10.093954;0.038307227
10:25:08:250;0.6895301;10.093954;0.038307227
10:25:08:250;0.6895301;10.093954;0.038307227
10:25:08:250;0.6895301;10.093954;0.038307227
10:25:08:250;0.6895301;10.093954;0.038307227
10:25:08:250;0.6895301;10.093954;0.038307227
10:25:08:250;0.6895301;10.093954;0.038307227
10:25:08:250;0.6895301;10.093954;0.038307227
10:25:08:250;0.6895301;10.093954;0.038307227
10:25:08:250;0.6895301;10.093954;0.038307227
10:25:08:361;-0.4405331;10.28549;-0.05746084
10:25:08:361;-0.4405331;10.28549;-0.05746084
10:25:08:361;-0.4405331;10.28549;-0.05746084
10:25:08:361;-0.4405331;10.28549;-0.05746084
10:25:08:361;-0.4405331;10.28549;-0.05746084
10:25:08:361;-0.4405331;10.28549;-0.05746084
10:25:08:361;-0.4405331;10.28549;-0.05746084
10:25:08:361;-0.4405331;10.28549;-0.05746084
10:25:08:361;-0.4405331;10.28549;-0.05746084
10:25:08:361;-0.4405331;10.28549;-0.05746084
10:25:08:361;-0.4405331;10.28549;-0.05746084
10:25:08:361;-0.4405331;10.28549;-0.05746084
10:25:08:361;-0.4405331;10.28549;-0.05746084
10:25:08:467;-0.2873042;8.944737;0.7469909
10:25:08:467;-0.2873042;8.944737;0.7469909
10:25:08:467;-0.2873042;8.944737;0.7469909
10:25:08:467;-0.2873042;8.944737;0.7469909
10:25:08:467;-0.2873042;8.944737;0.7469909
10:25:08:467;-0.2873042;8.944737;0.7469909
10:25:08:467;-0.2873042;8.944737;0.7469909
10:25:08:467;-0.2873042;8.944737;0.7469909
10:25:08:467;-0.2873042;8.944737;0.7469909
10:25:08:467;-0.2873042;8.944737;0.7469909
10:25:08:467;-0.2873042;8.944737;0.7469909
10:25:08:467;-0.2873042;8.944737;0.7469909
10:25:08:467;-0.2873042;8.944737;0.7469909
10:25:08:467;-0.2873042;8.944737;0.7469909
10:25:08:467;-0.2873042;8.944737;0.7469909
10:25:08:581;-0.63206923;10.189722;-0.19153613
10:25:08:581;-0.63206923;10.189722;-0.19153613
10:25:08:581;-0.63206923;10.189722;-0.19153613
10:25:08:581;-0.63206923;10.189722;-0.19153613
10:25:08:581;-0.63206923;10.189722;-0.19153613
10:25:08:581;-0.63206923;10.189722;-0.19153613
10:25:08:581;-0.63206923;10.189722;-0.19153613
10:25:08:581;-0.63206923;10.189722;-0.19153613
10:25:08:581;-0.63206923;10.189722;-0.19153613
10:25:08:581;-0.63206923;10.189722;-0.19153613
10:25:08:581;-0.63206923;10.189722;-0.19153613
10:25:08:581;-0.63206923;10.189722;-0.19153613
10:25:08:581;-0.63206923;10.189722;-0.19153613
10:25:08:581;-0.63206923;10.189722;-0.19153613
10:25:08:581;-0.63206923;10.189722;-0.19153613
