Time_Accel;AccelX;AccelY;AccelZ
15:19:10:293;-0.49799395;11.109096;0.40222588
15:19:10:293;-0.49799395;11.109096;0.40222588
15:19:10:293;-0.49799395;11.109096;0.40222588
15:19:10:293;-0.49799395;11.109096;0.40222588
15:19:10:293;-0.49799395;11.109096;0.40222588
15:19:10:293;-0.49799395;11.109096;0.40222588
15:19:10:293;-0.49799395;11.109096;0.40222588
15:19:10:395;0.22984336;10.381259;0.17238252
15:19:10:395;0.22984336;10.381259;0.17238252
15:19:10:395;0.22984336;10.381259;0.17238252
15:19:10:395;0.22984336;10.381259;0.17238252
15:19:10:395;0.22984336;10.381259;0.17238252
15:19:10:395;0.22984336;10.381259;0.17238252
15:19:10:395;0.22984336;10.381259;0.17238252
15:19:10:395;0.22984336;10.381259;0.17238252
15:19:10:395;0.22984336;10.381259;0.17238252
15:19:10:395;0.22984336;10.381259;0.17238252
15:19:10:395;0.22984336;10.381259;0.17238252
15:19:10:395;0.22984336;10.381259;0.17238252
15:19:10:395;0.22984336;10.381259;0.17238252
15:19:10:395;0.22984336;10.381259;0.17238252
15:19:10:395;0.22984336;10.381259;0.17238252
15:19:10:513;0.51714754;8.925584;0.93852705
15:19:10:513;0.51714754;8.925584;0.93852705
15:19:10:513;0.51714754;8.925584;0.93852705
15:19:10:513;0.51714754;8.925584;0.93852705
15:19:10:513;0.51714754;8.925584;0.93852705
15:19:10:513;0.51714754;8.925584;0.93852705
15:19:10:513;0.51714754;8.925584;0.93852705
15:19:10:513;0.51714754;8.925584;0.93852705
15:19:10:513;0.51714754;8.925584;0.93852705
15:19:10:513;0.51714754;8.925584;0.93852705
15:19:10:513;0.51714754;8.925584;0.93852705
15:19:10:513;0.51714754;8.925584;0.93852705
15:19:10:513;0.51714754;8.925584;0.93852705
15:19:10:513;0.51714754;8.925584;0.93852705
15:19:10:513;0.51714754;8.925584;0.93852705
15:19:10:513;0.51714754;8.925584;0.93852705
15:19:10:633;-0.05746084;11.166556;0.22984336
15:19:10:633;-0.05746084;11.166556;0.22984336
15:19:10:633;-0.05746084;11.166556;0.22984336
15:19:10:633;-0.05746084;11.166556;0.22984336
15:19:10:633;-0.05746084;11.166556;0.22984336
15:19:10:633;-0.05746084;11.166556;0.22984336
15:19:10:633;-0.05746084;11.166556;0.22984336
15:19:10:633;-0.05746084;11.166556;0.22984336
15:19:10:633;-0.05746084;11.166556;0.22984336
15:19:10:633;-0.05746084;11.166556;0.22984336
15:19:10:633;-0.05746084;11.166556;0.22984336
15:19:10:633;-0.05746084;11.166556;0.22984336
15:19:10:633;-0.05746084;11.166556;0.22984336
15:19:10:737;-0.05746084;9.270349;-0.038307227
15:19:10:737;-0.05746084;9.270349;-0.038307227
15:19:10:737;-0.05746084;9.270349;-0.038307227
15:19:10:737;-0.05746084;9.270349;-0.038307227
15:19:10:737;-0.05746084;9.270349;-0.038307227
15:19:10:737;-0.05746084;9.270349;-0.038307227
15:19:10:737;-0.05746084;9.270349;-0.038307227
15:19:10:737;-0.05746084;9.270349;-0.038307227
15:19:10:737;-0.05746084;9.270349;-0.038307227
15:19:10:737;-0.05746084;9.270349;-0.038307227
15:19:10:737;-0.05746084;9.270349;-0.038307227
15:19:10:737;-0.05746084;9.270349;-0.038307227
15:19:10:737;-0.05746084;9.270349;-0.038307227
15:19:10:737;-0.05746084;9.270349;-0.038307227
15:19:10:737;-0.05746084;9.270349;-0.038307227
15:19:10:855;0.19153613;8.255207;0.82360536
15:19:10:855;0.19153613;8.255207;0.82360536
15:19:10:855;0.19153613;8.255207;0.82360536
15:19:10:855;0.19153613;8.255207;0.82360536
15:19:10:855;0.19153613;8.255207;0.82360536
15:19:10:855;0.19153613;8.255207;0.82360536
15:19:10:855;0.19153613;8.255207;0.82360536
15:19:10:855;0.19153613;8.255207;0.82360536
15:19:10:855;0.19153613;8.255207;0.82360536
15:19:10:855;0.19153613;8.255207;0.82360536
15:19:10:855;0.19153613;8.255207;0.82360536
15:19:10:855;0.19153613;8.255207;0.82360536
15:19:10:855;0.19153613;8.255207;0.82360536
15:19:10:855;0.19153613;8.255207;0.82360536
15:19:10:855;0.19153613;8.255207;0.82360536
15:19:10:973;-0.05746084;10.304645;0.38307226
15:19:10:973;-0.05746084;10.304645;0.38307226
15:19:10:973;-0.05746084;10.304645;0.38307226
15:19:10:973;-0.05746084;10.304645;0.38307226
15:19:10:973;-0.05746084;10.304645;0.38307226
15:19:10:973;-0.05746084;10.304645;0.38307226
15:19:10:973;-0.05746084;10.304645;0.38307226
15:19:10:973;-0.05746084;10.304645;0.38307226
15:19:10:973;-0.05746084;10.304645;0.38307226
15:19:10:973;-0.05746084;10.304645;0.38307226
15:19:10:973;-0.05746084;10.304645;0.38307226
15:19:10:973;-0.05746084;10.304645;0.38307226
15:19:10:973;-0.05746084;10.304645;0.38307226
15:19:10:973;-0.05746084;10.304645;0.38307226
15:19:10:973;-0.05746084;10.304645;0.38307226
15:19:11:089;-0.076614454;10.5919485;0.5746084
15:19:11:089;-0.076614454;10.5919485;0.5746084
15:19:11:089;-0.076614454;10.5919485;0.5746084
15:19:11:089;-0.076614454;10.5919485;0.5746084
15:19:11:089;-0.076614454;10.5919485;0.5746084
15:19:11:089;-0.076614454;10.5919485;0.5746084
15:19:11:089;-0.076614454;10.5919485;0.5746084
15:19:11:089;-0.076614454;10.5919485;0.5746084
15:19:11:089;-0.076614454;10.5919485;0.5746084
15:19:11:089;-0.076614454;10.5919485;0.5746084
15:19:11:089;-0.076614454;10.5919485;0.5746084
15:19:11:089;-0.076614454;10.5919485;0.5746084
15:19:11:089;-0.076614454;10.5919485;0.5746084
15:19:11:192;-0.15322891;10.419566;0.38307226
15:19:11:192;-0.15322891;10.419566;0.38307226
15:19:11:192;-0.15322891;10.419566;0.38307226
15:19:11:192;-0.15322891;10.419566;0.38307226
15:19:11:192;-0.15322891;10.419566;0.38307226
15:19:11:192;-0.15322891;10.419566;0.38307226
15:19:11:192;-0.15322891;10.419566;0.38307226
15:19:11:192;-0.15322891;10.419566;0.38307226
15:19:11:192;-0.15322891;10.419566;0.38307226
15:19:11:192;-0.15322891;10.419566;0.38307226
15:19:11:192;-0.15322891;10.419566;0.38307226
15:19:11:192;-0.15322891;10.419566;0.38307226
15:19:11:192;-0.15322891;10.419566;0.38307226
15:19:11:192;-0.15322891;10.419566;0.38307226
15:19:11:192;-0.15322891;10.419566;0.38307226
15:19:11:307;-0.15322891;11.166556;-0.038307227
15:19:11:307;-0.15322891;11.166556;-0.038307227
15:19:11:307;-0.15322891;11.166556;-0.038307227
15:19:11:307;-0.15322891;11.166556;-0.038307227
15:19:11:307;-0.15322891;11.166556;-0.038307227
15:19:11:307;-0.15322891;11.166556;-0.038307227
15:19:11:307;-0.15322891;11.166556;-0.038307227
15:19:11:307;-0.15322891;11.166556;-0.038307227
15:19:11:307;-0.15322891;11.166556;-0.038307227
15:19:11:307;-0.15322891;11.166556;-0.038307227
15:19:11:307;-0.15322891;11.166556;-0.038307227
15:19:11:307;-0.15322891;11.166556;-0.038307227
15:19:11:307;-0.15322891;11.166556;-0.038307227
15:19:11:307;-0.15322891;11.166556;-0.038307227
15:19:11:307;-0.15322891;11.166556;-0.038307227
15:19:11:424;-0.019153614;9.768343;0.36391866
15:19:11:424;-0.019153614;9.768343;0.36391866
15:19:11:424;-0.019153614;9.768343;0.36391866
15:19:11:424;-0.019153614;9.768343;0.36391866
15:19:11:424;-0.019153614;9.768343;0.36391866
15:19:11:424;-0.019153614;9.768343;0.36391866
15:19:11:424;-0.019153614;9.768343;0.36391866
15:19:11:424;-0.019153614;9.768343;0.36391866
15:19:11:424;-0.019153614;9.768343;0.36391866
15:19:11:424;-0.019153614;9.768343;0.36391866
15:19:11:424;-0.019153614;9.768343;0.36391866
15:19:11:424;-0.019153614;9.768343;0.36391866
15:19:11:424;-0.019153614;9.768343;0.36391866
15:19:11:424;-0.019153614;9.768343;0.36391866
15:19:11:424;-0.019153614;9.768343;0.36391866
15:19:11:540;-0.038307227;8.829816;0.5554548
15:19:11:540;-0.038307227;8.829816;0.5554548
15:19:11:540;-0.038307227;8.829816;0.5554548
15:19:11:540;-0.038307227;8.829816;0.5554548
15:19:11:540;-0.038307227;8.829816;0.5554548
15:19:11:540;-0.038307227;8.829816;0.5554548
15:19:11:540;-0.038307227;8.829816;0.5554548
15:19:11:540;-0.038307227;8.829816;0.5554548
15:19:11:540;-0.038307227;8.829816;0.5554548
15:19:11:540;-0.038307227;8.829816;0.5554548
15:19:11:540;-0.038307227;8.829816;0.5554548
15:19:11:540;-0.038307227;8.829816;0.5554548
15:19:11:540;-0.038307227;8.829816;0.5554548
15:19:11:540;-0.038307227;8.829816;0.5554548
15:19:11:540;-0.038307227;8.829816;0.5554548
15:19:11:659;-0.05746084;10.0748005;0.49799395
15:19:11:659;-0.05746084;10.0748005;0.49799395
15:19:11:659;-0.05746084;10.0748005;0.49799395
15:19:11:659;-0.05746084;10.0748005;0.49799395
15:19:11:659;-0.05746084;10.0748005;0.49799395
15:19:11:659;-0.05746084;10.0748005;0.49799395
15:19:11:659;-0.05746084;10.0748005;0.49799395
15:19:11:659;-0.05746084;10.0748005;0.49799395
15:19:11:659;-0.05746084;10.0748005;0.49799395
15:19:11:659;-0.05746084;10.0748005;0.49799395
15:19:11:659;-0.05746084;10.0748005;0.49799395
15:19:11:659;-0.05746084;10.0748005;0.49799395
15:19:11:659;-0.05746084;10.0748005;0.49799395
15:19:11:659;-0.05746084;10.0748005;0.49799395
15:19:11:659;-0.05746084;10.0748005;0.49799395
15:19:11:780;-0.019153614;10.304645;0.49799395
15:19:11:780;-0.019153614;10.304645;0.49799395
15:19:11:780;-0.019153614;10.304645;0.49799395
15:19:11:780;-0.019153614;10.304645;0.49799395
15:19:11:780;-0.019153614;10.304645;0.49799395
15:19:11:780;-0.019153614;10.304645;0.49799395
15:19:11:780;-0.019153614;10.304645;0.49799395
15:19:11:780;-0.019153614;10.304645;0.49799395
15:19:11:780;-0.019153614;10.304645;0.49799395
15:19:11:780;-0.019153614;10.304645;0.49799395
15:19:11:780;-0.019153614;10.304645;0.49799395
15:19:11:780;-0.019153614;10.304645;0.49799395
15:19:11:780;-0.019153614;10.304645;0.49799395
15:19:11:780;-0.019153614;10.304645;0.49799395
15:19:11:780;-0.019153614;10.304645;0.49799395
15:19:11:780;-0.019153614;10.304645;0.49799395
15:19:11:780;-0.019153614;10.304645;0.49799395
15:19:11:780;-0.019153614;10.304645;0.49799395
15:19:11:780;-0.019153614;10.304645;0.49799395
15:19:11:780;-0.019153614;10.304645;0.49799395
15:19:11:780;-0.019153614;10.304645;0.49799395
15:19:11:780;-0.019153614;10.304645;0.49799395
15:19:11:780;-0.019153614;10.304645;0.49799395
15:19:11:780;-0.019153614;10.304645;0.49799395
15:19:11:780;-0.019153614;10.304645;0.49799395
15:19:11:969;0.30645782;10.745177;0.038307227
15:19:11:969;0.30645782;10.745177;0.038307227
15:19:11:969;0.30645782;10.745177;0.038307227
15:19:11:969;0.30645782;10.745177;0.038307227
15:19:11:969;0.30645782;10.745177;0.038307227
15:19:11:969;0.30645782;10.745177;0.038307227
15:19:11:969;0.30645782;10.745177;0.038307227
15:19:11:969;0.30645782;10.745177;0.038307227
15:19:11:969;0.30645782;10.745177;0.038307227
15:19:11:969;0.30645782;10.745177;0.038307227
15:19:11:969;0.30645782;10.745177;0.038307227
15:19:11:969;0.30645782;10.745177;0.038307227
15:19:11:969;0.30645782;10.745177;0.038307227
15:19:11:969;0.30645782;10.745177;0.038307227
15:19:12:080;0.095768064;9.576807;0.32561144
15:19:12:080;0.095768064;9.576807;0.32561144
15:19:12:080;0.095768064;9.576807;0.32561144
15:19:12:080;0.095768064;9.576807;0.32561144
15:19:12:080;0.095768064;9.576807;0.32561144
15:19:12:080;0.095768064;9.576807;0.32561144
15:19:12:080;0.095768064;9.576807;0.32561144
15:19:12:080;0.095768064;9.576807;0.32561144
15:19:12:080;0.095768064;9.576807;0.32561144
15:19:12:080;0.095768064;9.576807;0.32561144
15:19:12:080;0.095768064;9.576807;0.32561144
15:19:12:080;0.095768064;9.576807;0.32561144
15:19:12:080;0.095768064;9.576807;0.32561144
15:19:12:080;0.095768064;9.576807;0.32561144
15:19:12:080;0.095768064;9.576807;0.32561144
15:19:12:080;0.095768064;9.576807;0.32561144
15:19:12:205;0.076614454;9.442732;0.9768343
15:19:12:205;0.076614454;9.442732;0.9768343
15:19:12:205;0.076614454;9.442732;0.9768343
15:19:12:205;0.076614454;9.442732;0.9768343
15:19:12:205;0.076614454;9.442732;0.9768343
15:19:12:205;0.076614454;9.442732;0.9768343
15:19:12:205;0.076614454;9.442732;0.9768343
15:19:12:205;0.076614454;9.442732;0.9768343
15:19:12:205;0.076614454;9.442732;0.9768343
15:19:12:205;0.076614454;9.442732;0.9768343
15:19:12:205;0.076614454;9.442732;0.9768343
15:19:12:205;0.076614454;9.442732;0.9768343
15:19:12:205;0.076614454;9.442732;0.9768343
15:19:12:308;0.2873042;8.868123;0.82360536
15:19:12:308;0.2873042;8.868123;0.82360536
15:19:12:308;0.2873042;8.868123;0.82360536
15:19:12:308;0.2873042;8.868123;0.82360536
15:19:12:308;0.2873042;8.868123;0.82360536
15:19:12:308;0.2873042;8.868123;0.82360536
15:19:12:308;0.2873042;8.868123;0.82360536
15:19:12:308;0.2873042;8.868123;0.82360536
15:19:12:308;0.2873042;8.868123;0.82360536
15:19:12:308;0.2873042;8.868123;0.82360536
15:19:12:308;0.2873042;8.868123;0.82360536
15:19:12:308;0.2873042;8.868123;0.82360536
15:19:12:308;0.2873042;8.868123;0.82360536
15:19:12:308;0.2873042;8.868123;0.82360536
15:19:12:308;0.2873042;8.868123;0.82360536
15:19:12:425;0.038307227;10.6877165;0.51714754
15:19:12:425;0.038307227;10.6877165;0.51714754
15:19:12:425;0.038307227;10.6877165;0.51714754
15:19:12:425;0.038307227;10.6877165;0.51714754
15:19:12:425;0.038307227;10.6877165;0.51714754
15:19:12:425;0.038307227;10.6877165;0.51714754
15:19:12:425;0.038307227;10.6877165;0.51714754
15:19:12:425;0.038307227;10.6877165;0.51714754
15:19:12:425;0.038307227;10.6877165;0.51714754
15:19:12:425;0.038307227;10.6877165;0.51714754
15:19:12:425;0.038307227;10.6877165;0.51714754
15:19:12:425;0.038307227;10.6877165;0.51714754
15:19:12:425;0.038307227;10.6877165;0.51714754
15:19:12:425;0.038307227;10.6877165;0.51714754
15:19:12:425;0.038307227;10.6877165;0.51714754
15:19:12:542;0.36391866;10.132261;0.51714754
15:19:12:542;0.36391866;10.132261;0.51714754
15:19:12:542;0.36391866;10.132261;0.51714754
15:19:12:542;0.36391866;10.132261;0.51714754
15:19:12:542;0.36391866;10.132261;0.51714754
15:19:12:542;0.36391866;10.132261;0.51714754
15:19:12:542;0.36391866;10.132261;0.51714754
15:19:12:542;0.36391866;10.132261;0.51714754
15:19:12:542;0.36391866;10.132261;0.51714754
15:19:12:542;0.36391866;10.132261;0.51714754
15:19:12:542;0.36391866;10.132261;0.51714754
15:19:12:542;0.36391866;10.132261;0.51714754
15:19:12:542;0.36391866;10.132261;0.51714754
15:19:12:542;0.36391866;10.132261;0.51714754
15:19:12:542;0.36391866;10.132261;0.51714754
15:19:12:661;0.24899697;9.461885;0.90021986
15:19:12:661;0.24899697;9.461885;0.90021986
15:19:12:661;0.24899697;9.461885;0.90021986
15:19:12:661;0.24899697;9.461885;0.90021986
15:19:12:661;0.24899697;9.461885;0.90021986
15:19:12:661;0.24899697;9.461885;0.90021986
15:19:12:661;0.24899697;9.461885;0.90021986
15:19:12:661;0.24899697;9.461885;0.90021986
15:19:12:661;0.24899697;9.461885;0.90021986
15:19:12:661;0.24899697;9.461885;0.90021986
15:19:12:661;0.24899697;9.461885;0.90021986
15:19:12:661;0.24899697;9.461885;0.90021986
15:19:12:661;0.24899697;9.461885;0.90021986
15:19:12:661;0.24899697;9.461885;0.90021986
15:19:12:661;0.24899697;9.461885;0.90021986
15:19:12:776;-0.2681506;10.840945;0.24899697
15:19:12:776;-0.2681506;10.840945;0.24899697
15:19:12:776;-0.2681506;10.840945;0.24899697
15:19:12:776;-0.2681506;10.840945;0.24899697
15:19:12:776;-0.2681506;10.840945;0.24899697
15:19:12:776;-0.2681506;10.840945;0.24899697
15:19:12:776;-0.2681506;10.840945;0.24899697
15:19:12:776;-0.2681506;10.840945;0.24899697
15:19:12:776;-0.2681506;10.840945;0.24899697
15:19:12:776;-0.2681506;10.840945;0.24899697
15:19:12:776;-0.2681506;10.840945;0.24899697
15:19:12:776;-0.2681506;10.840945;0.24899697
15:19:12:776;-0.2681506;10.840945;0.24899697
15:19:12:877;0.49799395;9.270349;0.5554548
15:19:12:877;0.49799395;9.270349;0.5554548
15:19:12:877;0.49799395;9.270349;0.5554548
15:19:12:877;0.49799395;9.270349;0.5554548
15:19:12:877;0.49799395;9.270349;0.5554548
15:19:12:877;0.49799395;9.270349;0.5554548
15:19:12:877;0.49799395;9.270349;0.5554548
15:19:12:877;0.49799395;9.270349;0.5554548
15:19:12:877;0.49799395;9.270349;0.5554548
15:19:12:877;0.49799395;9.270349;0.5554548
15:19:12:877;0.49799395;9.270349;0.5554548
15:19:12:877;0.49799395;9.270349;0.5554548
15:19:12:877;0.49799395;9.270349;0.5554548
15:19:12:877;0.49799395;9.270349;0.5554548
15:19:12:877;0.49799395;9.270349;0.5554548
15:19:12:994;-1.1109096;10.5919485;0.6895301
15:19:12:994;-1.1109096;10.5919485;0.6895301
15:19:12:994;-1.1109096;10.5919485;0.6895301
15:19:12:994;-1.1109096;10.5919485;0.6895301
15:19:12:994;-1.1109096;10.5919485;0.6895301
15:19:12:994;-1.1109096;10.5919485;0.6895301
15:19:12:994;-1.1109096;10.5919485;0.6895301
15:19:12:994;-1.1109096;10.5919485;0.6895301
15:19:12:994;-1.1109096;10.5919485;0.6895301
15:19:12:994;-1.1109096;10.5919485;0.6895301
15:19:12:994;-1.1109096;10.5919485;0.6895301
15:19:12:994;-1.1109096;10.5919485;0.6895301
15:19:12:994;-1.1109096;10.5919485;0.6895301
15:19:12:994;-1.1109096;10.5919485;0.6895301
15:19:12:994;-1.1109096;10.5919485;0.6895301
15:19:13:112;-0.36391866;9.844957;0.61291564
15:19:13:112;-0.36391866;9.844957;0.61291564
15:19:13:112;-0.36391866;9.844957;0.61291564
15:19:13:112;-0.36391866;9.844957;0.61291564
15:19:13:112;-0.36391866;9.844957;0.61291564
15:19:13:112;-0.36391866;9.844957;0.61291564
15:19:13:112;-0.36391866;9.844957;0.61291564
15:19:13:112;-0.36391866;9.844957;0.61291564
15:19:13:112;-0.36391866;9.844957;0.61291564
15:19:13:112;-0.36391866;9.844957;0.61291564
15:19:13:112;-0.36391866;9.844957;0.61291564
15:19:13:112;-0.36391866;9.844957;0.61291564
15:19:13:112;-0.36391866;9.844957;0.61291564
15:19:13:215;-0.5554548;10.802638;-0.17238252
15:19:13:215;-0.5554548;10.802638;-0.17238252
15:19:13:215;-0.5554548;10.802638;-0.17238252
15:19:13:215;-0.5554548;10.802638;-0.17238252
15:19:13:215;-0.5554548;10.802638;-0.17238252
15:19:13:215;-0.5554548;10.802638;-0.17238252
15:19:13:215;-0.5554548;10.802638;-0.17238252
15:19:13:215;-0.5554548;10.802638;-0.17238252
15:19:13:215;-0.5554548;10.802638;-0.17238252
15:19:13:215;-0.5554548;10.802638;-0.17238252
15:19:13:215;-0.5554548;10.802638;-0.17238252
15:19:13:215;-0.5554548;10.802638;-0.17238252
15:19:13:215;-0.5554548;10.802638;-0.17238252
15:19:13:319;-0.6512229;9.864111;0.6895301
15:19:13:319;-0.6512229;9.864111;0.6895301
15:19:13:319;-0.6512229;9.864111;0.6895301
15:19:13:319;-0.6512229;9.864111;0.6895301
15:19:13:319;-0.6512229;9.864111;0.6895301
15:19:13:319;-0.6512229;9.864111;0.6895301
15:19:13:319;-0.6512229;9.864111;0.6895301
15:19:13:319;-0.6512229;9.864111;0.6895301
15:19:13:319;-0.6512229;9.864111;0.6895301
15:19:13:319;-0.6512229;9.864111;0.6895301
15:19:13:319;-0.6512229;9.864111;0.6895301
15:19:13:319;-0.6512229;9.864111;0.6895301
15:19:13:319;-0.6512229;9.864111;0.6895301
15:19:13:419;-1.0534488;10.496181;0.4405331
15:19:13:419;-1.0534488;10.496181;0.4405331
15:19:13:419;-1.0534488;10.496181;0.4405331
15:19:13:419;-1.0534488;10.496181;0.4405331
15:19:13:419;-1.0534488;10.496181;0.4405331
15:19:13:419;-1.0534488;10.496181;0.4405331
15:19:13:419;-1.0534488;10.496181;0.4405331
15:19:13:419;-1.0534488;10.496181;0.4405331
15:19:13:419;-1.0534488;10.496181;0.4405331
15:19:13:419;-1.0534488;10.496181;0.4405331
15:19:13:419;-1.0534488;10.496181;0.4405331
15:19:13:419;-1.0534488;10.496181;0.4405331
15:19:13:419;-1.0534488;10.496181;0.4405331
15:19:13:419;-1.0534488;10.496181;0.4405331
15:19:13:524;-0.45968673;10.151415;0.24899697
15:19:13:524;-0.45968673;10.151415;0.24899697
15:19:13:524;-0.45968673;10.151415;0.24899697
15:19:13:524;-0.45968673;10.151415;0.24899697
15:19:13:524;-0.45968673;10.151415;0.24899697
15:19:13:524;-0.45968673;10.151415;0.24899697
15:19:13:524;-0.45968673;10.151415;0.24899697
15:19:13:524;-0.45968673;10.151415;0.24899697
15:19:13:524;-0.45968673;10.151415;0.24899697
15:19:13:524;-0.45968673;10.151415;0.24899697
15:19:13:524;-0.45968673;10.151415;0.24899697
15:19:13:524;-0.45968673;10.151415;0.24899697
15:19:13:524;-0.45968673;10.151415;0.24899697
15:19:13:524;-0.45968673;10.151415;0.24899697
15:19:13:524;-0.45968673;10.151415;0.24899697
15:19:13:524;-0.45968673;10.151415;0.24899697
15:19:13:649;-0.49799395;9.5385;0.32561144
15:19:13:649;-0.49799395;9.5385;0.32561144
15:19:13:649;-0.49799395;9.5385;0.32561144
15:19:13:649;-0.49799395;9.5385;0.32561144
15:19:13:649;-0.49799395;9.5385;0.32561144
15:19:13:649;-0.49799395;9.5385;0.32561144
15:19:13:649;-0.49799395;9.5385;0.32561144
15:19:13:649;-0.49799395;9.5385;0.32561144
15:19:13:649;-0.49799395;9.5385;0.32561144
15:19:13:649;-0.49799395;9.5385;0.32561144
15:19:13:649;-0.49799395;9.5385;0.32561144
15:19:13:649;-0.49799395;9.5385;0.32561144
15:19:13:649;-0.49799395;9.5385;0.32561144
15:19:13:753;-0.59376204;9.232041;0.80445176
15:19:13:753;-0.59376204;9.232041;0.80445176
15:19:13:753;-0.59376204;9.232041;0.80445176
15:19:13:753;-0.59376204;9.232041;0.80445176
15:19:13:753;-0.59376204;9.232041;0.80445176
15:19:13:753;-0.59376204;9.232041;0.80445176
15:19:13:753;-0.59376204;9.232041;0.80445176
15:19:13:753;-0.59376204;9.232041;0.80445176
15:19:13:753;-0.59376204;9.232041;0.80445176
15:19:13:753;-0.59376204;9.232041;0.80445176
15:19:13:753;-0.59376204;9.232041;0.80445176
15:19:13:753;-0.59376204;9.232041;0.80445176
15:19:13:753;-0.59376204;9.232041;0.80445176
15:19:13:753;-0.59376204;9.232041;0.80445176
15:19:13:861;-0.45968673;10.381259;0.38307226
15:19:13:861;-0.45968673;10.381259;0.38307226
15:19:13:861;-0.45968673;10.381259;0.38307226
15:19:13:861;-0.45968673;10.381259;0.38307226
15:19:13:861;-0.45968673;10.381259;0.38307226
15:19:13:861;-0.45968673;10.381259;0.38307226
15:19:13:861;-0.45968673;10.381259;0.38307226
15:19:13:861;-0.45968673;10.381259;0.38307226
15:19:13:861;-0.45968673;10.381259;0.38307226
15:19:13:861;-0.45968673;10.381259;0.38307226
15:19:13:861;-0.45968673;10.381259;0.38307226
15:19:13:861;-0.45968673;10.381259;0.38307226
15:19:13:861;-0.45968673;10.381259;0.38307226
15:19:13:861;-0.45968673;10.381259;0.38307226
15:19:13:861;-0.45968673;10.381259;0.38307226
15:19:13:979;-0.19153613;9.481039;0.47884035
15:19:13:979;-0.19153613;9.481039;0.47884035
15:19:13:979;-0.19153613;9.481039;0.47884035
15:19:13:979;-0.19153613;9.481039;0.47884035
15:19:13:979;-0.19153613;9.481039;0.47884035
15:19:13:979;-0.19153613;9.481039;0.47884035
15:19:13:979;-0.19153613;9.481039;0.47884035
15:19:13:979;-0.19153613;9.481039;0.47884035
15:19:13:979;-0.19153613;9.481039;0.47884035
15:19:13:979;-0.19153613;9.481039;0.47884035
15:19:13:979;-0.19153613;9.481039;0.47884035
15:19:13:979;-0.19153613;9.481039;0.47884035
15:19:13:979;-0.19153613;9.481039;0.47884035
15:19:13:979;-0.19153613;9.481039;0.47884035
15:19:14:089;-0.842759;10.936713;0.47884035
15:19:14:089;-0.842759;10.936713;0.47884035
15:19:14:089;-0.842759;10.936713;0.47884035
15:19:14:089;-0.842759;10.936713;0.47884035
15:19:14:089;-0.842759;10.936713;0.47884035
15:19:14:089;-0.842759;10.936713;0.47884035
15:19:14:089;-0.842759;10.936713;0.47884035
15:19:14:089;-0.842759;10.936713;0.47884035
15:19:14:089;-0.842759;10.936713;0.47884035
15:19:14:089;-0.842759;10.936713;0.47884035
15:19:14:089;-0.842759;10.936713;0.47884035
15:19:14:089;-0.842759;10.936713;0.47884035
15:19:14:089;-0.842759;10.936713;0.47884035
15:19:14:089;-0.842759;10.936713;0.47884035
15:19:14:089;-0.842759;10.936713;0.47884035
15:19:14:089;-0.842759;10.936713;0.47884035
15:19:14:216;-0.11492168;11.051635;0.7278373
15:19:14:216;-0.11492168;11.051635;0.7278373
15:19:14:216;-0.11492168;11.051635;0.7278373
15:19:14:216;-0.11492168;11.051635;0.7278373
15:19:14:216;-0.11492168;11.051635;0.7278373
15:19:14:216;-0.11492168;11.051635;0.7278373
15:19:14:216;-0.11492168;11.051635;0.7278373
15:19:14:216;-0.11492168;11.051635;0.7278373
15:19:14:216;-0.11492168;11.051635;0.7278373
15:19:14:216;-0.11492168;11.051635;0.7278373
15:19:14:216;-0.11492168;11.051635;0.7278373
15:19:14:216;-0.11492168;11.051635;0.7278373
15:19:14:216;-0.11492168;11.051635;0.7278373
15:19:14:320;-0.30645782;9.385271;-0.38307226
15:19:14:320;-0.30645782;9.385271;-0.38307226
15:19:14:320;-0.30645782;9.385271;-0.38307226
15:19:14:320;-0.30645782;9.385271;-0.38307226
15:19:14:320;-0.30645782;9.385271;-0.38307226
15:19:14:320;-0.30645782;9.385271;-0.38307226
15:19:14:320;-0.30645782;9.385271;-0.38307226
15:19:14:320;-0.30645782;9.385271;-0.38307226
15:19:14:320;-0.30645782;9.385271;-0.38307226
15:19:14:320;-0.30645782;9.385271;-0.38307226
15:19:14:320;-0.30645782;9.385271;-0.38307226
15:19:14:320;-0.30645782;9.385271;-0.38307226
15:19:14:320;-0.30645782;9.385271;-0.38307226
15:19:14:320;-0.30645782;9.385271;-0.38307226
15:19:14:320;-0.30645782;9.385271;-0.38307226
15:19:14:320;-0.30645782;9.385271;-0.38307226
15:19:14:438;-0.1340753;9.672575;0.05746084
15:19:14:438;-0.1340753;9.672575;0.05746084
15:19:14:438;-0.1340753;9.672575;0.05746084
15:19:14:438;-0.1340753;9.672575;0.05746084
15:19:14:438;-0.1340753;9.672575;0.05746084
15:19:14:438;-0.1340753;9.672575;0.05746084
15:19:14:438;-0.1340753;9.672575;0.05746084
15:19:14:438;-0.1340753;9.672575;0.05746084
15:19:14:438;-0.1340753;9.672575;0.05746084
15:19:14:438;-0.1340753;9.672575;0.05746084
15:19:14:438;-0.1340753;9.672575;0.05746084
15:19:14:438;-0.1340753;9.672575;0.05746084
15:19:14:438;-0.1340753;9.672575;0.05746084
15:19:14:438;-0.1340753;9.672575;0.05746084
15:19:14:438;-0.1340753;9.672575;0.05746084
15:19:14:559;0.17238252;9.212888;-0.2873042
15:19:14:559;0.17238252;9.212888;-0.2873042
15:19:14:559;0.17238252;9.212888;-0.2873042
15:19:14:559;0.17238252;9.212888;-0.2873042
15:19:14:559;0.17238252;9.212888;-0.2873042
15:19:14:559;0.17238252;9.212888;-0.2873042
15:19:14:559;0.17238252;9.212888;-0.2873042
15:19:14:559;0.17238252;9.212888;-0.2873042
15:19:14:559;0.17238252;9.212888;-0.2873042
15:19:14:559;0.17238252;9.212888;-0.2873042
15:19:14:559;0.17238252;9.212888;-0.2873042
15:19:14:559;0.17238252;9.212888;-0.2873042
15:19:14:559;0.17238252;9.212888;-0.2873042
15:19:14:559;0.17238252;9.212888;-0.2873042
15:19:14:559;0.17238252;9.212888;-0.2873042
15:19:14:559;0.17238252;9.212888;-0.2873042
15:19:14:559;0.17238252;9.212888;-0.2873042
15:19:14:694;0.61291564;9.174581;0.22984336
15:19:14:694;0.61291564;9.174581;0.22984336
15:19:14:694;0.61291564;9.174581;0.22984336
15:19:14:694;0.61291564;9.174581;0.22984336
15:19:14:694;0.61291564;9.174581;0.22984336
15:19:14:694;0.61291564;9.174581;0.22984336
15:19:14:694;0.61291564;9.174581;0.22984336
15:19:14:694;0.61291564;9.174581;0.22984336
15:19:14:694;0.61291564;9.174581;0.22984336
15:19:14:694;0.61291564;9.174581;0.22984336
15:19:14:694;0.61291564;9.174581;0.22984336
15:19:14:694;0.61291564;9.174581;0.22984336
15:19:14:694;0.61291564;9.174581;0.22984336
15:19:14:694;0.61291564;9.174581;0.22984336
15:19:14:694;0.61291564;9.174581;0.22984336
15:19:14:805;0.4213795;10.534488;0.21068975
15:19:14:805;0.4213795;10.534488;0.21068975
15:19:14:805;0.4213795;10.534488;0.21068975
15:19:14:805;0.4213795;10.534488;0.21068975
15:19:14:805;0.4213795;10.534488;0.21068975
15:19:14:805;0.4213795;10.534488;0.21068975
15:19:14:805;0.4213795;10.534488;0.21068975
15:19:14:805;0.4213795;10.534488;0.21068975
15:19:14:805;0.4213795;10.534488;0.21068975
15:19:14:805;0.4213795;10.534488;0.21068975
15:19:14:805;0.4213795;10.534488;0.21068975
15:19:14:805;0.4213795;10.534488;0.21068975
15:19:14:805;0.4213795;10.534488;0.21068975
15:19:14:911;-0.38307226;10.898406;0.2681506
15:19:14:911;-0.38307226;10.898406;0.2681506
15:19:14:911;-0.38307226;10.898406;0.2681506
15:19:14:911;-0.38307226;10.898406;0.2681506
15:19:14:911;-0.38307226;10.898406;0.2681506
15:19:14:911;-0.38307226;10.898406;0.2681506
15:19:14:911;-0.38307226;10.898406;0.2681506
15:19:14:911;-0.38307226;10.898406;0.2681506
15:19:14:911;-0.38307226;10.898406;0.2681506
15:19:14:911;-0.38307226;10.898406;0.2681506
15:19:14:911;-0.38307226;10.898406;0.2681506
15:19:14:911;-0.38307226;10.898406;0.2681506
15:19:14:911;-0.38307226;10.898406;0.2681506
15:19:14:911;-0.38307226;10.898406;0.2681506
15:19:14:911;-0.38307226;10.898406;0.2681506
15:19:15:025;0.78529817;9.883265;0.2873042
15:19:15:025;0.78529817;9.883265;0.2873042
15:19:15:025;0.78529817;9.883265;0.2873042
15:19:15:025;0.78529817;9.883265;0.2873042
15:19:15:025;0.78529817;9.883265;0.2873042
15:19:15:025;0.78529817;9.883265;0.2873042
15:19:15:025;0.78529817;9.883265;0.2873042
15:19:15:025;0.78529817;9.883265;0.2873042
15:19:15:025;0.78529817;9.883265;0.2873042
15:19:15:025;0.78529817;9.883265;0.2873042
15:19:15:025;0.78529817;9.883265;0.2873042
15:19:15:025;0.78529817;9.883265;0.2873042
15:19:15:025;0.78529817;9.883265;0.2873042
15:19:15:132;0.19153613;8.829816;-0.11492168
15:19:15:132;0.19153613;8.829816;-0.11492168
15:19:15:132;0.19153613;8.829816;-0.11492168
15:19:15:132;0.19153613;8.829816;-0.11492168
15:19:15:132;0.19153613;8.829816;-0.11492168
15:19:15:132;0.19153613;8.829816;-0.11492168
15:19:15:132;0.19153613;8.829816;-0.11492168
15:19:15:132;0.19153613;8.829816;-0.11492168
15:19:15:132;0.19153613;8.829816;-0.11492168
15:19:15:132;0.19153613;8.829816;-0.11492168
15:19:15:132;0.19153613;8.829816;-0.11492168
15:19:15:132;0.19153613;8.829816;-0.11492168
15:19:15:132;0.19153613;8.829816;-0.11492168
15:19:15:132;0.19153613;8.829816;-0.11492168
15:19:15:132;0.19153613;8.829816;-0.11492168
15:19:15:244;0.32561144;8.695741;-0.6703765
15:19:15:244;0.32561144;8.695741;-0.6703765
15:19:15:244;0.32561144;8.695741;-0.6703765
15:19:15:244;0.32561144;8.695741;-0.6703765
15:19:15:244;0.32561144;8.695741;-0.6703765
15:19:15:244;0.32561144;8.695741;-0.6703765
15:19:15:244;0.32561144;8.695741;-0.6703765
15:19:15:244;0.32561144;8.695741;-0.6703765
15:19:15:244;0.32561144;8.695741;-0.6703765
15:19:15:244;0.32561144;8.695741;-0.6703765
15:19:15:244;0.32561144;8.695741;-0.6703765
15:19:15:244;0.32561144;8.695741;-0.6703765
15:19:15:244;0.32561144;8.695741;-0.6703765
15:19:15:351;-0.17238252;9.212888;1.0342951
15:19:15:351;-0.17238252;9.212888;1.0342951
15:19:15:351;-0.17238252;9.212888;1.0342951
15:19:15:351;-0.17238252;9.212888;1.0342951
15:19:15:351;-0.17238252;9.212888;1.0342951
15:19:15:351;-0.17238252;9.212888;1.0342951
15:19:15:351;-0.17238252;9.212888;1.0342951
15:19:15:351;-0.17238252;9.212888;1.0342951
15:19:15:351;-0.17238252;9.212888;1.0342951
15:19:15:351;-0.17238252;9.212888;1.0342951
15:19:15:351;-0.17238252;9.212888;1.0342951
15:19:15:351;-0.17238252;9.212888;1.0342951
15:19:15:351;-0.17238252;9.212888;1.0342951
15:19:15:351;-0.17238252;9.212888;1.0342951
15:19:15:351;-0.17238252;9.212888;1.0342951
15:19:15:351;-0.17238252;9.212888;1.0342951
15:19:15:351;-0.17238252;9.212888;1.0342951
15:19:15:483;0.038307227;8.734048;0.7469909
15:19:15:483;0.038307227;8.734048;0.7469909
15:19:15:483;0.038307227;8.734048;0.7469909
15:19:15:483;0.038307227;8.734048;0.7469909
15:19:15:483;0.038307227;8.734048;0.7469909
15:19:15:483;0.038307227;8.734048;0.7469909
15:19:15:483;0.038307227;8.734048;0.7469909
15:19:15:483;0.038307227;8.734048;0.7469909
15:19:15:483;0.038307227;8.734048;0.7469909
15:19:15:483;0.038307227;8.734048;0.7469909
15:19:15:483;0.038307227;8.734048;0.7469909
15:19:15:483;0.038307227;8.734048;0.7469909
15:19:15:483;0.038307227;8.734048;0.7469909
15:19:15:483;0.038307227;8.734048;0.7469909
15:19:15:590;-0.90021986;10.783484;0.19153613
15:19:15:590;-0.90021986;10.783484;0.19153613
15:19:15:590;-0.90021986;10.783484;0.19153613
15:19:15:590;-0.90021986;10.783484;0.19153613
15:19:15:590;-0.90021986;10.783484;0.19153613
15:19:15:590;-0.90021986;10.783484;0.19153613
15:19:15:590;-0.90021986;10.783484;0.19153613
15:19:15:590;-0.90021986;10.783484;0.19153613
15:19:15:590;-0.90021986;10.783484;0.19153613
15:19:15:590;-0.90021986;10.783484;0.19153613
15:19:15:590;-0.90021986;10.783484;0.19153613
15:19:15:590;-0.90021986;10.783484;0.19153613
15:19:15:590;-0.90021986;10.783484;0.19153613
15:19:15:590;-0.90021986;10.783484;0.19153613
15:19:15:590;-0.90021986;10.783484;0.19153613
15:19:15:708;-0.24899697;9.634268;0.15322891
15:19:15:708;-0.24899697;9.634268;0.15322891
15:19:15:708;-0.24899697;9.634268;0.15322891
15:19:15:708;-0.24899697;9.634268;0.15322891
15:19:15:708;-0.24899697;9.634268;0.15322891
15:19:15:708;-0.24899697;9.634268;0.15322891
15:19:15:708;-0.24899697;9.634268;0.15322891
15:19:15:708;-0.24899697;9.634268;0.15322891
15:19:15:708;-0.24899697;9.634268;0.15322891
15:19:15:708;-0.24899697;9.634268;0.15322891
15:19:15:708;-0.24899697;9.634268;0.15322891
15:19:15:708;-0.24899697;9.634268;0.15322891
15:19:15:708;-0.24899697;9.634268;0.15322891
15:19:15:708;-0.24899697;9.634268;0.15322891
15:19:15:708;-0.24899697;9.634268;0.15322891
15:19:15:708;-0.24899697;9.634268;0.15322891
15:19:15:708;-0.24899697;9.634268;0.15322891
15:19:15:708;-0.24899697;9.634268;0.15322891
15:19:15:844;-0.21068975;9.768343;0.6512229
15:19:15:844;-0.21068975;9.768343;0.6512229
15:19:15:844;-0.21068975;9.768343;0.6512229
15:19:15:844;-0.21068975;9.768343;0.6512229
15:19:15:844;-0.21068975;9.768343;0.6512229
15:19:15:844;-0.21068975;9.768343;0.6512229
15:19:15:844;-0.21068975;9.768343;0.6512229
15:19:15:844;-0.21068975;9.768343;0.6512229
15:19:15:844;-0.21068975;9.768343;0.6512229
15:19:15:844;-0.21068975;9.768343;0.6512229
15:19:15:844;-0.21068975;9.768343;0.6512229
15:19:15:844;-0.21068975;9.768343;0.6512229
15:19:15:844;-0.21068975;9.768343;0.6512229
15:19:15:844;-0.21068975;9.768343;0.6512229
15:19:15:844;-0.21068975;9.768343;0.6512229
15:19:15:963;0.095768064;7.795521;0.59376204
15:19:15:963;0.095768064;7.795521;0.59376204
15:19:15:963;0.095768064;7.795521;0.59376204
15:19:15:963;0.095768064;7.795521;0.59376204
15:19:15:963;0.095768064;7.795521;0.59376204
15:19:15:963;0.095768064;7.795521;0.59376204
15:19:15:963;0.095768064;7.795521;0.59376204
15:19:15:963;0.095768064;7.795521;0.59376204
15:19:15:963;0.095768064;7.795521;0.59376204
15:19:15:963;0.095768064;7.795521;0.59376204
15:19:15:963;0.095768064;7.795521;0.59376204
15:19:15:963;0.095768064;7.795521;0.59376204
15:19:15:963;0.095768064;7.795521;0.59376204
15:19:16:064;0.4213795;9.423578;-0.1340753
15:19:16:064;0.4213795;9.423578;-0.1340753
15:19:16:064;0.4213795;9.423578;-0.1340753
15:19:16:064;0.4213795;9.423578;-0.1340753
15:19:16:064;0.4213795;9.423578;-0.1340753
15:19:16:064;0.4213795;9.423578;-0.1340753
15:19:16:064;0.4213795;9.423578;-0.1340753
15:19:16:064;0.4213795;9.423578;-0.1340753
15:19:16:064;0.4213795;9.423578;-0.1340753
15:19:16:064;0.4213795;9.423578;-0.1340753
15:19:16:064;0.4213795;9.423578;-0.1340753
15:19:16:064;0.4213795;9.423578;-0.1340753
15:19:16:064;0.4213795;9.423578;-0.1340753
15:19:16:165;0.4213795;10.189722;0.61291564
15:19:16:165;0.4213795;10.189722;0.61291564
15:19:16:165;0.4213795;10.189722;0.61291564
15:19:16:165;0.4213795;10.189722;0.61291564
15:19:16:165;0.4213795;10.189722;0.61291564
15:19:16:165;0.4213795;10.189722;0.61291564
15:19:16:165;0.4213795;10.189722;0.61291564
15:19:16:165;0.4213795;10.189722;0.61291564
15:19:16:165;0.4213795;10.189722;0.61291564
15:19:16:165;0.4213795;10.189722;0.61291564
15:19:16:165;0.4213795;10.189722;0.61291564
15:19:16:165;0.4213795;10.189722;0.61291564
15:19:16:165;0.4213795;10.189722;0.61291564
15:19:16:165;0.4213795;10.189722;0.61291564
15:19:16:165;0.4213795;10.189722;0.61291564
15:19:16:165;0.4213795;10.189722;0.61291564
15:19:16:165;0.4213795;10.189722;0.61291564
15:19:16:297;-0.4405331;11.722012;0.5746084
15:19:16:297;-0.4405331;11.722012;0.5746084
15:19:16:297;-0.4405331;11.722012;0.5746084
15:19:16:297;-0.4405331;11.722012;0.5746084
15:19:16:297;-0.4405331;11.722012;0.5746084
15:19:16:297;-0.4405331;11.722012;0.5746084
15:19:16:297;-0.4405331;11.722012;0.5746084
15:19:16:297;-0.4405331;11.722012;0.5746084
15:19:16:297;-0.4405331;11.722012;0.5746084
15:19:16:297;-0.4405331;11.722012;0.5746084
15:19:16:297;-0.4405331;11.722012;0.5746084
15:19:16:297;-0.4405331;11.722012;0.5746084
15:19:16:297;-0.4405331;11.722012;0.5746084
15:19:16:297;-0.4405331;11.722012;0.5746084
15:19:16:297;-0.4405331;11.722012;0.5746084
15:19:16:418;-0.15322891;9.557653;0.4405331
15:19:16:418;-0.15322891;9.557653;0.4405331
15:19:16:418;-0.15322891;9.557653;0.4405331
15:19:16:418;-0.15322891;9.557653;0.4405331
15:19:16:418;-0.15322891;9.557653;0.4405331
15:19:16:418;-0.15322891;9.557653;0.4405331
15:19:16:418;-0.15322891;9.557653;0.4405331
15:19:16:418;-0.15322891;9.557653;0.4405331
15:19:16:418;-0.15322891;9.557653;0.4405331
15:19:16:418;-0.15322891;9.557653;0.4405331
15:19:16:418;-0.15322891;9.557653;0.4405331
15:19:16:418;-0.15322891;9.557653;0.4405331
15:19:16:418;-0.15322891;9.557653;0.4405331
15:19:16:418;-0.15322891;9.557653;0.4405331
15:19:16:418;-0.15322891;9.557653;0.4405331
15:19:16:418;-0.15322891;9.557653;0.4405331
15:19:16:418;-0.15322891;9.557653;0.4405331
15:19:16:418;-0.15322891;9.557653;0.4405331
15:19:16:556;0.17238252;10.764331;-0.30645782
15:19:16:556;0.17238252;10.764331;-0.30645782
15:19:16:556;0.17238252;10.764331;-0.30645782
15:19:16:556;0.17238252;10.764331;-0.30645782
15:19:16:556;0.17238252;10.764331;-0.30645782
15:19:16:556;0.17238252;10.764331;-0.30645782
15:19:16:556;0.17238252;10.764331;-0.30645782
15:19:16:556;0.17238252;10.764331;-0.30645782
15:19:16:556;0.17238252;10.764331;-0.30645782
15:19:16:556;0.17238252;10.764331;-0.30645782
15:19:16:556;0.17238252;10.764331;-0.30645782
15:19:16:556;0.17238252;10.764331;-0.30645782
15:19:16:556;0.17238252;10.764331;-0.30645782
15:19:16:658;0.7278373;9.691729;0.82360536
15:19:16:658;0.7278373;9.691729;0.82360536
15:19:16:658;0.7278373;9.691729;0.82360536
15:19:16:658;0.7278373;9.691729;0.82360536
15:19:16:658;0.7278373;9.691729;0.82360536
15:19:16:658;0.7278373;9.691729;0.82360536
15:19:16:658;0.7278373;9.691729;0.82360536
15:19:16:658;0.7278373;9.691729;0.82360536
15:19:16:658;0.7278373;9.691729;0.82360536
15:19:16:658;0.7278373;9.691729;0.82360536
15:19:16:658;0.7278373;9.691729;0.82360536
15:19:16:658;0.7278373;9.691729;0.82360536
15:19:16:658;0.7278373;9.691729;0.82360536
15:19:16:658;0.7278373;9.691729;0.82360536
15:19:16:658;0.7278373;9.691729;0.82360536
15:19:16:658;0.7278373;9.691729;0.82360536
15:19:16:658;0.7278373;9.691729;0.82360536
15:19:16:658;0.7278373;9.691729;0.82360536
15:19:16:658;0.7278373;9.691729;0.82360536
15:19:16:805;0.21068975;10.419566;0.63206923
15:19:16:805;0.21068975;10.419566;0.63206923
15:19:16:805;0.21068975;10.419566;0.63206923
15:19:16:805;0.21068975;10.419566;0.63206923
15:19:16:805;0.21068975;10.419566;0.63206923
15:19:16:805;0.21068975;10.419566;0.63206923
15:19:16:805;0.21068975;10.419566;0.63206923
15:19:16:805;0.21068975;10.419566;0.63206923
15:19:16:805;0.21068975;10.419566;0.63206923
15:19:16:805;0.21068975;10.419566;0.63206923
15:19:16:805;0.21068975;10.419566;0.63206923
15:19:16:805;0.21068975;10.419566;0.63206923
15:19:16:805;0.21068975;10.419566;0.63206923
15:19:16:913;0.095768064;9.9790325;0.78529817
15:19:16:913;0.095768064;9.9790325;0.78529817
15:19:16:913;0.095768064;9.9790325;0.78529817
15:19:16:913;0.095768064;9.9790325;0.78529817
15:19:16:913;0.095768064;9.9790325;0.78529817
15:19:16:913;0.095768064;9.9790325;0.78529817
15:19:16:913;0.095768064;9.9790325;0.78529817
15:19:16:913;0.095768064;9.9790325;0.78529817
15:19:16:913;0.095768064;9.9790325;0.78529817
15:19:16:913;0.095768064;9.9790325;0.78529817
15:19:16:913;0.095768064;9.9790325;0.78529817
15:19:16:913;0.095768064;9.9790325;0.78529817
15:19:16:913;0.095768064;9.9790325;0.78529817
15:19:16:913;0.095768064;9.9790325;0.78529817
15:19:16:913;0.095768064;9.9790325;0.78529817
15:19:17:025;-0.2681506;10.783484;0.5363012
15:19:17:025;-0.2681506;10.783484;0.5363012
15:19:17:025;-0.2681506;10.783484;0.5363012
15:19:17:025;-0.2681506;10.783484;0.5363012
15:19:17:025;-0.2681506;10.783484;0.5363012
15:19:17:025;-0.2681506;10.783484;0.5363012
15:19:17:025;-0.2681506;10.783484;0.5363012
15:19:17:025;-0.2681506;10.783484;0.5363012
15:19:17:025;-0.2681506;10.783484;0.5363012
15:19:17:025;-0.2681506;10.783484;0.5363012
15:19:17:025;-0.2681506;10.783484;0.5363012
15:19:17:025;-0.2681506;10.783484;0.5363012
15:19:17:025;-0.2681506;10.783484;0.5363012
15:19:17:132;-0.32561144;10.802638;0.2873042
15:19:17:132;-0.32561144;10.802638;0.2873042
15:19:17:132;-0.32561144;10.802638;0.2873042
15:19:17:132;-0.32561144;10.802638;0.2873042
15:19:17:132;-0.32561144;10.802638;0.2873042
15:19:17:132;-0.32561144;10.802638;0.2873042
15:19:17:132;-0.32561144;10.802638;0.2873042
15:19:17:132;-0.32561144;10.802638;0.2873042
15:19:17:132;-0.32561144;10.802638;0.2873042
15:19:17:132;-0.32561144;10.802638;0.2873042
15:19:17:132;-0.32561144;10.802638;0.2873042
15:19:17:132;-0.32561144;10.802638;0.2873042
15:19:17:132;-0.32561144;10.802638;0.2873042
15:19:17:132;-0.32561144;10.802638;0.2873042
15:19:17:235;-0.34476504;9.710882;1.1300632
15:19:17:235;-0.34476504;9.710882;1.1300632
15:19:17:235;-0.34476504;9.710882;1.1300632
15:19:17:235;-0.34476504;9.710882;1.1300632
15:19:17:235;-0.34476504;9.710882;1.1300632
15:19:17:235;-0.34476504;9.710882;1.1300632
15:19:17:235;-0.34476504;9.710882;1.1300632
15:19:17:235;-0.34476504;9.710882;1.1300632
15:19:17:235;-0.34476504;9.710882;1.1300632
15:19:17:235;-0.34476504;9.710882;1.1300632
15:19:17:235;-0.34476504;9.710882;1.1300632
15:19:17:235;-0.34476504;9.710882;1.1300632
15:19:17:235;-0.34476504;9.710882;1.1300632
15:19:17:338;-0.49799395;10.036493;0.17238252
15:19:17:338;-0.49799395;10.036493;0.17238252
15:19:17:338;-0.49799395;10.036493;0.17238252
15:19:17:338;-0.49799395;10.036493;0.17238252
15:19:17:338;-0.49799395;10.036493;0.17238252
15:19:17:338;-0.49799395;10.036493;0.17238252
15:19:17:338;-0.49799395;10.036493;0.17238252
15:19:17:338;-0.49799395;10.036493;0.17238252
15:19:17:338;-0.49799395;10.036493;0.17238252
15:19:17:338;-0.49799395;10.036493;0.17238252
15:19:17:338;-0.49799395;10.036493;0.17238252
15:19:17:338;-0.49799395;10.036493;0.17238252
15:19:17:338;-0.49799395;10.036493;0.17238252
15:19:17:338;-0.49799395;10.036493;0.17238252
15:19:17:338;-0.49799395;10.036493;0.17238252
15:19:17:454;-0.24899697;9.9790325;0.32561144
15:19:17:454;-0.24899697;9.9790325;0.32561144
15:19:17:454;-0.24899697;9.9790325;0.32561144
15:19:17:454;-0.24899697;9.9790325;0.32561144
15:19:17:454;-0.24899697;9.9790325;0.32561144
15:19:17:454;-0.24899697;9.9790325;0.32561144
15:19:17:454;-0.24899697;9.9790325;0.32561144
15:19:17:454;-0.24899697;9.9790325;0.32561144
15:19:17:454;-0.24899697;9.9790325;0.32561144
15:19:17:454;-0.24899697;9.9790325;0.32561144
15:19:17:454;-0.24899697;9.9790325;0.32561144
15:19:17:454;-0.24899697;9.9790325;0.32561144
15:19:17:454;-0.24899697;9.9790325;0.32561144
15:19:17:454;-0.24899697;9.9790325;0.32561144
15:19:17:454;-0.24899697;9.9790325;0.32561144
15:19:17:454;-0.24899697;9.9790325;0.32561144
15:19:17:454;-0.24899697;9.9790325;0.32561144
15:19:17:454;-0.24899697;9.9790325;0.32561144
15:19:17:601;-0.2681506;9.844957;0.11492168
15:19:17:601;-0.2681506;9.844957;0.11492168
15:19:17:601;-0.2681506;9.844957;0.11492168
15:19:17:601;-0.2681506;9.844957;0.11492168
15:19:17:601;-0.2681506;9.844957;0.11492168
15:19:17:601;-0.2681506;9.844957;0.11492168
15:19:17:601;-0.2681506;9.844957;0.11492168
15:19:17:601;-0.2681506;9.844957;0.11492168
15:19:17:601;-0.2681506;9.844957;0.11492168
15:19:17:601;-0.2681506;9.844957;0.11492168
15:19:17:601;-0.2681506;9.844957;0.11492168
15:19:17:601;-0.2681506;9.844957;0.11492168
15:19:17:601;-0.2681506;9.844957;0.11492168
15:19:17:601;-0.2681506;9.844957;0.11492168
15:19:17:601;-0.2681506;9.844957;0.11492168
15:19:17:713;-0.15322891;9.519346;0.4405331
15:19:17:713;-0.15322891;9.519346;0.4405331
15:19:17:713;-0.15322891;9.519346;0.4405331
15:19:17:713;-0.15322891;9.519346;0.4405331
15:19:17:713;-0.15322891;9.519346;0.4405331
15:19:17:713;-0.15322891;9.519346;0.4405331
15:19:17:713;-0.15322891;9.519346;0.4405331
15:19:17:713;-0.15322891;9.519346;0.4405331
15:19:17:713;-0.15322891;9.519346;0.4405331
15:19:17:713;-0.15322891;9.519346;0.4405331
15:19:17:713;-0.15322891;9.519346;0.4405331
15:19:17:713;-0.15322891;9.519346;0.4405331
15:19:17:713;-0.15322891;9.519346;0.4405331
15:19:17:713;-0.15322891;9.519346;0.4405331
15:19:17:713;-0.15322891;9.519346;0.4405331
15:19:17:830;0.05746084;9.059659;0.2681506
15:19:17:830;0.05746084;9.059659;0.2681506
15:19:17:830;0.05746084;9.059659;0.2681506
15:19:17:830;0.05746084;9.059659;0.2681506
15:19:17:830;0.05746084;9.059659;0.2681506
15:19:17:830;0.05746084;9.059659;0.2681506
15:19:17:830;0.05746084;9.059659;0.2681506
15:19:17:830;0.05746084;9.059659;0.2681506
15:19:17:830;0.05746084;9.059659;0.2681506
15:19:17:830;0.05746084;9.059659;0.2681506
15:19:17:830;0.05746084;9.059659;0.2681506
15:19:17:830;0.05746084;9.059659;0.2681506
15:19:17:830;0.05746084;9.059659;0.2681506
15:19:17:830;0.05746084;9.059659;0.2681506
15:19:17:830;0.05746084;9.059659;0.2681506
15:19:17:952;0.19153613;10.266336;0.7661445
15:19:17:952;0.19153613;10.266336;0.7661445
15:19:17:952;0.19153613;10.266336;0.7661445
15:19:17:952;0.19153613;10.266336;0.7661445
15:19:17:952;0.19153613;10.266336;0.7661445
15:19:17:952;0.19153613;10.266336;0.7661445
15:19:17:952;0.19153613;10.266336;0.7661445
15:19:17:952;0.19153613;10.266336;0.7661445
15:19:17:952;0.19153613;10.266336;0.7661445
15:19:17:952;0.19153613;10.266336;0.7661445
15:19:17:952;0.19153613;10.266336;0.7661445
15:19:17:952;0.19153613;10.266336;0.7661445
15:19:17:952;0.19153613;10.266336;0.7661445
15:19:17:952;0.19153613;10.266336;0.7661445
15:19:17:952;0.19153613;10.266336;0.7661445
15:19:18:066;-0.4213795;10.726024;0.24899697
15:19:18:066;-0.4213795;10.726024;0.24899697
15:19:18:066;-0.4213795;10.726024;0.24899697
15:19:18:066;-0.4213795;10.726024;0.24899697
15:19:18:066;-0.4213795;10.726024;0.24899697
15:19:18:066;-0.4213795;10.726024;0.24899697
15:19:18:066;-0.4213795;10.726024;0.24899697
15:19:18:066;-0.4213795;10.726024;0.24899697
15:19:18:066;-0.4213795;10.726024;0.24899697
15:19:18:066;-0.4213795;10.726024;0.24899697
15:19:18:066;-0.4213795;10.726024;0.24899697
15:19:18:066;-0.4213795;10.726024;0.24899697
15:19:18:066;-0.4213795;10.726024;0.24899697
15:19:18:066;-0.4213795;10.726024;0.24899697
15:19:18:174;-0.21068975;9.404425;0.36391866
15:19:18:174;-0.21068975;9.404425;0.36391866
15:19:18:174;-0.21068975;9.404425;0.36391866
15:19:18:174;-0.21068975;9.404425;0.36391866
15:19:18:174;-0.21068975;9.404425;0.36391866
15:19:18:174;-0.21068975;9.404425;0.36391866
15:19:18:174;-0.21068975;9.404425;0.36391866
15:19:18:174;-0.21068975;9.404425;0.36391866
15:19:18:174;-0.21068975;9.404425;0.36391866
15:19:18:174;-0.21068975;9.404425;0.36391866
15:19:18:174;-0.21068975;9.404425;0.36391866
15:19:18:174;-0.21068975;9.404425;0.36391866
15:19:18:174;-0.21068975;9.404425;0.36391866
15:19:18:174;-0.21068975;9.404425;0.36391866
15:19:18:174;-0.21068975;9.404425;0.36391866
15:19:18:174;-0.21068975;9.404425;0.36391866
15:19:18:174;-0.21068975;9.404425;0.36391866
15:19:18:174;-0.21068975;9.404425;0.36391866
15:19:18:174;-0.21068975;9.404425;0.36391866
15:19:18:323;-0.2681506;10.764331;0.4405331
15:19:18:323;-0.2681506;10.764331;0.4405331
15:19:18:323;-0.2681506;10.764331;0.4405331
15:19:18:323;-0.2681506;10.764331;0.4405331
15:19:18:323;-0.2681506;10.764331;0.4405331
15:19:18:323;-0.2681506;10.764331;0.4405331
15:19:18:323;-0.2681506;10.764331;0.4405331
15:19:18:323;-0.2681506;10.764331;0.4405331
15:19:18:323;-0.2681506;10.764331;0.4405331
15:19:18:323;-0.2681506;10.764331;0.4405331
15:19:18:323;-0.2681506;10.764331;0.4405331
15:19:18:323;-0.2681506;10.764331;0.4405331
15:19:18:323;-0.2681506;10.764331;0.4405331
15:19:18:426;-0.095768064;9.653421;0.40222588
15:19:18:426;-0.095768064;9.653421;0.40222588
15:19:18:426;-0.095768064;9.653421;0.40222588
15:19:18:426;-0.095768064;9.653421;0.40222588
15:19:18:426;-0.095768064;9.653421;0.40222588
15:19:18:426;-0.095768064;9.653421;0.40222588
15:19:18:426;-0.095768064;9.653421;0.40222588
15:19:18:426;-0.095768064;9.653421;0.40222588
15:19:18:426;-0.095768064;9.653421;0.40222588
15:19:18:426;-0.095768064;9.653421;0.40222588
15:19:18:426;-0.095768064;9.653421;0.40222588
15:19:18:426;-0.095768064;9.653421;0.40222588
15:19:18:426;-0.095768064;9.653421;0.40222588
15:19:18:426;-0.095768064;9.653421;0.40222588
15:19:18:426;-0.095768064;9.653421;0.40222588
15:19:18:426;-0.095768064;9.653421;0.40222588
15:19:18:547;-0.32561144;10.208876;0.32561144
15:19:18:547;-0.32561144;10.208876;0.32561144
15:19:18:547;-0.32561144;10.208876;0.32561144
15:19:18:547;-0.32561144;10.208876;0.32561144
15:19:18:547;-0.32561144;10.208876;0.32561144
15:19:18:547;-0.32561144;10.208876;0.32561144
15:19:18:547;-0.32561144;10.208876;0.32561144
15:19:18:547;-0.32561144;10.208876;0.32561144
15:19:18:547;-0.32561144;10.208876;0.32561144
15:19:18:547;-0.32561144;10.208876;0.32561144
15:19:18:547;-0.32561144;10.208876;0.32561144
15:19:18:547;-0.32561144;10.208876;0.32561144
15:19:18:547;-0.32561144;10.208876;0.32561144
15:19:18:547;-0.32561144;10.208876;0.32561144
15:19:18:547;-0.32561144;10.208876;0.32561144
15:19:18:671;0.076614454;10.0748005;0.22984336
15:19:18:671;0.076614454;10.0748005;0.22984336
15:19:18:671;0.076614454;10.0748005;0.22984336
15:19:18:671;0.076614454;10.0748005;0.22984336
15:19:18:671;0.076614454;10.0748005;0.22984336
15:19:18:671;0.076614454;10.0748005;0.22984336
15:19:18:671;0.076614454;10.0748005;0.22984336
15:19:18:671;0.076614454;10.0748005;0.22984336
15:19:18:671;0.076614454;10.0748005;0.22984336
15:19:18:671;0.076614454;10.0748005;0.22984336
15:19:18:671;0.076614454;10.0748005;0.22984336
15:19:18:671;0.076614454;10.0748005;0.22984336
15:19:18:671;0.076614454;10.0748005;0.22984336
15:19:18:671;0.076614454;10.0748005;0.22984336
15:19:18:774;0.40222588;8.293514;0.32561144
15:19:18:774;0.40222588;8.293514;0.32561144
15:19:18:774;0.40222588;8.293514;0.32561144
15:19:18:774;0.40222588;8.293514;0.32561144
15:19:18:774;0.40222588;8.293514;0.32561144
15:19:18:774;0.40222588;8.293514;0.32561144
15:19:18:774;0.40222588;8.293514;0.32561144
15:19:18:774;0.40222588;8.293514;0.32561144
15:19:18:774;0.40222588;8.293514;0.32561144
15:19:18:774;0.40222588;8.293514;0.32561144
15:19:18:774;0.40222588;8.293514;0.32561144
15:19:18:774;0.40222588;8.293514;0.32561144
15:19:18:774;0.40222588;8.293514;0.32561144
15:19:18:878;0.32561144;10.132261;0.24899697
15:19:18:878;0.32561144;10.132261;0.24899697
15:19:18:878;0.32561144;10.132261;0.24899697
15:19:18:878;0.32561144;10.132261;0.24899697
15:19:18:878;0.32561144;10.132261;0.24899697
15:19:18:878;0.32561144;10.132261;0.24899697
15:19:18:878;0.32561144;10.132261;0.24899697
15:19:18:878;0.32561144;10.132261;0.24899697
15:19:18:878;0.32561144;10.132261;0.24899697
15:19:18:878;0.32561144;10.132261;0.24899697
15:19:18:878;0.32561144;10.132261;0.24899697
15:19:18:878;0.32561144;10.132261;0.24899697
15:19:18:878;0.32561144;10.132261;0.24899697
15:19:18:878;0.32561144;10.132261;0.24899697
15:19:18:878;0.32561144;10.132261;0.24899697
15:19:18:878;0.32561144;10.132261;0.24899697
15:19:19:004;-0.5363012;12.047623;-0.7469909
15:19:19:004;-0.5363012;12.047623;-0.7469909
15:19:19:004;-0.5363012;12.047623;-0.7469909
15:19:19:004;-0.5363012;12.047623;-0.7469909
15:19:19:004;-0.5363012;12.047623;-0.7469909
15:19:19:004;-0.5363012;12.047623;-0.7469909
15:19:19:004;-0.5363012;12.047623;-0.7469909
15:19:19:004;-0.5363012;12.047623;-0.7469909
15:19:19:004;-0.5363012;12.047623;-0.7469909
15:19:19:004;-0.5363012;12.047623;-0.7469909
15:19:19:004;-0.5363012;12.047623;-0.7469909
15:19:19:004;-0.5363012;12.047623;-0.7469909
15:19:19:004;-0.5363012;12.047623;-0.7469909
15:19:19:004;-0.5363012;12.047623;-0.7469909
15:19:19:004;-0.5363012;12.047623;-0.7469909
15:19:19:118;-0.47884035;9.308656;-0.40222588
15:19:19:118;-0.47884035;9.308656;-0.40222588
15:19:19:118;-0.47884035;9.308656;-0.40222588
15:19:19:118;-0.47884035;9.308656;-0.40222588
15:19:19:118;-0.47884035;9.308656;-0.40222588
15:19:19:118;-0.47884035;9.308656;-0.40222588
15:19:19:118;-0.47884035;9.308656;-0.40222588
15:19:19:118;-0.47884035;9.308656;-0.40222588
15:19:19:118;-0.47884035;9.308656;-0.40222588
15:19:19:118;-0.47884035;9.308656;-0.40222588
15:19:19:118;-0.47884035;9.308656;-0.40222588
15:19:19:118;-0.47884035;9.308656;-0.40222588
15:19:19:118;-0.47884035;9.308656;-0.40222588
15:19:19:221;0.5363012;9.768343;-0.32561144
15:19:19:221;0.5363012;9.768343;-0.32561144
15:19:19:221;0.5363012;9.768343;-0.32561144
15:19:19:221;0.5363012;9.768343;-0.32561144
15:19:19:221;0.5363012;9.768343;-0.32561144
15:19:19:221;0.5363012;9.768343;-0.32561144
15:19:19:221;0.5363012;9.768343;-0.32561144
15:19:19:221;0.5363012;9.768343;-0.32561144
15:19:19:221;0.5363012;9.768343;-0.32561144
15:19:19:221;0.5363012;9.768343;-0.32561144
15:19:19:221;0.5363012;9.768343;-0.32561144
15:19:19:221;0.5363012;9.768343;-0.32561144
15:19:19:221;0.5363012;9.768343;-0.32561144
15:19:19:221;0.5363012;9.768343;-0.32561144
15:19:19:221;0.5363012;9.768343;-0.32561144
15:19:19:221;0.5363012;9.768343;-0.32561144
15:19:19:350;-0.1340753;10.208876;0.4405331
15:19:19:350;-0.1340753;10.208876;0.4405331
15:19:19:350;-0.1340753;10.208876;0.4405331
15:19:19:350;-0.1340753;10.208876;0.4405331
15:19:19:350;-0.1340753;10.208876;0.4405331
15:19:19:350;-0.1340753;10.208876;0.4405331
15:19:19:350;-0.1340753;10.208876;0.4405331
15:19:19:350;-0.1340753;10.208876;0.4405331
15:19:19:350;-0.1340753;10.208876;0.4405331
15:19:19:350;-0.1340753;10.208876;0.4405331
15:19:19:350;-0.1340753;10.208876;0.4405331
15:19:19:350;-0.1340753;10.208876;0.4405331
15:19:19:350;-0.1340753;10.208876;0.4405331
15:19:19:350;-0.1340753;10.208876;0.4405331
15:19:19:454;-0.095768064;10.01734;0.19153613
15:19:19:454;-0.095768064;10.01734;0.19153613
15:19:19:454;-0.095768064;10.01734;0.19153613
15:19:19:454;-0.095768064;10.01734;0.19153613
15:19:19:454;-0.095768064;10.01734;0.19153613
15:19:19:454;-0.095768064;10.01734;0.19153613
15:19:19:454;-0.095768064;10.01734;0.19153613
15:19:19:454;-0.095768064;10.01734;0.19153613
15:19:19:454;-0.095768064;10.01734;0.19153613
15:19:19:454;-0.095768064;10.01734;0.19153613
15:19:19:454;-0.095768064;10.01734;0.19153613
15:19:19:454;-0.095768064;10.01734;0.19153613
15:19:19:454;-0.095768064;10.01734;0.19153613
15:19:19:555;0.076614454;10.477027;0.05746084
15:19:19:555;0.076614454;10.477027;0.05746084
15:19:19:555;0.076614454;10.477027;0.05746084
15:19:19:555;0.076614454;10.477027;0.05746084
15:19:19:555;0.076614454;10.477027;0.05746084
15:19:19:555;0.076614454;10.477027;0.05746084
15:19:19:555;0.076614454;10.477027;0.05746084
15:19:19:555;0.076614454;10.477027;0.05746084
15:19:19:555;0.076614454;10.477027;0.05746084
15:19:19:555;0.076614454;10.477027;0.05746084
15:19:19:555;0.076614454;10.477027;0.05746084
15:19:19:555;0.076614454;10.477027;0.05746084
15:19:19:555;0.076614454;10.477027;0.05746084
15:19:19:555;0.076614454;10.477027;0.05746084
15:19:19:555;0.076614454;10.477027;0.05746084
15:19:19:672;0.15322891;9.959879;0.05746084
15:19:19:672;0.15322891;9.959879;0.05746084
15:19:19:672;0.15322891;9.959879;0.05746084
15:19:19:672;0.15322891;9.959879;0.05746084
15:19:19:672;0.15322891;9.959879;0.05746084
15:19:19:672;0.15322891;9.959879;0.05746084
15:19:19:672;0.15322891;9.959879;0.05746084
15:19:19:672;0.15322891;9.959879;0.05746084
15:19:19:672;0.15322891;9.959879;0.05746084
15:19:19:672;0.15322891;9.959879;0.05746084
15:19:19:672;0.15322891;9.959879;0.05746084
15:19:19:672;0.15322891;9.959879;0.05746084
15:19:19:672;0.15322891;9.959879;0.05746084
15:19:19:672;0.15322891;9.959879;0.05746084
15:19:19:672;0.15322891;9.959879;0.05746084
15:19:19:790;-0.36391866;10.6877165;0.038307227
15:19:19:790;-0.36391866;10.6877165;0.038307227
15:19:19:790;-0.36391866;10.6877165;0.038307227
15:19:19:790;-0.36391866;10.6877165;0.038307227
15:19:19:790;-0.36391866;10.6877165;0.038307227
15:19:19:790;-0.36391866;10.6877165;0.038307227
15:19:19:790;-0.36391866;10.6877165;0.038307227
15:19:19:790;-0.36391866;10.6877165;0.038307227
15:19:19:790;-0.36391866;10.6877165;0.038307227
15:19:19:790;-0.36391866;10.6877165;0.038307227
15:19:19:790;-0.36391866;10.6877165;0.038307227
15:19:19:790;-0.36391866;10.6877165;0.038307227
15:19:19:790;-0.36391866;10.6877165;0.038307227
15:19:19:790;-0.36391866;10.6877165;0.038307227
15:19:19:790;-0.36391866;10.6877165;0.038307227
15:19:19:909;0.019153614;9.653421;0.2873042
15:19:19:909;0.019153614;9.653421;0.2873042
15:19:19:909;0.019153614;9.653421;0.2873042
15:19:19:909;0.019153614;9.653421;0.2873042
15:19:19:909;0.019153614;9.653421;0.2873042
15:19:19:909;0.019153614;9.653421;0.2873042
15:19:19:909;0.019153614;9.653421;0.2873042
15:19:19:909;0.019153614;9.653421;0.2873042
15:19:19:909;0.019153614;9.653421;0.2873042
15:19:19:909;0.019153614;9.653421;0.2873042
15:19:19:909;0.019153614;9.653421;0.2873042
15:19:19:909;0.019153614;9.653421;0.2873042
15:19:19:909;0.019153614;9.653421;0.2873042
15:19:19:909;0.019153614;9.653421;0.2873042
15:19:19:909;0.019153614;9.653421;0.2873042
15:19:20:026;-0.45968673;10.170568;0.1340753
15:19:20:026;-0.45968673;10.170568;0.1340753
15:19:20:026;-0.45968673;10.170568;0.1340753
15:19:20:026;-0.45968673;10.170568;0.1340753
15:19:20:026;-0.45968673;10.170568;0.1340753
15:19:20:026;-0.45968673;10.170568;0.1340753
15:19:20:026;-0.45968673;10.170568;0.1340753
15:19:20:026;-0.45968673;10.170568;0.1340753
15:19:20:026;-0.45968673;10.170568;0.1340753
15:19:20:026;-0.45968673;10.170568;0.1340753
15:19:20:026;-0.45968673;10.170568;0.1340753
15:19:20:026;-0.45968673;10.170568;0.1340753
15:19:20:026;-0.45968673;10.170568;0.1340753
15:19:20:026;-0.45968673;10.170568;0.1340753
15:19:20:026;-0.45968673;10.170568;0.1340753
15:19:20:026;-0.45968673;10.170568;0.1340753
15:19:20:026;-0.45968673;10.170568;0.1340753
15:19:20:026;-0.45968673;10.170568;0.1340753
15:19:20:026;-0.45968673;10.170568;0.1340753
15:19:20:026;-0.45968673;10.170568;0.1340753
15:19:20:184;-0.61291564;10.28549;0.40222588
15:19:20:184;-0.61291564;10.28549;0.40222588
15:19:20:184;-0.61291564;10.28549;0.40222588
15:19:20:184;-0.61291564;10.28549;0.40222588
15:19:20:184;-0.61291564;10.28549;0.40222588
15:19:20:184;-0.61291564;10.28549;0.40222588
15:19:20:184;-0.61291564;10.28549;0.40222588
15:19:20:184;-0.61291564;10.28549;0.40222588
15:19:20:184;-0.61291564;10.28549;0.40222588
15:19:20:184;-0.61291564;10.28549;0.40222588
15:19:20:184;-0.61291564;10.28549;0.40222588
15:19:20:184;-0.61291564;10.28549;0.40222588
15:19:20:184;-0.61291564;10.28549;0.40222588
15:19:20:184;-0.61291564;10.28549;0.40222588
15:19:20:294;-0.90021986;10.342952;0.2873042
15:19:20:294;-0.90021986;10.342952;0.2873042
15:19:20:294;-0.90021986;10.342952;0.2873042
15:19:20:294;-0.90021986;10.342952;0.2873042
15:19:20:294;-0.90021986;10.342952;0.2873042
15:19:20:294;-0.90021986;10.342952;0.2873042
15:19:20:294;-0.90021986;10.342952;0.2873042
15:19:20:294;-0.90021986;10.342952;0.2873042
15:19:20:294;-0.90021986;10.342952;0.2873042
15:19:20:294;-0.90021986;10.342952;0.2873042
15:19:20:294;-0.90021986;10.342952;0.2873042
15:19:20:294;-0.90021986;10.342952;0.2873042
15:19:20:294;-0.90021986;10.342952;0.2873042
15:19:20:294;-0.90021986;10.342952;0.2873042
15:19:20:294;-0.90021986;10.342952;0.2873042
15:19:20:410;-0.45968673;10.247183;0.40222588
15:19:20:410;-0.45968673;10.247183;0.40222588
15:19:20:410;-0.45968673;10.247183;0.40222588
15:19:20:410;-0.45968673;10.247183;0.40222588
15:19:20:410;-0.45968673;10.247183;0.40222588
15:19:20:410;-0.45968673;10.247183;0.40222588
15:19:20:410;-0.45968673;10.247183;0.40222588
15:19:20:410;-0.45968673;10.247183;0.40222588
15:19:20:410;-0.45968673;10.247183;0.40222588
15:19:20:410;-0.45968673;10.247183;0.40222588
15:19:20:410;-0.45968673;10.247183;0.40222588
15:19:20:410;-0.45968673;10.247183;0.40222588
15:19:20:410;-0.45968673;10.247183;0.40222588
15:19:20:410;-0.45968673;10.247183;0.40222588
15:19:20:410;-0.45968673;10.247183;0.40222588
15:19:20:529;-0.40222588;10.228029;-0.34476504
15:19:20:529;-0.40222588;10.228029;-0.34476504
15:19:20:529;-0.40222588;10.228029;-0.34476504
15:19:20:529;-0.40222588;10.228029;-0.34476504
15:19:20:529;-0.40222588;10.228029;-0.34476504
15:19:20:529;-0.40222588;10.228029;-0.34476504
15:19:20:529;-0.40222588;10.228029;-0.34476504
15:19:20:529;-0.40222588;10.228029;-0.34476504
15:19:20:529;-0.40222588;10.228029;-0.34476504
15:19:20:529;-0.40222588;10.228029;-0.34476504
15:19:20:529;-0.40222588;10.228029;-0.34476504
15:19:20:529;-0.40222588;10.228029;-0.34476504
15:19:20:529;-0.40222588;10.228029;-0.34476504
15:19:20:529;-0.40222588;10.228029;-0.34476504
15:19:20:529;-0.40222588;10.228029;-0.34476504
15:19:20:529;-0.40222588;10.228029;-0.34476504
15:19:20:650;-0.15322891;10.266336;0.4213795
15:19:20:650;-0.15322891;10.266336;0.4213795
15:19:20:650;-0.15322891;10.266336;0.4213795
15:19:20:650;-0.15322891;10.266336;0.4213795
15:19:20:650;-0.15322891;10.266336;0.4213795
15:19:20:650;-0.15322891;10.266336;0.4213795
15:19:20:650;-0.15322891;10.266336;0.4213795
15:19:20:650;-0.15322891;10.266336;0.4213795
15:19:20:650;-0.15322891;10.266336;0.4213795
15:19:20:650;-0.15322891;10.266336;0.4213795
15:19:20:650;-0.15322891;10.266336;0.4213795
15:19:20:650;-0.15322891;10.266336;0.4213795
15:19:20:650;-0.15322891;10.266336;0.4213795
15:19:20:650;-0.15322891;10.266336;0.4213795
15:19:20:650;-0.15322891;10.266336;0.4213795
15:19:20:767;-0.076614454;10.228029;-0.1340753
15:19:20:767;-0.076614454;10.228029;-0.1340753
15:19:20:767;-0.076614454;10.228029;-0.1340753
15:19:20:767;-0.076614454;10.228029;-0.1340753
15:19:20:767;-0.076614454;10.228029;-0.1340753
15:19:20:767;-0.076614454;10.228029;-0.1340753
15:19:20:767;-0.076614454;10.228029;-0.1340753
15:19:20:767;-0.076614454;10.228029;-0.1340753
15:19:20:767;-0.076614454;10.228029;-0.1340753
15:19:20:767;-0.076614454;10.228029;-0.1340753
15:19:20:767;-0.076614454;10.228029;-0.1340753
15:19:20:767;-0.076614454;10.228029;-0.1340753
15:19:20:767;-0.076614454;10.228029;-0.1340753
15:19:20:767;-0.076614454;10.228029;-0.1340753
15:19:20:767;-0.076614454;10.228029;-0.1340753
15:19:20:888;-0.4213795;9.672575;-0.22984336
15:19:20:888;-0.4213795;9.672575;-0.22984336
15:19:20:888;-0.4213795;9.672575;-0.22984336
15:19:20:888;-0.4213795;9.672575;-0.22984336
15:19:20:888;-0.4213795;9.672575;-0.22984336
15:19:20:888;-0.4213795;9.672575;-0.22984336
15:19:20:888;-0.4213795;9.672575;-0.22984336
15:19:20:888;-0.4213795;9.672575;-0.22984336
15:19:20:888;-0.4213795;9.672575;-0.22984336
15:19:20:888;-0.4213795;9.672575;-0.22984336
15:19:20:888;-0.4213795;9.672575;-0.22984336
15:19:20:888;-0.4213795;9.672575;-0.22984336
15:19:20:888;-0.4213795;9.672575;-0.22984336
15:19:20:888;-0.4213795;9.672575;-0.22984336
15:19:20:888;-0.4213795;9.672575;-0.22984336
15:19:20:888;-0.4213795;9.672575;-0.22984336
15:19:21:009;-0.019153614;9.308656;-0.076614454
15:19:21:009;-0.019153614;9.308656;-0.076614454
15:19:21:009;-0.019153614;9.308656;-0.076614454
15:19:21:009;-0.019153614;9.308656;-0.076614454
15:19:21:009;-0.019153614;9.308656;-0.076614454
15:19:21:009;-0.019153614;9.308656;-0.076614454
15:19:21:009;-0.019153614;9.308656;-0.076614454
15:19:21:009;-0.019153614;9.308656;-0.076614454
15:19:21:009;-0.019153614;9.308656;-0.076614454
15:19:21:009;-0.019153614;9.308656;-0.076614454
15:19:21:009;-0.019153614;9.308656;-0.076614454
15:19:21:009;-0.019153614;9.308656;-0.076614454
15:19:21:009;-0.019153614;9.308656;-0.076614454
15:19:21:009;-0.019153614;9.308656;-0.076614454
15:19:21:123;-0.15322891;9.672575;-0.05746084
15:19:21:123;-0.15322891;9.672575;-0.05746084
15:19:21:123;-0.15322891;9.672575;-0.05746084
15:19:21:123;-0.15322891;9.672575;-0.05746084
15:19:21:123;-0.15322891;9.672575;-0.05746084
15:19:21:123;-0.15322891;9.672575;-0.05746084
15:19:21:123;-0.15322891;9.672575;-0.05746084
15:19:21:123;-0.15322891;9.672575;-0.05746084
15:19:21:123;-0.15322891;9.672575;-0.05746084
15:19:21:123;-0.15322891;9.672575;-0.05746084
15:19:21:123;-0.15322891;9.672575;-0.05746084
15:19:21:123;-0.15322891;9.672575;-0.05746084
15:19:21:123;-0.15322891;9.672575;-0.05746084
15:19:21:123;-0.15322891;9.672575;-0.05746084
15:19:21:123;-0.15322891;9.672575;-0.05746084
15:19:21:123;-0.15322891;9.672575;-0.05746084
15:19:21:123;-0.15322891;9.672575;-0.05746084
15:19:21:123;-0.15322891;9.672575;-0.05746084
15:19:21:265;-0.2873042;9.557653;0.24899697
15:19:21:265;-0.2873042;9.557653;0.24899697
15:19:21:265;-0.2873042;9.557653;0.24899697
15:19:21:265;-0.2873042;9.557653;0.24899697
15:19:21:265;-0.2873042;9.557653;0.24899697
15:19:21:265;-0.2873042;9.557653;0.24899697
15:19:21:265;-0.2873042;9.557653;0.24899697
15:19:21:265;-0.2873042;9.557653;0.24899697
15:19:21:265;-0.2873042;9.557653;0.24899697
15:19:21:265;-0.2873042;9.557653;0.24899697
15:19:21:265;-0.2873042;9.557653;0.24899697
15:19:21:265;-0.2873042;9.557653;0.24899697
15:19:21:265;-0.2873042;9.557653;0.24899697
15:19:21:265;-0.2873042;9.557653;0.24899697
15:19:21:265;-0.2873042;9.557653;0.24899697
15:19:21:265;-0.2873042;9.557653;0.24899697
15:19:21:384;-0.11492168;9.730036;0.1340753
15:19:21:384;-0.11492168;9.730036;0.1340753
15:19:21:384;-0.11492168;9.730036;0.1340753
15:19:21:384;-0.11492168;9.730036;0.1340753
15:19:21:384;-0.11492168;9.730036;0.1340753
15:19:21:384;-0.11492168;9.730036;0.1340753
15:19:21:384;-0.11492168;9.730036;0.1340753
15:19:21:384;-0.11492168;9.730036;0.1340753
15:19:21:384;-0.11492168;9.730036;0.1340753
15:19:21:384;-0.11492168;9.730036;0.1340753
15:19:21:384;-0.11492168;9.730036;0.1340753
15:19:21:384;-0.11492168;9.730036;0.1340753
15:19:21:384;-0.11492168;9.730036;0.1340753
15:19:21:384;-0.11492168;9.730036;0.1340753
15:19:21:384;-0.11492168;9.730036;0.1340753
15:19:21:501;0.038307227;9.9790325;-0.40222588
15:19:21:501;0.038307227;9.9790325;-0.40222588
15:19:21:501;0.038307227;9.9790325;-0.40222588
15:19:21:501;0.038307227;9.9790325;-0.40222588
15:19:21:501;0.038307227;9.9790325;-0.40222588
15:19:21:501;0.038307227;9.9790325;-0.40222588
15:19:21:501;0.038307227;9.9790325;-0.40222588
15:19:21:501;0.038307227;9.9790325;-0.40222588
15:19:21:501;0.038307227;9.9790325;-0.40222588
15:19:21:501;0.038307227;9.9790325;-0.40222588
15:19:21:501;0.038307227;9.9790325;-0.40222588
15:19:21:501;0.038307227;9.9790325;-0.40222588
15:19:21:501;0.038307227;9.9790325;-0.40222588
15:19:21:501;0.038307227;9.9790325;-0.40222588
15:19:21:501;0.038307227;9.9790325;-0.40222588
15:19:21:621;-0.15322891;9.998186;0.24899697
15:19:21:621;-0.15322891;9.998186;0.24899697
15:19:21:621;-0.15322891;9.998186;0.24899697
15:19:21:621;-0.15322891;9.998186;0.24899697
15:19:21:621;-0.15322891;9.998186;0.24899697
15:19:21:621;-0.15322891;9.998186;0.24899697
15:19:21:621;-0.15322891;9.998186;0.24899697
15:19:21:621;-0.15322891;9.998186;0.24899697
15:19:21:621;-0.15322891;9.998186;0.24899697
15:19:21:621;-0.15322891;9.998186;0.24899697
15:19:21:621;-0.15322891;9.998186;0.24899697
15:19:21:621;-0.15322891;9.998186;0.24899697
15:19:21:621;-0.15322891;9.998186;0.24899697
15:19:21:621;-0.15322891;9.998186;0.24899697
15:19:21:621;-0.15322891;9.998186;0.24899697
15:19:21:740;-0.80445176;10.170568;-0.45968673
15:19:21:740;-0.80445176;10.170568;-0.45968673
15:19:21:740;-0.80445176;10.170568;-0.45968673
15:19:21:740;-0.80445176;10.170568;-0.45968673
15:19:21:740;-0.80445176;10.170568;-0.45968673
15:19:21:740;-0.80445176;10.170568;-0.45968673
15:19:21:740;-0.80445176;10.170568;-0.45968673
15:19:21:740;-0.80445176;10.170568;-0.45968673
15:19:21:740;-0.80445176;10.170568;-0.45968673
15:19:21:740;-0.80445176;10.170568;-0.45968673
15:19:21:740;-0.80445176;10.170568;-0.45968673
15:19:21:740;-0.80445176;10.170568;-0.45968673
15:19:21:740;-0.80445176;10.170568;-0.45968673
15:19:21:740;-0.80445176;10.170568;-0.45968673
15:19:21:740;-0.80445176;10.170568;-0.45968673
15:19:21:740;-0.80445176;10.170568;-0.45968673
15:19:21:860;-0.49799395;10.170568;-0.47884035
15:19:21:860;-0.49799395;10.170568;-0.47884035
15:19:21:860;-0.49799395;10.170568;-0.47884035
15:19:21:860;-0.49799395;10.170568;-0.47884035
15:19:21:860;-0.49799395;10.170568;-0.47884035
15:19:21:860;-0.49799395;10.170568;-0.47884035
15:19:21:860;-0.49799395;10.170568;-0.47884035
15:19:21:860;-0.49799395;10.170568;-0.47884035
15:19:21:860;-0.49799395;10.170568;-0.47884035
15:19:21:860;-0.49799395;10.170568;-0.47884035
15:19:21:860;-0.49799395;10.170568;-0.47884035
15:19:21:860;-0.49799395;10.170568;-0.47884035
15:19:21:860;-0.49799395;10.170568;-0.47884035
15:19:21:860;-0.49799395;10.170568;-0.47884035
15:19:21:860;-0.49799395;10.170568;-0.47884035
15:19:21:979;-0.30645782;10.189722;-0.34476504
15:19:21:979;-0.30645782;10.189722;-0.34476504
15:19:21:979;-0.30645782;10.189722;-0.34476504
15:19:21:979;-0.30645782;10.189722;-0.34476504
15:19:21:979;-0.30645782;10.189722;-0.34476504
15:19:21:979;-0.30645782;10.189722;-0.34476504
15:19:21:979;-0.30645782;10.189722;-0.34476504
15:19:21:979;-0.30645782;10.189722;-0.34476504
15:19:21:979;-0.30645782;10.189722;-0.34476504
15:19:21:979;-0.30645782;10.189722;-0.34476504
15:19:21:979;-0.30645782;10.189722;-0.34476504
15:19:21:979;-0.30645782;10.189722;-0.34476504
15:19:21:979;-0.30645782;10.189722;-0.34476504
15:19:21:979;-0.30645782;10.189722;-0.34476504
15:19:21:979;-0.30645782;10.189722;-0.34476504
15:19:22:097;0.2681506;10.323798;-0.63206923
15:19:22:097;0.2681506;10.323798;-0.63206923
15:19:22:097;0.2681506;10.323798;-0.63206923
15:19:22:097;0.2681506;10.323798;-0.63206923
15:19:22:097;0.2681506;10.323798;-0.63206923
15:19:22:097;0.2681506;10.323798;-0.63206923
15:19:22:097;0.2681506;10.323798;-0.63206923
15:19:22:097;0.2681506;10.323798;-0.63206923
15:19:22:097;0.2681506;10.323798;-0.63206923
15:19:22:097;0.2681506;10.323798;-0.63206923
15:19:22:097;0.2681506;10.323798;-0.63206923
15:19:22:097;0.2681506;10.323798;-0.63206923
15:19:22:097;0.2681506;10.323798;-0.63206923
15:19:22:097;0.2681506;10.323798;-0.63206923
15:19:22:209;-0.19153613;9.730036;-0.05746084
15:19:22:209;-0.19153613;9.730036;-0.05746084
15:19:22:209;-0.19153613;9.730036;-0.05746084
15:19:22:209;-0.19153613;9.730036;-0.05746084
15:19:22:209;-0.19153613;9.730036;-0.05746084
15:19:22:209;-0.19153613;9.730036;-0.05746084
15:19:22:209;-0.19153613;9.730036;-0.05746084
15:19:22:209;-0.19153613;9.730036;-0.05746084
15:19:22:209;-0.19153613;9.730036;-0.05746084
15:19:22:209;-0.19153613;9.730036;-0.05746084
15:19:22:209;-0.19153613;9.730036;-0.05746084
15:19:22:209;-0.19153613;9.730036;-0.05746084
15:19:22:209;-0.19153613;9.730036;-0.05746084
15:19:22:209;-0.19153613;9.730036;-0.05746084
15:19:22:316;-0.19153613;9.634268;0.15322891
15:19:22:316;-0.19153613;9.634268;0.15322891
15:19:22:316;-0.19153613;9.634268;0.15322891
15:19:22:316;-0.19153613;9.634268;0.15322891
15:19:22:316;-0.19153613;9.634268;0.15322891
15:19:22:316;-0.19153613;9.634268;0.15322891
15:19:22:316;-0.19153613;9.634268;0.15322891
15:19:22:316;-0.19153613;9.634268;0.15322891
15:19:22:316;-0.19153613;9.634268;0.15322891
15:19:22:316;-0.19153613;9.634268;0.15322891
15:19:22:316;-0.19153613;9.634268;0.15322891
15:19:22:316;-0.19153613;9.634268;0.15322891
15:19:22:316;-0.19153613;9.634268;0.15322891
15:19:22:316;-0.19153613;9.634268;0.15322891
15:19:22:316;-0.19153613;9.634268;0.15322891
15:19:22:316;-0.19153613;9.634268;0.15322891
15:19:22:438;-0.076614454;10.093954;-0.5746084
15:19:22:438;-0.076614454;10.093954;-0.5746084
15:19:22:438;-0.076614454;10.093954;-0.5746084
15:19:22:438;-0.076614454;10.093954;-0.5746084
15:19:22:438;-0.076614454;10.093954;-0.5746084
15:19:22:438;-0.076614454;10.093954;-0.5746084
15:19:22:438;-0.076614454;10.093954;-0.5746084
15:19:22:438;-0.076614454;10.093954;-0.5746084
15:19:22:438;-0.076614454;10.093954;-0.5746084
15:19:22:438;-0.076614454;10.093954;-0.5746084
15:19:22:438;-0.076614454;10.093954;-0.5746084
15:19:22:438;-0.076614454;10.093954;-0.5746084
15:19:22:438;-0.076614454;10.093954;-0.5746084
15:19:22:438;-0.076614454;10.093954;-0.5746084
15:19:22:438;-0.076614454;10.093954;-0.5746084
15:19:22:438;-0.076614454;10.093954;-0.5746084
15:19:22:438;-0.076614454;10.093954;-0.5746084
15:19:22:438;-0.076614454;10.093954;-0.5746084
15:19:22:438;-0.076614454;10.093954;-0.5746084
15:19:22:591;-0.19153613;9.80665;0.30645782
15:19:22:591;-0.19153613;9.80665;0.30645782
15:19:22:591;-0.19153613;9.80665;0.30645782
15:19:22:591;-0.19153613;9.80665;0.30645782
15:19:22:591;-0.19153613;9.80665;0.30645782
15:19:22:591;-0.19153613;9.80665;0.30645782
15:19:22:591;-0.19153613;9.80665;0.30645782
15:19:22:591;-0.19153613;9.80665;0.30645782
15:19:22:591;-0.19153613;9.80665;0.30645782
15:19:22:591;-0.19153613;9.80665;0.30645782
15:19:22:591;-0.19153613;9.80665;0.30645782
15:19:22:591;-0.19153613;9.80665;0.30645782
15:19:22:591;-0.19153613;9.80665;0.30645782
15:19:22:693;-0.22984336;9.5385;0.11492168
15:19:22:693;-0.22984336;9.5385;0.11492168
15:19:22:693;-0.22984336;9.5385;0.11492168
15:19:22:693;-0.22984336;9.5385;0.11492168
15:19:22:693;-0.22984336;9.5385;0.11492168
15:19:22:693;-0.22984336;9.5385;0.11492168
15:19:22:693;-0.22984336;9.5385;0.11492168
15:19:22:693;-0.22984336;9.5385;0.11492168
15:19:22:693;-0.22984336;9.5385;0.11492168
15:19:22:693;-0.22984336;9.5385;0.11492168
15:19:22:693;-0.22984336;9.5385;0.11492168
15:19:22:693;-0.22984336;9.5385;0.11492168
15:19:22:693;-0.22984336;9.5385;0.11492168
15:19:22:693;-0.22984336;9.5385;0.11492168
15:19:22:693;-0.22984336;9.5385;0.11492168
15:19:22:812;-0.7278373;10.534488;-0.1340753
15:19:22:812;-0.7278373;10.534488;-0.1340753
15:19:22:812;-0.7278373;10.534488;-0.1340753
15:19:22:812;-0.7278373;10.534488;-0.1340753
15:19:22:812;-0.7278373;10.534488;-0.1340753
15:19:22:812;-0.7278373;10.534488;-0.1340753
15:19:22:812;-0.7278373;10.534488;-0.1340753
15:19:22:812;-0.7278373;10.534488;-0.1340753
15:19:22:812;-0.7278373;10.534488;-0.1340753
15:19:22:812;-0.7278373;10.534488;-0.1340753
15:19:22:812;-0.7278373;10.534488;-0.1340753
15:19:22:812;-0.7278373;10.534488;-0.1340753
15:19:22:812;-0.7278373;10.534488;-0.1340753
15:19:22:812;-0.7278373;10.534488;-0.1340753
15:19:22:812;-0.7278373;10.534488;-0.1340753
15:19:22:812;-0.7278373;10.534488;-0.1340753
15:19:22:812;-0.7278373;10.534488;-0.1340753
15:19:22:812;-0.7278373;10.534488;-0.1340753
15:19:22:950;0.30645782;10.745177;-0.11492168
15:19:22:950;0.30645782;10.745177;-0.11492168
15:19:22:950;0.30645782;10.745177;-0.11492168
15:19:22:950;0.30645782;10.745177;-0.11492168
15:19:22:950;0.30645782;10.745177;-0.11492168
15:19:22:950;0.30645782;10.745177;-0.11492168
15:19:22:950;0.30645782;10.745177;-0.11492168
15:19:22:950;0.30645782;10.745177;-0.11492168
15:19:22:950;0.30645782;10.745177;-0.11492168
15:19:22:950;0.30645782;10.745177;-0.11492168
15:19:22:950;0.30645782;10.745177;-0.11492168
15:19:22:950;0.30645782;10.745177;-0.11492168
15:19:22:950;0.30645782;10.745177;-0.11492168
15:19:22:950;0.30645782;10.745177;-0.11492168
15:19:22:950;0.30645782;10.745177;-0.11492168
15:19:23:067;-0.7469909;10.304645;-0.05746084
15:19:23:067;-0.7469909;10.304645;-0.05746084
15:19:23:067;-0.7469909;10.304645;-0.05746084
15:19:23:067;-0.7469909;10.304645;-0.05746084
15:19:23:067;-0.7469909;10.304645;-0.05746084
15:19:23:067;-0.7469909;10.304645;-0.05746084
15:19:23:067;-0.7469909;10.304645;-0.05746084
15:19:23:067;-0.7469909;10.304645;-0.05746084
15:19:23:067;-0.7469909;10.304645;-0.05746084
15:19:23:067;-0.7469909;10.304645;-0.05746084
15:19:23:067;-0.7469909;10.304645;-0.05746084
15:19:23:067;-0.7469909;10.304645;-0.05746084
15:19:23:067;-0.7469909;10.304645;-0.05746084
15:19:23:170;0.11492168;9.461885;-0.05746084
15:19:23:170;0.11492168;9.461885;-0.05746084
15:19:23:170;0.11492168;9.461885;-0.05746084
15:19:23:170;0.11492168;9.461885;-0.05746084
15:19:23:170;0.11492168;9.461885;-0.05746084
15:19:23:170;0.11492168;9.461885;-0.05746084
15:19:23:170;0.11492168;9.461885;-0.05746084
15:19:23:170;0.11492168;9.461885;-0.05746084
15:19:23:170;0.11492168;9.461885;-0.05746084
15:19:23:170;0.11492168;9.461885;-0.05746084
15:19:23:170;0.11492168;9.461885;-0.05746084
15:19:23:170;0.11492168;9.461885;-0.05746084
15:19:23:170;0.11492168;9.461885;-0.05746084
15:19:23:170;0.11492168;9.461885;-0.05746084
15:19:23:170;0.11492168;9.461885;-0.05746084
15:19:23:170;0.11492168;9.461885;-0.05746084
15:19:23:170;0.11492168;9.461885;-0.05746084
15:19:23:170;0.11492168;9.461885;-0.05746084
15:19:23:170;0.11492168;9.461885;-0.05746084
15:19:23:170;0.11492168;9.461885;-0.05746084
15:19:23:327;-0.1340753;9.385271;-0.076614454
15:19:23:327;-0.1340753;9.385271;-0.076614454
15:19:23:327;-0.1340753;9.385271;-0.076614454
15:19:23:327;-0.1340753;9.385271;-0.076614454
15:19:23:327;-0.1340753;9.385271;-0.076614454
15:19:23:327;-0.1340753;9.385271;-0.076614454
15:19:23:327;-0.1340753;9.385271;-0.076614454
15:19:23:327;-0.1340753;9.385271;-0.076614454
15:19:23:327;-0.1340753;9.385271;-0.076614454
15:19:23:327;-0.1340753;9.385271;-0.076614454
15:19:23:327;-0.1340753;9.385271;-0.076614454
15:19:23:327;-0.1340753;9.385271;-0.076614454
15:19:23:327;-0.1340753;9.385271;-0.076614454
15:19:23:327;-0.1340753;9.385271;-0.076614454
15:19:23:327;-0.1340753;9.385271;-0.076614454
15:19:23:441;0.34476504;11.032481;-0.51714754
15:19:23:441;0.34476504;11.032481;-0.51714754
15:19:23:441;0.34476504;11.032481;-0.51714754
15:19:23:441;0.34476504;11.032481;-0.51714754
15:19:23:441;0.34476504;11.032481;-0.51714754
15:19:23:441;0.34476504;11.032481;-0.51714754
15:19:23:441;0.34476504;11.032481;-0.51714754
15:19:23:441;0.34476504;11.032481;-0.51714754
15:19:23:441;0.34476504;11.032481;-0.51714754
15:19:23:441;0.34476504;11.032481;-0.51714754
15:19:23:441;0.34476504;11.032481;-0.51714754
15:19:23:441;0.34476504;11.032481;-0.51714754
15:19:23:441;0.34476504;11.032481;-0.51714754
15:19:23:542;0.11492168;10.381259;-0.47884035
15:19:23:542;0.11492168;10.381259;-0.47884035
15:19:23:542;0.11492168;10.381259;-0.47884035
15:19:23:542;0.11492168;10.381259;-0.47884035
15:19:23:542;0.11492168;10.381259;-0.47884035
15:19:23:542;0.11492168;10.381259;-0.47884035
15:19:23:542;0.11492168;10.381259;-0.47884035
15:19:23:542;0.11492168;10.381259;-0.47884035
15:19:23:542;0.11492168;10.381259;-0.47884035
15:19:23:542;0.11492168;10.381259;-0.47884035
15:19:23:542;0.11492168;10.381259;-0.47884035
15:19:23:542;0.11492168;10.381259;-0.47884035
15:19:23:542;0.11492168;10.381259;-0.47884035
15:19:23:542;0.11492168;10.381259;-0.47884035
15:19:23:542;0.11492168;10.381259;-0.47884035
15:19:23:658;-0.095768064;9.289502;0.59376204
15:19:23:658;-0.095768064;9.289502;0.59376204
15:19:23:658;-0.095768064;9.289502;0.59376204
15:19:23:658;-0.095768064;9.289502;0.59376204
15:19:23:658;-0.095768064;9.289502;0.59376204
15:19:23:658;-0.095768064;9.289502;0.59376204
15:19:23:658;-0.095768064;9.289502;0.59376204
15:19:23:658;-0.095768064;9.289502;0.59376204
15:19:23:658;-0.095768064;9.289502;0.59376204
15:19:23:658;-0.095768064;9.289502;0.59376204
15:19:23:658;-0.095768064;9.289502;0.59376204
15:19:23:658;-0.095768064;9.289502;0.59376204
15:19:23:658;-0.095768064;9.289502;0.59376204
15:19:23:658;-0.095768064;9.289502;0.59376204
15:19:23:658;-0.095768064;9.289502;0.59376204
15:19:23:776;0.19153613;11.128249;-1.1683705
15:19:23:776;0.19153613;11.128249;-1.1683705
15:19:23:776;0.19153613;11.128249;-1.1683705
15:19:23:776;0.19153613;11.128249;-1.1683705
15:19:23:776;0.19153613;11.128249;-1.1683705
15:19:23:776;0.19153613;11.128249;-1.1683705
15:19:23:776;0.19153613;11.128249;-1.1683705
15:19:23:776;0.19153613;11.128249;-1.1683705
15:19:23:776;0.19153613;11.128249;-1.1683705
15:19:23:776;0.19153613;11.128249;-1.1683705
15:19:23:776;0.19153613;11.128249;-1.1683705
15:19:23:776;0.19153613;11.128249;-1.1683705
15:19:23:776;0.19153613;11.128249;-1.1683705
15:19:23:878;-0.22984336;11.051635;-0.076614454
15:19:23:878;-0.22984336;11.051635;-0.076614454
15:19:23:878;-0.22984336;11.051635;-0.076614454
15:19:23:878;-0.22984336;11.051635;-0.076614454
15:19:23:878;-0.22984336;11.051635;-0.076614454
15:19:23:878;-0.22984336;11.051635;-0.076614454
15:19:23:878;-0.22984336;11.051635;-0.076614454
15:19:23:878;-0.22984336;11.051635;-0.076614454
15:19:23:878;-0.22984336;11.051635;-0.076614454
15:19:23:878;-0.22984336;11.051635;-0.076614454
15:19:23:878;-0.22984336;11.051635;-0.076614454
15:19:23:878;-0.22984336;11.051635;-0.076614454
15:19:23:878;-0.22984336;11.051635;-0.076614454
15:19:23:981;-0.1340753;10.611102;0.038307227
15:19:23:981;-0.1340753;10.611102;0.038307227
15:19:23:981;-0.1340753;10.611102;0.038307227
15:19:23:981;-0.1340753;10.611102;0.038307227
15:19:23:981;-0.1340753;10.611102;0.038307227
15:19:23:981;-0.1340753;10.611102;0.038307227
15:19:23:981;-0.1340753;10.611102;0.038307227
15:19:23:981;-0.1340753;10.611102;0.038307227
15:19:23:981;-0.1340753;10.611102;0.038307227
15:19:23:981;-0.1340753;10.611102;0.038307227
15:19:23:981;-0.1340753;10.611102;0.038307227
15:19:23:981;-0.1340753;10.611102;0.038307227
15:19:23:981;-0.1340753;10.611102;0.038307227
15:19:23:981;-0.1340753;10.611102;0.038307227
15:19:23:981;-0.1340753;10.611102;0.038307227
15:19:24:098;0.019153614;9.883265;0.1340753
15:19:24:098;0.019153614;9.883265;0.1340753
15:19:24:098;0.019153614;9.883265;0.1340753
15:19:24:098;0.019153614;9.883265;0.1340753
15:19:24:098;0.019153614;9.883265;0.1340753
15:19:24:098;0.019153614;9.883265;0.1340753
15:19:24:098;0.019153614;9.883265;0.1340753
15:19:24:098;0.019153614;9.883265;0.1340753
15:19:24:098;0.019153614;9.883265;0.1340753
15:19:24:098;0.019153614;9.883265;0.1340753
15:19:24:098;0.019153614;9.883265;0.1340753
15:19:24:098;0.019153614;9.883265;0.1340753
15:19:24:098;0.019153614;9.883265;0.1340753
15:19:24:098;0.019153614;9.883265;0.1340753
15:19:24:098;0.019153614;9.883265;0.1340753
15:19:24:218;-0.076614454;9.959879;-0.24899697
15:19:24:218;-0.076614454;9.959879;-0.24899697
15:19:24:218;-0.076614454;9.959879;-0.24899697
15:19:24:218;-0.076614454;9.959879;-0.24899697
15:19:24:218;-0.076614454;9.959879;-0.24899697
15:19:24:218;-0.076614454;9.959879;-0.24899697
15:19:24:218;-0.076614454;9.959879;-0.24899697
15:19:24:218;-0.076614454;9.959879;-0.24899697
15:19:24:218;-0.076614454;9.959879;-0.24899697
15:19:24:218;-0.076614454;9.959879;-0.24899697
15:19:24:218;-0.076614454;9.959879;-0.24899697
15:19:24:218;-0.076614454;9.959879;-0.24899697
15:19:24:218;-0.076614454;9.959879;-0.24899697
15:19:24:218;-0.076614454;9.959879;-0.24899697
15:19:24:322;0.095768064;9.615114;-0.38307226
15:19:24:322;0.095768064;9.615114;-0.38307226
15:19:24:322;0.095768064;9.615114;-0.38307226
15:19:24:322;0.095768064;9.615114;-0.38307226
15:19:24:322;0.095768064;9.615114;-0.38307226
15:19:24:322;0.095768064;9.615114;-0.38307226
15:19:24:322;0.095768064;9.615114;-0.38307226
15:19:24:322;0.095768064;9.615114;-0.38307226
15:19:24:322;0.095768064;9.615114;-0.38307226
15:19:24:322;0.095768064;9.615114;-0.38307226
15:19:24:322;0.095768064;9.615114;-0.38307226
15:19:24:322;0.095768064;9.615114;-0.38307226
15:19:24:322;0.095768064;9.615114;-0.38307226
15:19:24:425;-0.095768064;10.170568;-0.17238252
15:19:24:425;-0.095768064;10.170568;-0.17238252
15:19:24:425;-0.095768064;10.170568;-0.17238252
15:19:24:425;-0.095768064;10.170568;-0.17238252
15:19:24:425;-0.095768064;10.170568;-0.17238252
15:19:24:425;-0.095768064;10.170568;-0.17238252
15:19:24:425;-0.095768064;10.170568;-0.17238252
15:19:24:425;-0.095768064;10.170568;-0.17238252
15:19:24:425;-0.095768064;10.170568;-0.17238252
15:19:24:425;-0.095768064;10.170568;-0.17238252
15:19:24:425;-0.095768064;10.170568;-0.17238252
15:19:24:425;-0.095768064;10.170568;-0.17238252
15:19:24:425;-0.095768064;10.170568;-0.17238252
15:19:24:425;-0.095768064;10.170568;-0.17238252
15:19:24:425;-0.095768064;10.170568;-0.17238252
15:19:24:540;-0.30645782;9.864111;0.11492168
15:19:24:540;-0.30645782;9.864111;0.11492168
15:19:24:540;-0.30645782;9.864111;0.11492168
15:19:24:540;-0.30645782;9.864111;0.11492168
15:19:24:540;-0.30645782;9.864111;0.11492168
15:19:24:540;-0.30645782;9.864111;0.11492168
15:19:24:540;-0.30645782;9.864111;0.11492168
15:19:24:540;-0.30645782;9.864111;0.11492168
15:19:24:540;-0.30645782;9.864111;0.11492168
15:19:24:540;-0.30645782;9.864111;0.11492168
15:19:24:540;-0.30645782;9.864111;0.11492168
15:19:24:540;-0.30645782;9.864111;0.11492168
15:19:24:540;-0.30645782;9.864111;0.11492168
15:19:24:540;-0.30645782;9.864111;0.11492168
15:19:24:651;-0.019153614;10.457873;-0.17238252
15:19:24:651;-0.019153614;10.457873;-0.17238252
15:19:24:651;-0.019153614;10.457873;-0.17238252
15:19:24:651;-0.019153614;10.457873;-0.17238252
15:19:24:651;-0.019153614;10.457873;-0.17238252
15:19:24:651;-0.019153614;10.457873;-0.17238252
15:19:24:651;-0.019153614;10.457873;-0.17238252
15:19:24:651;-0.019153614;10.457873;-0.17238252
15:19:24:651;-0.019153614;10.457873;-0.17238252
15:19:24:651;-0.019153614;10.457873;-0.17238252
15:19:24:651;-0.019153614;10.457873;-0.17238252
15:19:24:651;-0.019153614;10.457873;-0.17238252
15:19:24:651;-0.019153614;10.457873;-0.17238252
15:19:24:651;-0.019153614;10.457873;-0.17238252
15:19:24:651;-0.019153614;10.457873;-0.17238252
15:19:24:770;0.2681506;10.43872;0.24899697
15:19:24:770;0.2681506;10.43872;0.24899697
15:19:24:770;0.2681506;10.43872;0.24899697
15:19:24:770;0.2681506;10.43872;0.24899697
15:19:24:770;0.2681506;10.43872;0.24899697
15:19:24:770;0.2681506;10.43872;0.24899697
15:19:24:770;0.2681506;10.43872;0.24899697
15:19:24:770;0.2681506;10.43872;0.24899697
15:19:24:770;0.2681506;10.43872;0.24899697
15:19:24:770;0.2681506;10.43872;0.24899697
15:19:24:770;0.2681506;10.43872;0.24899697
15:19:24:770;0.2681506;10.43872;0.24899697
15:19:24:770;0.2681506;10.43872;0.24899697
15:19:24:770;0.2681506;10.43872;0.24899697
15:19:24:770;0.2681506;10.43872;0.24899697
15:19:24:887;0.19153613;10.362105;0.4213795
15:19:24:887;0.19153613;10.362105;0.4213795
15:19:24:887;0.19153613;10.362105;0.4213795
15:19:24:887;0.19153613;10.362105;0.4213795
15:19:24:887;0.19153613;10.362105;0.4213795
15:19:24:887;0.19153613;10.362105;0.4213795
15:19:24:887;0.19153613;10.362105;0.4213795
15:19:24:887;0.19153613;10.362105;0.4213795
15:19:24:887;0.19153613;10.362105;0.4213795
15:19:24:887;0.19153613;10.362105;0.4213795
15:19:24:887;0.19153613;10.362105;0.4213795
15:19:24:887;0.19153613;10.362105;0.4213795
15:19:24:887;0.19153613;10.362105;0.4213795
15:19:24:887;0.19153613;10.362105;0.4213795
15:19:24:887;0.19153613;10.362105;0.4213795
15:19:25:004;-0.11492168;10.381259;0.05746084
15:19:25:004;-0.11492168;10.381259;0.05746084
15:19:25:004;-0.11492168;10.381259;0.05746084
15:19:25:004;-0.11492168;10.381259;0.05746084
15:19:25:004;-0.11492168;10.381259;0.05746084
15:19:25:004;-0.11492168;10.381259;0.05746084
15:19:25:004;-0.11492168;10.381259;0.05746084
15:19:25:004;-0.11492168;10.381259;0.05746084
15:19:25:004;-0.11492168;10.381259;0.05746084
15:19:25:004;-0.11492168;10.381259;0.05746084
15:19:25:004;-0.11492168;10.381259;0.05746084
15:19:25:004;-0.11492168;10.381259;0.05746084
15:19:25:004;-0.11492168;10.381259;0.05746084
15:19:25:004;-0.11492168;10.381259;0.05746084
15:19:25:004;-0.11492168;10.381259;0.05746084
15:19:25:004;-0.11492168;10.381259;0.05746084
15:19:25:127;-0.21068975;10.515334;0.4213795
15:19:25:127;-0.21068975;10.515334;0.4213795
15:19:25:127;-0.21068975;10.515334;0.4213795
15:19:25:127;-0.21068975;10.515334;0.4213795
15:19:25:127;-0.21068975;10.515334;0.4213795
15:19:25:127;-0.21068975;10.515334;0.4213795
15:19:25:127;-0.21068975;10.515334;0.4213795
15:19:25:127;-0.21068975;10.515334;0.4213795
15:19:25:127;-0.21068975;10.515334;0.4213795
15:19:25:127;-0.21068975;10.515334;0.4213795
15:19:25:127;-0.21068975;10.515334;0.4213795
15:19:25:127;-0.21068975;10.515334;0.4213795
15:19:25:127;-0.21068975;10.515334;0.4213795
15:19:25:232;-0.21068975;11.051635;0.61291564
15:19:25:232;-0.21068975;11.051635;0.61291564
15:19:25:232;-0.21068975;11.051635;0.61291564
15:19:25:232;-0.21068975;11.051635;0.61291564
15:19:25:232;-0.21068975;11.051635;0.61291564
15:19:25:232;-0.21068975;11.051635;0.61291564
15:19:25:232;-0.21068975;11.051635;0.61291564
15:19:25:232;-0.21068975;11.051635;0.61291564
15:19:25:232;-0.21068975;11.051635;0.61291564
15:19:25:232;-0.21068975;11.051635;0.61291564
15:19:25:232;-0.21068975;11.051635;0.61291564
15:19:25:232;-0.21068975;11.051635;0.61291564
15:19:25:232;-0.21068975;11.051635;0.61291564
15:19:25:232;-0.21068975;11.051635;0.61291564
15:19:25:341;-0.22984336;9.3661175;0.15322891
15:19:25:341;-0.22984336;9.3661175;0.15322891
15:19:25:341;-0.22984336;9.3661175;0.15322891
15:19:25:341;-0.22984336;9.3661175;0.15322891
15:19:25:341;-0.22984336;9.3661175;0.15322891
15:19:25:341;-0.22984336;9.3661175;0.15322891
15:19:25:341;-0.22984336;9.3661175;0.15322891
15:19:25:341;-0.22984336;9.3661175;0.15322891
15:19:25:341;-0.22984336;9.3661175;0.15322891
15:19:25:341;-0.22984336;9.3661175;0.15322891
15:19:25:341;-0.22984336;9.3661175;0.15322891
15:19:25:341;-0.22984336;9.3661175;0.15322891
15:19:25:341;-0.22984336;9.3661175;0.15322891
15:19:25:442;0.11492168;10.036493;0.2681506
15:19:25:442;0.11492168;10.036493;0.2681506
15:19:25:442;0.11492168;10.036493;0.2681506
15:19:25:442;0.11492168;10.036493;0.2681506
15:19:25:442;0.11492168;10.036493;0.2681506
15:19:25:442;0.11492168;10.036493;0.2681506
15:19:25:442;0.11492168;10.036493;0.2681506
15:19:25:442;0.11492168;10.036493;0.2681506
15:19:25:442;0.11492168;10.036493;0.2681506
15:19:25:442;0.11492168;10.036493;0.2681506
15:19:25:442;0.11492168;10.036493;0.2681506
15:19:25:442;0.11492168;10.036493;0.2681506
15:19:25:442;0.11492168;10.036493;0.2681506
15:19:25:442;0.11492168;10.036493;0.2681506
15:19:25:442;0.11492168;10.036493;0.2681506
15:19:25:559;-0.2681506;9.672575;0.40222588
15:19:25:559;-0.2681506;9.672575;0.40222588
15:19:25:559;-0.2681506;9.672575;0.40222588
15:19:25:559;-0.2681506;9.672575;0.40222588
15:19:25:559;-0.2681506;9.672575;0.40222588
15:19:25:559;-0.2681506;9.672575;0.40222588
15:19:25:559;-0.2681506;9.672575;0.40222588
15:19:25:559;-0.2681506;9.672575;0.40222588
15:19:25:559;-0.2681506;9.672575;0.40222588
15:19:25:559;-0.2681506;9.672575;0.40222588
15:19:25:559;-0.2681506;9.672575;0.40222588
15:19:25:559;-0.2681506;9.672575;0.40222588
15:19:25:559;-0.2681506;9.672575;0.40222588
15:19:25:559;-0.2681506;9.672575;0.40222588
15:19:25:559;-0.2681506;9.672575;0.40222588
15:19:25:676;0.11492168;10.0748005;-0.019153614
15:19:25:676;0.11492168;10.0748005;-0.019153614
15:19:25:676;0.11492168;10.0748005;-0.019153614
15:19:25:676;0.11492168;10.0748005;-0.019153614
15:19:25:676;0.11492168;10.0748005;-0.019153614
15:19:25:676;0.11492168;10.0748005;-0.019153614
15:19:25:676;0.11492168;10.0748005;-0.019153614
15:19:25:676;0.11492168;10.0748005;-0.019153614
15:19:25:676;0.11492168;10.0748005;-0.019153614
15:19:25:676;0.11492168;10.0748005;-0.019153614
15:19:25:676;0.11492168;10.0748005;-0.019153614
15:19:25:676;0.11492168;10.0748005;-0.019153614
15:19:25:676;0.11492168;10.0748005;-0.019153614
15:19:25:676;0.11492168;10.0748005;-0.019153614
15:19:25:676;0.11492168;10.0748005;-0.019153614
15:19:25:795;-0.1340753;9.730036;1.2066777
15:19:25:795;-0.1340753;9.730036;1.2066777
15:19:25:795;-0.1340753;9.730036;1.2066777
15:19:25:795;-0.1340753;9.730036;1.2066777
15:19:25:795;-0.1340753;9.730036;1.2066777
15:19:25:795;-0.1340753;9.730036;1.2066777
15:19:25:795;-0.1340753;9.730036;1.2066777
15:19:25:795;-0.1340753;9.730036;1.2066777
15:19:25:795;-0.1340753;9.730036;1.2066777
15:19:25:795;-0.1340753;9.730036;1.2066777
15:19:25:795;-0.1340753;9.730036;1.2066777
15:19:25:795;-0.1340753;9.730036;1.2066777
15:19:25:795;-0.1340753;9.730036;1.2066777
15:19:25:898;-0.24899697;10.572795;0.61291564
15:19:25:898;-0.24899697;10.572795;0.61291564
15:19:25:898;-0.24899697;10.572795;0.61291564
15:19:25:898;-0.24899697;10.572795;0.61291564
15:19:25:898;-0.24899697;10.572795;0.61291564
15:19:25:898;-0.24899697;10.572795;0.61291564
15:19:25:898;-0.24899697;10.572795;0.61291564
15:19:25:898;-0.24899697;10.572795;0.61291564
15:19:25:898;-0.24899697;10.572795;0.61291564
15:19:25:898;-0.24899697;10.572795;0.61291564
15:19:25:898;-0.24899697;10.572795;0.61291564
15:19:25:898;-0.24899697;10.572795;0.61291564
15:19:25:898;-0.24899697;10.572795;0.61291564
15:19:25:898;-0.24899697;10.572795;0.61291564
15:19:25:898;-0.24899697;10.572795;0.61291564
15:19:25:898;-0.24899697;10.572795;0.61291564
15:19:25:898;-0.24899697;10.572795;0.61291564
15:19:25:898;-0.24899697;10.572795;0.61291564
15:19:25:898;-0.24899697;10.572795;0.61291564
15:19:26:045;-0.095768064;9.902418;-0.076614454
15:19:26:045;-0.095768064;9.902418;-0.076614454
15:19:26:045;-0.095768064;9.902418;-0.076614454
15:19:26:045;-0.095768064;9.902418;-0.076614454
15:19:26:045;-0.095768064;9.902418;-0.076614454
15:19:26:045;-0.095768064;9.902418;-0.076614454
15:19:26:045;-0.095768064;9.902418;-0.076614454
15:19:26:045;-0.095768064;9.902418;-0.076614454
15:19:26:045;-0.095768064;9.902418;-0.076614454
15:19:26:045;-0.095768064;9.902418;-0.076614454
15:19:26:045;-0.095768064;9.902418;-0.076614454
15:19:26:045;-0.095768064;9.902418;-0.076614454
15:19:26:045;-0.095768064;9.902418;-0.076614454
15:19:26:045;-0.095768064;9.902418;-0.076614454
15:19:26:152;0.17238252;10.0748005;0.59376204
15:19:26:152;0.17238252;10.0748005;0.59376204
15:19:26:152;0.17238252;10.0748005;0.59376204
15:19:26:152;0.17238252;10.0748005;0.59376204
15:19:26:152;0.17238252;10.0748005;0.59376204
15:19:26:152;0.17238252;10.0748005;0.59376204
15:19:26:152;0.17238252;10.0748005;0.59376204
15:19:26:152;0.17238252;10.0748005;0.59376204
15:19:26:152;0.17238252;10.0748005;0.59376204
15:19:26:152;0.17238252;10.0748005;0.59376204
15:19:26:152;0.17238252;10.0748005;0.59376204
15:19:26:152;0.17238252;10.0748005;0.59376204
15:19:26:152;0.17238252;10.0748005;0.59376204
15:19:26:152;0.17238252;10.0748005;0.59376204
15:19:26:152;0.17238252;10.0748005;0.59376204
15:19:26:270;0.15322891;9.615114;1.3024458
15:19:26:270;0.15322891;9.615114;1.3024458
15:19:26:270;0.15322891;9.615114;1.3024458
15:19:26:270;0.15322891;9.615114;1.3024458
15:19:26:270;0.15322891;9.615114;1.3024458
15:19:26:270;0.15322891;9.615114;1.3024458
15:19:26:270;0.15322891;9.615114;1.3024458
15:19:26:270;0.15322891;9.615114;1.3024458
15:19:26:270;0.15322891;9.615114;1.3024458
15:19:26:270;0.15322891;9.615114;1.3024458
15:19:26:270;0.15322891;9.615114;1.3024458
15:19:26:270;0.15322891;9.615114;1.3024458
15:19:26:270;0.15322891;9.615114;1.3024458
15:19:26:270;0.15322891;9.615114;1.3024458
15:19:26:270;0.15322891;9.615114;1.3024458
15:19:26:389;0.19153613;9.500193;0.59376204
15:19:26:389;0.19153613;9.500193;0.59376204
15:19:26:389;0.19153613;9.500193;0.59376204
15:19:26:389;0.19153613;9.500193;0.59376204
15:19:26:389;0.19153613;9.500193;0.59376204
15:19:26:389;0.19153613;9.500193;0.59376204
15:19:26:389;0.19153613;9.500193;0.59376204
15:19:26:389;0.19153613;9.500193;0.59376204
15:19:26:389;0.19153613;9.500193;0.59376204
15:19:26:389;0.19153613;9.500193;0.59376204
15:19:26:389;0.19153613;9.500193;0.59376204
15:19:26:389;0.19153613;9.500193;0.59376204
15:19:26:389;0.19153613;9.500193;0.59376204
15:19:26:389;0.19153613;9.500193;0.59376204
15:19:26:389;0.19153613;9.500193;0.59376204
15:19:26:507;-0.38307226;9.615114;0.6895301
15:19:26:507;-0.38307226;9.615114;0.6895301
15:19:26:507;-0.38307226;9.615114;0.6895301
15:19:26:507;-0.38307226;9.615114;0.6895301
15:19:26:507;-0.38307226;9.615114;0.6895301
15:19:26:507;-0.38307226;9.615114;0.6895301
15:19:26:507;-0.38307226;9.615114;0.6895301
15:19:26:507;-0.38307226;9.615114;0.6895301
15:19:26:507;-0.38307226;9.615114;0.6895301
15:19:26:507;-0.38307226;9.615114;0.6895301
15:19:26:507;-0.38307226;9.615114;0.6895301
15:19:26:507;-0.38307226;9.615114;0.6895301
15:19:26:507;-0.38307226;9.615114;0.6895301
15:19:26:609;0.019153614;9.595961;0.78529817
15:19:26:609;0.019153614;9.595961;0.78529817
15:19:26:609;0.019153614;9.595961;0.78529817
15:19:26:609;0.019153614;9.595961;0.78529817
15:19:26:609;0.019153614;9.595961;0.78529817
15:19:26:609;0.019153614;9.595961;0.78529817
15:19:26:609;0.019153614;9.595961;0.78529817
15:19:26:609;0.019153614;9.595961;0.78529817
15:19:26:609;0.019153614;9.595961;0.78529817
15:19:26:609;0.019153614;9.595961;0.78529817
15:19:26:609;0.019153614;9.595961;0.78529817
15:19:26:609;0.019153614;9.595961;0.78529817
15:19:26:609;0.019153614;9.595961;0.78529817
15:19:26:609;0.019153614;9.595961;0.78529817
15:19:26:609;0.019153614;9.595961;0.78529817
15:19:26:609;0.019153614;9.595961;0.78529817
15:19:26:729;-0.17238252;10.70687;0.59376204
15:19:26:729;-0.17238252;10.70687;0.59376204
15:19:26:729;-0.17238252;10.70687;0.59376204
15:19:26:729;-0.17238252;10.70687;0.59376204
15:19:26:729;-0.17238252;10.70687;0.59376204
15:19:26:729;-0.17238252;10.70687;0.59376204
15:19:26:729;-0.17238252;10.70687;0.59376204
15:19:26:729;-0.17238252;10.70687;0.59376204
15:19:26:729;-0.17238252;10.70687;0.59376204
15:19:26:729;-0.17238252;10.70687;0.59376204
15:19:26:729;-0.17238252;10.70687;0.59376204
15:19:26:729;-0.17238252;10.70687;0.59376204
15:19:26:729;-0.17238252;10.70687;0.59376204
15:19:26:831;-0.21068975;9.787497;0.7086837
15:19:26:831;-0.21068975;9.787497;0.7086837
15:19:26:831;-0.21068975;9.787497;0.7086837
15:19:26:831;-0.21068975;9.787497;0.7086837
15:19:26:831;-0.21068975;9.787497;0.7086837
15:19:26:831;-0.21068975;9.787497;0.7086837
15:19:26:831;-0.21068975;9.787497;0.7086837
15:19:26:831;-0.21068975;9.787497;0.7086837
15:19:26:831;-0.21068975;9.787497;0.7086837
15:19:26:831;-0.21068975;9.787497;0.7086837
15:19:26:831;-0.21068975;9.787497;0.7086837
15:19:26:831;-0.21068975;9.787497;0.7086837
15:19:26:831;-0.21068975;9.787497;0.7086837
15:19:26:933;0.34476504;9.155427;0.91937345
15:19:26:933;0.34476504;9.155427;0.91937345
15:19:26:933;0.34476504;9.155427;0.91937345
15:19:26:933;0.34476504;9.155427;0.91937345
15:19:26:933;0.34476504;9.155427;0.91937345
15:19:26:933;0.34476504;9.155427;0.91937345
15:19:26:933;0.34476504;9.155427;0.91937345
15:19:26:933;0.34476504;9.155427;0.91937345
15:19:26:933;0.34476504;9.155427;0.91937345
15:19:26:933;0.34476504;9.155427;0.91937345
15:19:26:933;0.34476504;9.155427;0.91937345
15:19:26:933;0.34476504;9.155427;0.91937345
15:19:26:933;0.34476504;9.155427;0.91937345
15:19:26:933;0.34476504;9.155427;0.91937345
15:19:26:933;0.34476504;9.155427;0.91937345
15:19:27:051;0.076614454;9.80665;1.0534488
15:19:27:051;0.076614454;9.80665;1.0534488
15:19:27:051;0.076614454;9.80665;1.0534488
15:19:27:051;0.076614454;9.80665;1.0534488
15:19:27:051;0.076614454;9.80665;1.0534488
15:19:27:051;0.076614454;9.80665;1.0534488
15:19:27:051;0.076614454;9.80665;1.0534488
15:19:27:051;0.076614454;9.80665;1.0534488
15:19:27:051;0.076614454;9.80665;1.0534488
15:19:27:051;0.076614454;9.80665;1.0534488
15:19:27:051;0.076614454;9.80665;1.0534488
15:19:27:051;0.076614454;9.80665;1.0534488
15:19:27:051;0.076614454;9.80665;1.0534488
15:19:27:152;-0.7278373;10.093954;0.7661445
15:19:27:152;-0.7278373;10.093954;0.7661445
15:19:27:152;-0.7278373;10.093954;0.7661445
15:19:27:152;-0.7278373;10.093954;0.7661445
15:19:27:152;-0.7278373;10.093954;0.7661445
15:19:27:152;-0.7278373;10.093954;0.7661445
15:19:27:152;-0.7278373;10.093954;0.7661445
15:19:27:152;-0.7278373;10.093954;0.7661445
15:19:27:152;-0.7278373;10.093954;0.7661445
15:19:27:152;-0.7278373;10.093954;0.7661445
15:19:27:152;-0.7278373;10.093954;0.7661445
15:19:27:152;-0.7278373;10.093954;0.7661445
15:19:27:152;-0.7278373;10.093954;0.7661445
15:19:27:253;0.15322891;10.381259;0.30645782
15:19:27:253;0.15322891;10.381259;0.30645782
15:19:27:253;0.15322891;10.381259;0.30645782
15:19:27:253;0.15322891;10.381259;0.30645782
15:19:27:253;0.15322891;10.381259;0.30645782
15:19:27:253;0.15322891;10.381259;0.30645782
15:19:27:253;0.15322891;10.381259;0.30645782
15:19:27:253;0.15322891;10.381259;0.30645782
15:19:27:253;0.15322891;10.381259;0.30645782
15:19:27:253;0.15322891;10.381259;0.30645782
15:19:27:253;0.15322891;10.381259;0.30645782
15:19:27:253;0.15322891;10.381259;0.30645782
15:19:27:253;0.15322891;10.381259;0.30645782
15:19:27:253;0.15322891;10.381259;0.30645782
15:19:27:361;0.17238252;10.170568;0.6512229
15:19:27:361;0.17238252;10.170568;0.6512229
15:19:27:361;0.17238252;10.170568;0.6512229
15:19:27:361;0.17238252;10.170568;0.6512229
15:19:27:361;0.17238252;10.170568;0.6512229
15:19:27:361;0.17238252;10.170568;0.6512229
15:19:27:361;0.17238252;10.170568;0.6512229
15:19:27:361;0.17238252;10.170568;0.6512229
15:19:27:361;0.17238252;10.170568;0.6512229
15:19:27:361;0.17238252;10.170568;0.6512229
15:19:27:361;0.17238252;10.170568;0.6512229
15:19:27:361;0.17238252;10.170568;0.6512229
15:19:27:361;0.17238252;10.170568;0.6512229
15:19:27:361;0.17238252;10.170568;0.6512229
15:19:27:469;0.24899697;9.634268;0.05746084
15:19:27:469;0.24899697;9.634268;0.05746084
15:19:27:469;0.24899697;9.634268;0.05746084
15:19:27:469;0.24899697;9.634268;0.05746084
15:19:27:469;0.24899697;9.634268;0.05746084
15:19:27:469;0.24899697;9.634268;0.05746084
15:19:27:469;0.24899697;9.634268;0.05746084
15:19:27:469;0.24899697;9.634268;0.05746084
15:19:27:469;0.24899697;9.634268;0.05746084
15:19:27:469;0.24899697;9.634268;0.05746084
15:19:27:469;0.24899697;9.634268;0.05746084
15:19:27:469;0.24899697;9.634268;0.05746084
15:19:27:469;0.24899697;9.634268;0.05746084
15:19:27:469;0.24899697;9.634268;0.05746084
15:19:27:585;-0.80445176;9.481039;0.5746084
15:19:27:585;-0.80445176;9.481039;0.5746084
15:19:27:585;-0.80445176;9.481039;0.5746084
15:19:27:585;-0.80445176;9.481039;0.5746084
15:19:27:585;-0.80445176;9.481039;0.5746084
15:19:27:585;-0.80445176;9.481039;0.5746084
15:19:27:585;-0.80445176;9.481039;0.5746084
15:19:27:585;-0.80445176;9.481039;0.5746084
15:19:27:585;-0.80445176;9.481039;0.5746084
15:19:27:585;-0.80445176;9.481039;0.5746084
15:19:27:585;-0.80445176;9.481039;0.5746084
15:19:27:585;-0.80445176;9.481039;0.5746084
15:19:27:585;-0.80445176;9.481039;0.5746084
15:19:27:585;-0.80445176;9.481039;0.5746084
15:19:27:585;-0.80445176;9.481039;0.5746084
15:19:27:585;-0.80445176;9.481039;0.5746084
15:19:27:705;-0.5363012;10.055647;0.076614454
15:19:27:705;-0.5363012;10.055647;0.076614454
15:19:27:705;-0.5363012;10.055647;0.076614454
15:19:27:705;-0.5363012;10.055647;0.076614454
15:19:27:705;-0.5363012;10.055647;0.076614454
15:19:27:705;-0.5363012;10.055647;0.076614454
15:19:27:705;-0.5363012;10.055647;0.076614454
15:19:27:705;-0.5363012;10.055647;0.076614454
15:19:27:705;-0.5363012;10.055647;0.076614454
15:19:27:705;-0.5363012;10.055647;0.076614454
15:19:27:705;-0.5363012;10.055647;0.076614454
15:19:27:705;-0.5363012;10.055647;0.076614454
15:19:27:705;-0.5363012;10.055647;0.076614454
15:19:27:812;-0.47884035;9.9790325;1.0534488
15:19:27:812;-0.47884035;9.9790325;1.0534488
15:19:27:812;-0.47884035;9.9790325;1.0534488
15:19:27:812;-0.47884035;9.9790325;1.0534488
15:19:27:812;-0.47884035;9.9790325;1.0534488
15:19:27:812;-0.47884035;9.9790325;1.0534488
15:19:27:812;-0.47884035;9.9790325;1.0534488
15:19:27:812;-0.47884035;9.9790325;1.0534488
15:19:27:812;-0.47884035;9.9790325;1.0534488
15:19:27:812;-0.47884035;9.9790325;1.0534488
15:19:27:812;-0.47884035;9.9790325;1.0534488
15:19:27:812;-0.47884035;9.9790325;1.0534488
15:19:27:812;-0.47884035;9.9790325;1.0534488
15:19:27:812;-0.47884035;9.9790325;1.0534488
15:19:27:812;-0.47884035;9.9790325;1.0534488
15:19:27:922;-0.2681506;10.477027;0.61291564
15:19:27:922;-0.2681506;10.477027;0.61291564
15:19:27:922;-0.2681506;10.477027;0.61291564
15:19:27:922;-0.2681506;10.477027;0.61291564
15:19:27:922;-0.2681506;10.477027;0.61291564
15:19:27:922;-0.2681506;10.477027;0.61291564
15:19:27:922;-0.2681506;10.477027;0.61291564
15:19:27:922;-0.2681506;10.477027;0.61291564
15:19:27:922;-0.2681506;10.477027;0.61291564
15:19:27:922;-0.2681506;10.477027;0.61291564
15:19:27:922;-0.2681506;10.477027;0.61291564
15:19:27:922;-0.2681506;10.477027;0.61291564
15:19:28:023;-0.24899697;10.208876;0.51714754
15:19:28:023;-0.24899697;10.208876;0.51714754
15:19:28:023;-0.24899697;10.208876;0.51714754
15:19:28:023;-0.24899697;10.208876;0.51714754
15:19:28:023;-0.24899697;10.208876;0.51714754
15:19:28:023;-0.24899697;10.208876;0.51714754
15:19:28:023;-0.24899697;10.208876;0.51714754
15:19:28:023;-0.24899697;10.208876;0.51714754
15:19:28:023;-0.24899697;10.208876;0.51714754
15:19:28:023;-0.24899697;10.208876;0.51714754
15:19:28:023;-0.24899697;10.208876;0.51714754
15:19:28:023;-0.24899697;10.208876;0.51714754
15:19:28:023;-0.24899697;10.208876;0.51714754
15:19:28:023;-0.24899697;10.208876;0.51714754
15:19:28:023;-0.24899697;10.208876;0.51714754
15:19:28:140;-0.5554548;10.01734;0.82360536
15:19:28:140;-0.5554548;10.01734;0.82360536
15:19:28:140;-0.5554548;10.01734;0.82360536
15:19:28:140;-0.5554548;10.01734;0.82360536
15:19:28:140;-0.5554548;10.01734;0.82360536
15:19:28:140;-0.5554548;10.01734;0.82360536
15:19:28:140;-0.5554548;10.01734;0.82360536
15:19:28:140;-0.5554548;10.01734;0.82360536
15:19:28:140;-0.5554548;10.01734;0.82360536
15:19:28:140;-0.5554548;10.01734;0.82360536
15:19:28:140;-0.5554548;10.01734;0.82360536
15:19:28:140;-0.5554548;10.01734;0.82360536
15:19:28:140;-0.5554548;10.01734;0.82360536
15:19:28:140;-0.5554548;10.01734;0.82360536
15:19:28:245;-0.6703765;10.323798;0.8810662
15:19:28:245;-0.6703765;10.323798;0.8810662
15:19:28:245;-0.6703765;10.323798;0.8810662
15:19:28:245;-0.6703765;10.323798;0.8810662
15:19:28:245;-0.6703765;10.323798;0.8810662
15:19:28:245;-0.6703765;10.323798;0.8810662
15:19:28:245;-0.6703765;10.323798;0.8810662
15:19:28:245;-0.6703765;10.323798;0.8810662
15:19:28:245;-0.6703765;10.323798;0.8810662
15:19:28:245;-0.6703765;10.323798;0.8810662
15:19:28:245;-0.6703765;10.323798;0.8810662
15:19:28:245;-0.6703765;10.323798;0.8810662
15:19:28:245;-0.6703765;10.323798;0.8810662
15:19:28:245;-0.6703765;10.323798;0.8810662
15:19:28:357;-0.019153614;9.864111;0.78529817
15:19:28:357;-0.019153614;9.864111;0.78529817
15:19:28:357;-0.019153614;9.864111;0.78529817
15:19:28:357;-0.019153614;9.864111;0.78529817
15:19:28:357;-0.019153614;9.864111;0.78529817
15:19:28:357;-0.019153614;9.864111;0.78529817
15:19:28:357;-0.019153614;9.864111;0.78529817
15:19:28:357;-0.019153614;9.864111;0.78529817
15:19:28:357;-0.019153614;9.864111;0.78529817
15:19:28:357;-0.019153614;9.864111;0.78529817
15:19:28:357;-0.019153614;9.864111;0.78529817
15:19:28:357;-0.019153614;9.864111;0.78529817
15:19:28:357;-0.019153614;9.864111;0.78529817
15:19:28:357;-0.019153614;9.864111;0.78529817
15:19:28:357;-0.019153614;9.864111;0.78529817
15:19:28:475;-0.05746084;10.572795;0.21068975
15:19:28:475;-0.05746084;10.572795;0.21068975
15:19:28:475;-0.05746084;10.572795;0.21068975
15:19:28:475;-0.05746084;10.572795;0.21068975
15:19:28:475;-0.05746084;10.572795;0.21068975
15:19:28:475;-0.05746084;10.572795;0.21068975
15:19:28:475;-0.05746084;10.572795;0.21068975
15:19:28:475;-0.05746084;10.572795;0.21068975
15:19:28:475;-0.05746084;10.572795;0.21068975
15:19:28:475;-0.05746084;10.572795;0.21068975
15:19:28:475;-0.05746084;10.572795;0.21068975
15:19:28:475;-0.05746084;10.572795;0.21068975
15:19:28:475;-0.05746084;10.572795;0.21068975
15:19:28:475;-0.05746084;10.572795;0.21068975
15:19:28:475;-0.05746084;10.572795;0.21068975
15:19:28:593;0.076614454;9.576807;0.6895301
15:19:28:593;0.076614454;9.576807;0.6895301
15:19:28:593;0.076614454;9.576807;0.6895301
15:19:28:593;0.076614454;9.576807;0.6895301
15:19:28:593;0.076614454;9.576807;0.6895301
15:19:28:593;0.076614454;9.576807;0.6895301
15:19:28:593;0.076614454;9.576807;0.6895301
15:19:28:593;0.076614454;9.576807;0.6895301
15:19:28:593;0.076614454;9.576807;0.6895301
15:19:28:593;0.076614454;9.576807;0.6895301
15:19:28:593;0.076614454;9.576807;0.6895301
15:19:28:593;0.076614454;9.576807;0.6895301
15:19:28:593;0.076614454;9.576807;0.6895301
15:19:28:593;0.076614454;9.576807;0.6895301
15:19:28:593;0.076614454;9.576807;0.6895301
15:19:28:710;-0.076614454;10.477027;1.3982137
15:19:28:710;-0.076614454;10.477027;1.3982137
15:19:28:710;-0.076614454;10.477027;1.3982137
15:19:28:710;-0.076614454;10.477027;1.3982137
15:19:28:710;-0.076614454;10.477027;1.3982137
15:19:28:710;-0.076614454;10.477027;1.3982137
15:19:28:710;-0.076614454;10.477027;1.3982137
15:19:28:710;-0.076614454;10.477027;1.3982137
15:19:28:710;-0.076614454;10.477027;1.3982137
15:19:28:710;-0.076614454;10.477027;1.3982137
15:19:28:710;-0.076614454;10.477027;1.3982137
15:19:28:710;-0.076614454;10.477027;1.3982137
15:19:28:710;-0.076614454;10.477027;1.3982137
15:19:28:710;-0.076614454;10.477027;1.3982137
15:19:28:710;-0.076614454;10.477027;1.3982137
15:19:28:828;-1.283292;9.691729;0.038307227
15:19:28:828;-1.283292;9.691729;0.038307227
15:19:28:828;-1.283292;9.691729;0.038307227
15:19:28:828;-1.283292;9.691729;0.038307227
15:19:28:828;-1.283292;9.691729;0.038307227
15:19:28:828;-1.283292;9.691729;0.038307227
15:19:28:828;-1.283292;9.691729;0.038307227
15:19:28:828;-1.283292;9.691729;0.038307227
15:19:28:828;-1.283292;9.691729;0.038307227
15:19:28:828;-1.283292;9.691729;0.038307227
15:19:28:828;-1.283292;9.691729;0.038307227
15:19:28:828;-1.283292;9.691729;0.038307227
15:19:28:828;-1.283292;9.691729;0.038307227
15:19:28:828;-1.283292;9.691729;0.038307227
15:19:28:828;-1.283292;9.691729;0.038307227
15:19:28:828;-1.283292;9.691729;0.038307227
15:19:28:946;0.45968673;10.802638;0.8810662
15:19:28:946;0.45968673;10.802638;0.8810662
15:19:28:946;0.45968673;10.802638;0.8810662
15:19:28:946;0.45968673;10.802638;0.8810662
15:19:28:946;0.45968673;10.802638;0.8810662
15:19:28:946;0.45968673;10.802638;0.8810662
15:19:28:946;0.45968673;10.802638;0.8810662
15:19:28:946;0.45968673;10.802638;0.8810662
15:19:28:946;0.45968673;10.802638;0.8810662
15:19:28:946;0.45968673;10.802638;0.8810662
15:19:28:946;0.45968673;10.802638;0.8810662
15:19:28:946;0.45968673;10.802638;0.8810662
15:19:28:946;0.45968673;10.802638;0.8810662
15:19:28:946;0.45968673;10.802638;0.8810662
15:19:28:946;0.45968673;10.802638;0.8810662
15:19:29:063;-0.5746084;11.18571;0.80445176
15:19:29:063;-0.5746084;11.18571;0.80445176
15:19:29:063;-0.5746084;11.18571;0.80445176
15:19:29:063;-0.5746084;11.18571;0.80445176
15:19:29:063;-0.5746084;11.18571;0.80445176
15:19:29:063;-0.5746084;11.18571;0.80445176
15:19:29:063;-0.5746084;11.18571;0.80445176
15:19:29:063;-0.5746084;11.18571;0.80445176
15:19:29:063;-0.5746084;11.18571;0.80445176
15:19:29:063;-0.5746084;11.18571;0.80445176
15:19:29:063;-0.5746084;11.18571;0.80445176
15:19:29:063;-0.5746084;11.18571;0.80445176
15:19:29:063;-0.5746084;11.18571;0.80445176
15:19:29:063;-0.5746084;11.18571;0.80445176
15:19:29:063;-0.5746084;11.18571;0.80445176
15:19:29:181;0.22984336;10.055647;0.2873042
15:19:29:181;0.22984336;10.055647;0.2873042
15:19:29:181;0.22984336;10.055647;0.2873042
15:19:29:181;0.22984336;10.055647;0.2873042
15:19:29:181;0.22984336;10.055647;0.2873042
15:19:29:181;0.22984336;10.055647;0.2873042
15:19:29:181;0.22984336;10.055647;0.2873042
15:19:29:181;0.22984336;10.055647;0.2873042
15:19:29:181;0.22984336;10.055647;0.2873042
15:19:29:181;0.22984336;10.055647;0.2873042
15:19:29:181;0.22984336;10.055647;0.2873042
15:19:29:181;0.22984336;10.055647;0.2873042
15:19:29:181;0.22984336;10.055647;0.2873042
15:19:29:181;0.22984336;10.055647;0.2873042
15:19:29:181;0.22984336;10.055647;0.2873042
15:19:29:303;-0.61291564;9.691729;0.90021986
15:19:29:303;-0.61291564;9.691729;0.90021986
15:19:29:303;-0.61291564;9.691729;0.90021986
15:19:29:303;-0.61291564;9.691729;0.90021986
15:19:29:303;-0.61291564;9.691729;0.90021986
15:19:29:303;-0.61291564;9.691729;0.90021986
15:19:29:303;-0.61291564;9.691729;0.90021986
15:19:29:303;-0.61291564;9.691729;0.90021986
15:19:29:303;-0.61291564;9.691729;0.90021986
15:19:29:303;-0.61291564;9.691729;0.90021986
15:19:29:303;-0.61291564;9.691729;0.90021986
15:19:29:303;-0.61291564;9.691729;0.90021986
15:19:29:303;-0.61291564;9.691729;0.90021986
15:19:29:303;-0.61291564;9.691729;0.90021986
15:19:29:407;-0.32561144;9.404425;0.6703765
15:19:29:407;-0.32561144;9.404425;0.6703765
15:19:29:407;-0.32561144;9.404425;0.6703765
15:19:29:407;-0.32561144;9.404425;0.6703765
15:19:29:407;-0.32561144;9.404425;0.6703765
15:19:29:407;-0.32561144;9.404425;0.6703765
15:19:29:407;-0.32561144;9.404425;0.6703765
15:19:29:407;-0.32561144;9.404425;0.6703765
15:19:29:407;-0.32561144;9.404425;0.6703765
15:19:29:407;-0.32561144;9.404425;0.6703765
15:19:29:407;-0.32561144;9.404425;0.6703765
15:19:29:407;-0.32561144;9.404425;0.6703765
15:19:29:407;-0.32561144;9.404425;0.6703765
15:19:29:407;-0.32561144;9.404425;0.6703765
15:19:29:407;-0.32561144;9.404425;0.6703765
15:19:29:531;-0.7278373;9.749189;0.842759
15:19:29:531;-0.7278373;9.749189;0.842759
15:19:29:531;-0.7278373;9.749189;0.842759
15:19:29:531;-0.7278373;9.749189;0.842759
15:19:29:531;-0.7278373;9.749189;0.842759
15:19:29:531;-0.7278373;9.749189;0.842759
15:19:29:531;-0.7278373;9.749189;0.842759
15:19:29:531;-0.7278373;9.749189;0.842759
15:19:29:531;-0.7278373;9.749189;0.842759
15:19:29:531;-0.7278373;9.749189;0.842759
15:19:29:531;-0.7278373;9.749189;0.842759
15:19:29:531;-0.7278373;9.749189;0.842759
15:19:29:531;-0.7278373;9.749189;0.842759
15:19:29:531;-0.7278373;9.749189;0.842759
15:19:29:531;-0.7278373;9.749189;0.842759
15:19:29:531;-0.7278373;9.749189;0.842759
15:19:29:531;-0.7278373;9.749189;0.842759
15:19:29:531;-0.7278373;9.749189;0.842759
15:19:29:669;-0.17238252;9.921572;0.49799395
15:19:29:669;-0.17238252;9.921572;0.49799395
15:19:29:669;-0.17238252;9.921572;0.49799395
15:19:29:669;-0.17238252;9.921572;0.49799395
15:19:29:669;-0.17238252;9.921572;0.49799395
15:19:29:669;-0.17238252;9.921572;0.49799395
15:19:29:669;-0.17238252;9.921572;0.49799395
15:19:29:669;-0.17238252;9.921572;0.49799395
15:19:29:669;-0.17238252;9.921572;0.49799395
15:19:29:669;-0.17238252;9.921572;0.49799395
15:19:29:669;-0.17238252;9.921572;0.49799395
15:19:29:669;-0.17238252;9.921572;0.49799395
15:19:29:669;-0.17238252;9.921572;0.49799395
15:19:29:669;-0.17238252;9.921572;0.49799395
15:19:29:669;-0.17238252;9.921572;0.49799395
15:19:29:783;-0.5746084;10.381259;0.30645782
15:19:29:783;-0.5746084;10.381259;0.30645782
15:19:29:783;-0.5746084;10.381259;0.30645782
15:19:29:783;-0.5746084;10.381259;0.30645782
15:19:29:783;-0.5746084;10.381259;0.30645782
15:19:29:783;-0.5746084;10.381259;0.30645782
15:19:29:783;-0.5746084;10.381259;0.30645782
15:19:29:783;-0.5746084;10.381259;0.30645782
15:19:29:783;-0.5746084;10.381259;0.30645782
15:19:29:783;-0.5746084;10.381259;0.30645782
15:19:29:783;-0.5746084;10.381259;0.30645782
15:19:29:783;-0.5746084;10.381259;0.30645782
15:19:29:783;-0.5746084;10.381259;0.30645782
15:19:29:783;-0.5746084;10.381259;0.30645782
15:19:29:783;-0.5746084;10.381259;0.30645782
15:19:29:902;-0.5554548;9.346964;0.842759
15:19:29:902;-0.5554548;9.346964;0.842759
15:19:29:902;-0.5554548;9.346964;0.842759
15:19:29:902;-0.5554548;9.346964;0.842759
15:19:29:902;-0.5554548;9.346964;0.842759
15:19:29:902;-0.5554548;9.346964;0.842759
15:19:29:902;-0.5554548;9.346964;0.842759
15:19:29:902;-0.5554548;9.346964;0.842759
15:19:29:902;-0.5554548;9.346964;0.842759
15:19:29:902;-0.5554548;9.346964;0.842759
15:19:29:902;-0.5554548;9.346964;0.842759
15:19:29:902;-0.5554548;9.346964;0.842759
15:19:29:902;-0.5554548;9.346964;0.842759
15:19:29:902;-0.5554548;9.346964;0.842759
15:19:29:902;-0.5554548;9.346964;0.842759
15:19:30:021;-0.40222588;10.208876;0.15322891
15:19:30:021;-0.40222588;10.208876;0.15322891
15:19:30:021;-0.40222588;10.208876;0.15322891
15:19:30:021;-0.40222588;10.208876;0.15322891
15:19:30:021;-0.40222588;10.208876;0.15322891
15:19:30:021;-0.40222588;10.208876;0.15322891
15:19:30:021;-0.40222588;10.208876;0.15322891
15:19:30:021;-0.40222588;10.208876;0.15322891
15:19:30:021;-0.40222588;10.208876;0.15322891
15:19:30:021;-0.40222588;10.208876;0.15322891
15:19:30:021;-0.40222588;10.208876;0.15322891
15:19:30:021;-0.40222588;10.208876;0.15322891
15:19:30:021;-0.40222588;10.208876;0.15322891
15:19:30:021;-0.40222588;10.208876;0.15322891
15:19:30:021;-0.40222588;10.208876;0.15322891
15:19:30:021;-0.40222588;10.208876;0.15322891
15:19:30:141;-0.51714754;9.9790325;0.5554548
15:19:30:141;-0.51714754;9.9790325;0.5554548
15:19:30:141;-0.51714754;9.9790325;0.5554548
15:19:30:141;-0.51714754;9.9790325;0.5554548
15:19:30:141;-0.51714754;9.9790325;0.5554548
15:19:30:141;-0.51714754;9.9790325;0.5554548
15:19:30:141;-0.51714754;9.9790325;0.5554548
15:19:30:141;-0.51714754;9.9790325;0.5554548
15:19:30:141;-0.51714754;9.9790325;0.5554548
15:19:30:141;-0.51714754;9.9790325;0.5554548
15:19:30:141;-0.51714754;9.9790325;0.5554548
15:19:30:141;-0.51714754;9.9790325;0.5554548
15:19:30:141;-0.51714754;9.9790325;0.5554548
15:19:30:141;-0.51714754;9.9790325;0.5554548
15:19:30:141;-0.51714754;9.9790325;0.5554548
15:19:30:260;-0.17238252;9.864111;0.2681506
15:19:30:260;-0.17238252;9.864111;0.2681506
15:19:30:260;-0.17238252;9.864111;0.2681506
15:19:30:260;-0.17238252;9.864111;0.2681506
15:19:30:260;-0.17238252;9.864111;0.2681506
15:19:30:260;-0.17238252;9.864111;0.2681506
15:19:30:260;-0.17238252;9.864111;0.2681506
15:19:30:260;-0.17238252;9.864111;0.2681506
15:19:30:260;-0.17238252;9.864111;0.2681506
15:19:30:260;-0.17238252;9.864111;0.2681506
15:19:30:260;-0.17238252;9.864111;0.2681506
15:19:30:260;-0.17238252;9.864111;0.2681506
15:19:30:260;-0.17238252;9.864111;0.2681506
15:19:30:260;-0.17238252;9.864111;0.2681506
15:19:30:260;-0.17238252;9.864111;0.2681506
15:19:30:379;-0.63206923;9.653421;0.45968673
15:19:30:379;-0.63206923;9.653421;0.45968673
15:19:30:379;-0.63206923;9.653421;0.45968673
15:19:30:379;-0.63206923;9.653421;0.45968673
15:19:30:379;-0.63206923;9.653421;0.45968673
15:19:30:379;-0.63206923;9.653421;0.45968673
15:19:30:379;-0.63206923;9.653421;0.45968673
15:19:30:379;-0.63206923;9.653421;0.45968673
15:19:30:379;-0.63206923;9.653421;0.45968673
15:19:30:379;-0.63206923;9.653421;0.45968673
15:19:30:379;-0.63206923;9.653421;0.45968673
15:19:30:379;-0.63206923;9.653421;0.45968673
15:19:30:379;-0.63206923;9.653421;0.45968673
15:19:30:379;-0.63206923;9.653421;0.45968673
15:19:30:489;0.49799395;10.113108;0.11492168
15:19:30:489;0.49799395;10.113108;0.11492168
15:19:30:489;0.49799395;10.113108;0.11492168
15:19:30:489;0.49799395;10.113108;0.11492168
15:19:30:489;0.49799395;10.113108;0.11492168
15:19:30:489;0.49799395;10.113108;0.11492168
15:19:30:489;0.49799395;10.113108;0.11492168
15:19:30:489;0.49799395;10.113108;0.11492168
15:19:30:489;0.49799395;10.113108;0.11492168
15:19:30:489;0.49799395;10.113108;0.11492168
15:19:30:489;0.49799395;10.113108;0.11492168
15:19:30:489;0.49799395;10.113108;0.11492168
15:19:30:489;0.49799395;10.113108;0.11492168
15:19:30:489;0.49799395;10.113108;0.11492168
15:19:30:489;0.49799395;10.113108;0.11492168
15:19:30:607;-0.17238252;9.691729;0.6703765
15:19:30:607;-0.17238252;9.691729;0.6703765
15:19:30:607;-0.17238252;9.691729;0.6703765
15:19:30:607;-0.17238252;9.691729;0.6703765
15:19:30:607;-0.17238252;9.691729;0.6703765
15:19:30:607;-0.17238252;9.691729;0.6703765
15:19:30:607;-0.17238252;9.691729;0.6703765
15:19:30:607;-0.17238252;9.691729;0.6703765
15:19:30:607;-0.17238252;9.691729;0.6703765
15:19:30:607;-0.17238252;9.691729;0.6703765
15:19:30:607;-0.17238252;9.691729;0.6703765
15:19:30:607;-0.17238252;9.691729;0.6703765
15:19:30:607;-0.17238252;9.691729;0.6703765
15:19:30:607;-0.17238252;9.691729;0.6703765
15:19:30:607;-0.17238252;9.691729;0.6703765
15:19:30:607;-0.17238252;9.691729;0.6703765
15:19:30:734;-0.82360536;9.844957;0.24899697
15:19:30:734;-0.82360536;9.844957;0.24899697
15:19:30:734;-0.82360536;9.844957;0.24899697
15:19:30:734;-0.82360536;9.844957;0.24899697
15:19:30:734;-0.82360536;9.844957;0.24899697
15:19:30:734;-0.82360536;9.844957;0.24899697
15:19:30:734;-0.82360536;9.844957;0.24899697
15:19:30:734;-0.82360536;9.844957;0.24899697
15:19:30:734;-0.82360536;9.844957;0.24899697
15:19:30:734;-0.82360536;9.844957;0.24899697
15:19:30:734;-0.82360536;9.844957;0.24899697
15:19:30:734;-0.82360536;9.844957;0.24899697
15:19:30:734;-0.82360536;9.844957;0.24899697
15:19:30:734;-0.82360536;9.844957;0.24899697
15:19:30:734;-0.82360536;9.844957;0.24899697
15:19:30:848;-0.24899697;9.844957;0.47884035
15:19:30:848;-0.24899697;9.844957;0.47884035
15:19:30:848;-0.24899697;9.844957;0.47884035
15:19:30:848;-0.24899697;9.844957;0.47884035
15:19:30:848;-0.24899697;9.844957;0.47884035
15:19:30:848;-0.24899697;9.844957;0.47884035
15:19:30:848;-0.24899697;9.844957;0.47884035
15:19:30:848;-0.24899697;9.844957;0.47884035
15:19:30:848;-0.24899697;9.844957;0.47884035
15:19:30:848;-0.24899697;9.844957;0.47884035
15:19:30:848;-0.24899697;9.844957;0.47884035
15:19:30:848;-0.24899697;9.844957;0.47884035
15:19:30:848;-0.24899697;9.844957;0.47884035
15:19:30:848;-0.24899697;9.844957;0.47884035
15:19:30:848;-0.24899697;9.844957;0.47884035
15:19:30:967;-0.59376204;9.902418;0.6895301
15:19:30:967;-0.59376204;9.902418;0.6895301
15:19:30:967;-0.59376204;9.902418;0.6895301
15:19:30:967;-0.59376204;9.902418;0.6895301
15:19:30:967;-0.59376204;9.902418;0.6895301
15:19:30:967;-0.59376204;9.902418;0.6895301
15:19:30:967;-0.59376204;9.902418;0.6895301
15:19:30:967;-0.59376204;9.902418;0.6895301
15:19:30:967;-0.59376204;9.902418;0.6895301
15:19:30:967;-0.59376204;9.902418;0.6895301
15:19:30:967;-0.59376204;9.902418;0.6895301
15:19:30:967;-0.59376204;9.902418;0.6895301
15:19:30:967;-0.59376204;9.902418;0.6895301
15:19:30:967;-0.59376204;9.902418;0.6895301
15:19:30:967;-0.59376204;9.902418;0.6895301
15:19:30:967;-0.59376204;9.902418;0.6895301
15:19:31:086;-0.6703765;9.576807;0.24899697
15:19:31:086;-0.6703765;9.576807;0.24899697
15:19:31:086;-0.6703765;9.576807;0.24899697
15:19:31:086;-0.6703765;9.576807;0.24899697
15:19:31:086;-0.6703765;9.576807;0.24899697
15:19:31:086;-0.6703765;9.576807;0.24899697
15:19:31:086;-0.6703765;9.576807;0.24899697
