Time_Accel;AccelX;AccelY;AccelZ
13:05:31:371;-0.4405331;9.787497;0.4213795
13:05:31:371;-0.4405331;9.787497;0.4213795
13:05:31:371;-0.4405331;9.787497;0.4213795
13:05:31:371;-0.4405331;9.787497;0.4213795
13:05:31:371;-0.4405331;9.787497;0.4213795
13:05:31:486;-0.80445176;9.921572;0.7278373
13:05:31:486;-0.80445176;9.921572;0.7278373
13:05:31:486;-0.80445176;9.921572;0.7278373
13:05:31:486;-0.80445176;9.921572;0.7278373
13:05:31:486;-0.80445176;9.921572;0.7278373
13:05:31:486;-0.80445176;9.921572;0.7278373
13:05:31:486;-0.80445176;9.921572;0.7278373
13:05:31:486;-0.80445176;9.921572;0.7278373
13:05:31:486;-0.80445176;9.921572;0.7278373
13:05:31:486;-0.80445176;9.921572;0.7278373
13:05:31:486;-0.80445176;9.921572;0.7278373
13:05:31:486;-0.80445176;9.921572;0.7278373
13:05:31:486;-0.80445176;9.921572;0.7278373
13:05:31:486;-0.80445176;9.921572;0.7278373
13:05:31:486;-0.80445176;9.921572;0.7278373
13:05:31:604;0.24899697;10.036493;-0.1340753
13:05:31:604;0.24899697;10.036493;-0.1340753
13:05:31:604;0.24899697;10.036493;-0.1340753
13:05:31:604;0.24899697;10.036493;-0.1340753
13:05:31:604;0.24899697;10.036493;-0.1340753
13:05:31:604;0.24899697;10.036493;-0.1340753
13:05:31:604;0.24899697;10.036493;-0.1340753
13:05:31:604;0.24899697;10.036493;-0.1340753
13:05:31:604;0.24899697;10.036493;-0.1340753
13:05:31:604;0.24899697;10.036493;-0.1340753
13:05:31:604;0.24899697;10.036493;-0.1340753
13:05:31:604;0.24899697;10.036493;-0.1340753
13:05:31:604;0.24899697;10.036493;-0.1340753
13:05:31:707;0.34476504;9.021352;-0.7278373
13:05:31:707;0.34476504;9.021352;-0.7278373
13:05:31:707;0.34476504;9.021352;-0.7278373
13:05:31:707;0.34476504;9.021352;-0.7278373
13:05:31:707;0.34476504;9.021352;-0.7278373
13:05:31:707;0.34476504;9.021352;-0.7278373
13:05:31:707;0.34476504;9.021352;-0.7278373
13:05:31:707;0.34476504;9.021352;-0.7278373
13:05:31:707;0.34476504;9.021352;-0.7278373
13:05:31:707;0.34476504;9.021352;-0.7278373
13:05:31:707;0.34476504;9.021352;-0.7278373
13:05:31:707;0.34476504;9.021352;-0.7278373
13:05:31:707;0.34476504;9.021352;-0.7278373
13:05:31:707;0.34476504;9.021352;-0.7278373
13:05:31:707;0.34476504;9.021352;-0.7278373
13:05:31:822;-0.11492168;8.944737;0.82360536
13:05:31:822;-0.11492168;8.944737;0.82360536
13:05:31:822;-0.11492168;8.944737;0.82360536
13:05:31:822;-0.11492168;8.944737;0.82360536
13:05:31:822;-0.11492168;8.944737;0.82360536
13:05:31:822;-0.11492168;8.944737;0.82360536
13:05:31:822;-0.11492168;8.944737;0.82360536
13:05:31:822;-0.11492168;8.944737;0.82360536
13:05:31:822;-0.11492168;8.944737;0.82360536
13:05:31:822;-0.11492168;8.944737;0.82360536
13:05:31:822;-0.11492168;8.944737;0.82360536
13:05:31:822;-0.11492168;8.944737;0.82360536
13:05:31:822;-0.11492168;8.944737;0.82360536
13:05:31:822;-0.11492168;8.944737;0.82360536
13:05:31:822;-0.11492168;8.944737;0.82360536
13:05:31:945;-1.0726024;9.5385;-0.34476504
13:05:31:945;-1.0726024;9.5385;-0.34476504
13:05:31:945;-1.0726024;9.5385;-0.34476504
13:05:31:945;-1.0726024;9.5385;-0.34476504
13:05:31:945;-1.0726024;9.5385;-0.34476504
13:05:31:945;-1.0726024;9.5385;-0.34476504
13:05:31:945;-1.0726024;9.5385;-0.34476504
13:05:31:945;-1.0726024;9.5385;-0.34476504
13:05:31:945;-1.0726024;9.5385;-0.34476504
13:05:31:945;-1.0726024;9.5385;-0.34476504
13:05:31:945;-1.0726024;9.5385;-0.34476504
13:05:31:945;-1.0726024;9.5385;-0.34476504
13:05:31:945;-1.0726024;9.5385;-0.34476504
13:05:31:945;-1.0726024;9.5385;-0.34476504
13:05:32:052;-0.2873042;9.576807;1.340753
13:05:32:052;-0.2873042;9.576807;1.340753
13:05:32:052;-0.2873042;9.576807;1.340753
13:05:32:052;-0.2873042;9.576807;1.340753
13:05:32:052;-0.2873042;9.576807;1.340753
13:05:32:052;-0.2873042;9.576807;1.340753
13:05:32:052;-0.2873042;9.576807;1.340753
13:05:32:052;-0.2873042;9.576807;1.340753
13:05:32:052;-0.2873042;9.576807;1.340753
13:05:32:052;-0.2873042;9.576807;1.340753
13:05:32:052;-0.2873042;9.576807;1.340753
13:05:32:052;-0.2873042;9.576807;1.340753
13:05:32:052;-0.2873042;9.576807;1.340753
13:05:32:052;-0.2873042;9.576807;1.340753
13:05:32:052;-0.2873042;9.576807;1.340753
13:05:32:052;-0.2873042;9.576807;1.340753
13:05:32:052;-0.2873042;9.576807;1.340753
13:05:32:182;-0.34476504;10.649409;1.2449849
13:05:32:182;-0.34476504;10.649409;1.2449849
13:05:32:182;-0.34476504;10.649409;1.2449849
13:05:32:182;-0.34476504;10.649409;1.2449849
13:05:32:182;-0.34476504;10.649409;1.2449849
13:05:32:182;-0.34476504;10.649409;1.2449849
13:05:32:182;-0.34476504;10.649409;1.2449849
13:05:32:182;-0.34476504;10.649409;1.2449849
13:05:32:182;-0.34476504;10.649409;1.2449849
13:05:32:182;-0.34476504;10.649409;1.2449849
13:05:32:182;-0.34476504;10.649409;1.2449849
13:05:32:182;-0.34476504;10.649409;1.2449849
13:05:32:182;-0.34476504;10.649409;1.2449849
13:05:32:287;-0.40222588;8.331821;0.9768343
13:05:32:287;-0.40222588;8.331821;0.9768343
13:05:32:287;-0.40222588;8.331821;0.9768343
13:05:32:287;-0.40222588;8.331821;0.9768343
13:05:32:287;-0.40222588;8.331821;0.9768343
13:05:32:287;-0.40222588;8.331821;0.9768343
13:05:32:287;-0.40222588;8.331821;0.9768343
13:05:32:287;-0.40222588;8.331821;0.9768343
13:05:32:287;-0.40222588;8.331821;0.9768343
13:05:32:287;-0.40222588;8.331821;0.9768343
13:05:32:287;-0.40222588;8.331821;0.9768343
13:05:32:287;-0.40222588;8.331821;0.9768343
13:05:32:287;-0.40222588;8.331821;0.9768343
13:05:32:287;-0.40222588;8.331821;0.9768343
13:05:32:287;-0.40222588;8.331821;0.9768343
13:05:32:287;-0.40222588;8.331821;0.9768343
13:05:32:287;-0.40222588;8.331821;0.9768343
13:05:32:287;-0.40222588;8.331821;0.9768343
13:05:32:425;-0.90021986;11.377247;0.22984336
13:05:32:425;-0.90021986;11.377247;0.22984336
13:05:32:425;-0.90021986;11.377247;0.22984336
13:05:32:425;-0.90021986;11.377247;0.22984336
13:05:32:425;-0.90021986;11.377247;0.22984336
13:05:32:425;-0.90021986;11.377247;0.22984336
13:05:32:425;-0.90021986;11.377247;0.22984336
13:05:32:425;-0.90021986;11.377247;0.22984336
13:05:32:425;-0.90021986;11.377247;0.22984336
13:05:32:425;-0.90021986;11.377247;0.22984336
13:05:32:425;-0.90021986;11.377247;0.22984336
13:05:32:425;-0.90021986;11.377247;0.22984336
13:05:32:425;-0.90021986;11.377247;0.22984336
13:05:32:425;-0.90021986;11.377247;0.22984336
13:05:32:532;0.05746084;8.619126;2.0111294
13:05:32:532;0.05746084;8.619126;2.0111294
13:05:32:532;0.05746084;8.619126;2.0111294
13:05:32:532;0.05746084;8.619126;2.0111294
13:05:32:532;0.05746084;8.619126;2.0111294
13:05:32:532;0.05746084;8.619126;2.0111294
13:05:32:532;0.05746084;8.619126;2.0111294
13:05:32:532;0.05746084;8.619126;2.0111294
13:05:32:532;0.05746084;8.619126;2.0111294
13:05:32:532;0.05746084;8.619126;2.0111294
13:05:32:532;0.05746084;8.619126;2.0111294
13:05:32:532;0.05746084;8.619126;2.0111294
13:05:32:532;0.05746084;8.619126;2.0111294
13:05:32:532;0.05746084;8.619126;2.0111294
13:05:32:532;0.05746084;8.619126;2.0111294
13:05:32:652;-0.38307226;11.319786;-0.05746084
13:05:32:652;-0.38307226;11.319786;-0.05746084
13:05:32:652;-0.38307226;11.319786;-0.05746084
13:05:32:652;-0.38307226;11.319786;-0.05746084
13:05:32:652;-0.38307226;11.319786;-0.05746084
13:05:32:652;-0.38307226;11.319786;-0.05746084
13:05:32:652;-0.38307226;11.319786;-0.05746084
13:05:32:652;-0.38307226;11.319786;-0.05746084
13:05:32:652;-0.38307226;11.319786;-0.05746084
13:05:32:652;-0.38307226;11.319786;-0.05746084
13:05:32:652;-0.38307226;11.319786;-0.05746084
13:05:32:652;-0.38307226;11.319786;-0.05746084
13:05:32:652;-0.38307226;11.319786;-0.05746084
13:05:32:652;-0.38307226;11.319786;-0.05746084
13:05:32:652;-0.38307226;11.319786;-0.05746084
13:05:32:770;-0.2873042;8.446744;1.4556746
13:05:32:770;-0.2873042;8.446744;1.4556746
13:05:32:770;-0.2873042;8.446744;1.4556746
13:05:32:770;-0.2873042;8.446744;1.4556746
13:05:32:770;-0.2873042;8.446744;1.4556746
13:05:32:770;-0.2873042;8.446744;1.4556746
13:05:32:770;-0.2873042;8.446744;1.4556746
13:05:32:770;-0.2873042;8.446744;1.4556746
13:05:32:770;-0.2873042;8.446744;1.4556746
13:05:32:770;-0.2873042;8.446744;1.4556746
13:05:32:770;-0.2873042;8.446744;1.4556746
13:05:32:770;-0.2873042;8.446744;1.4556746
13:05:32:770;-0.2873042;8.446744;1.4556746
13:05:32:770;-0.2873042;8.446744;1.4556746
13:05:32:770;-0.2873042;8.446744;1.4556746
13:05:32:887;-0.7086837;9.653421;1.5897499
13:05:32:887;-0.7086837;9.653421;1.5897499
13:05:32:887;-0.7086837;9.653421;1.5897499
13:05:32:887;-0.7086837;9.653421;1.5897499
13:05:32:887;-0.7086837;9.653421;1.5897499
13:05:32:887;-0.7086837;9.653421;1.5897499
13:05:32:887;-0.7086837;9.653421;1.5897499
13:05:32:887;-0.7086837;9.653421;1.5897499
13:05:32:887;-0.7086837;9.653421;1.5897499
13:05:32:887;-0.7086837;9.653421;1.5897499
13:05:32:887;-0.7086837;9.653421;1.5897499
13:05:32:887;-0.7086837;9.653421;1.5897499
13:05:32:887;-0.7086837;9.653421;1.5897499
13:05:32:887;-0.7086837;9.653421;1.5897499
13:05:32:887;-0.7086837;9.653421;1.5897499
13:05:32:887;-0.7086837;9.653421;1.5897499
13:05:32:887;-0.7086837;9.653421;1.5897499
13:05:32:887;-0.7086837;9.653421;1.5897499
13:05:32:887;-0.7086837;9.653421;1.5897499
13:05:32:887;-0.7086837;9.653421;1.5897499
13:05:33:041;-0.6895301;10.5919485;1.6472107
13:05:33:041;-0.6895301;10.5919485;1.6472107
13:05:33:041;-0.6895301;10.5919485;1.6472107
13:05:33:041;-0.6895301;10.5919485;1.6472107
13:05:33:041;-0.6895301;10.5919485;1.6472107
13:05:33:041;-0.6895301;10.5919485;1.6472107
13:05:33:041;-0.6895301;10.5919485;1.6472107
13:05:33:041;-0.6895301;10.5919485;1.6472107
13:05:33:041;-0.6895301;10.5919485;1.6472107
13:05:33:041;-0.6895301;10.5919485;1.6472107
13:05:33:041;-0.6895301;10.5919485;1.6472107
13:05:33:041;-0.6895301;10.5919485;1.6472107
13:05:33:041;-0.6895301;10.5919485;1.6472107
13:05:33:145;-0.51714754;9.825804;0.21068975
13:05:33:145;-0.51714754;9.825804;0.21068975
13:05:33:145;-0.51714754;9.825804;0.21068975
13:05:33:145;-0.51714754;9.825804;0.21068975
13:05:33:145;-0.51714754;9.825804;0.21068975
13:05:33:145;-0.51714754;9.825804;0.21068975
13:05:33:145;-0.51714754;9.825804;0.21068975
13:05:33:145;-0.51714754;9.825804;0.21068975
13:05:33:145;-0.51714754;9.825804;0.21068975
13:05:33:145;-0.51714754;9.825804;0.21068975
13:05:33:145;-0.51714754;9.825804;0.21068975
13:05:33:145;-0.51714754;9.825804;0.21068975
13:05:33:145;-0.51714754;9.825804;0.21068975
13:05:33:246;0.15322891;8.350976;0.90021986
13:05:33:246;0.15322891;8.350976;0.90021986
13:05:33:246;0.15322891;8.350976;0.90021986
13:05:33:246;0.15322891;8.350976;0.90021986
13:05:33:246;0.15322891;8.350976;0.90021986
13:05:33:246;0.15322891;8.350976;0.90021986
13:05:33:246;0.15322891;8.350976;0.90021986
13:05:33:246;0.15322891;8.350976;0.90021986
13:05:33:246;0.15322891;8.350976;0.90021986
13:05:33:246;0.15322891;8.350976;0.90021986
13:05:33:246;0.15322891;8.350976;0.90021986
13:05:33:246;0.15322891;8.350976;0.90021986
13:05:33:246;0.15322891;8.350976;0.90021986
13:05:33:246;0.15322891;8.350976;0.90021986
13:05:33:246;0.15322891;8.350976;0.90021986
13:05:33:363;-0.15322891;9.768343;0.49799395
13:05:33:363;-0.15322891;9.768343;0.49799395
13:05:33:363;-0.15322891;9.768343;0.49799395
13:05:33:363;-0.15322891;9.768343;0.49799395
13:05:33:363;-0.15322891;9.768343;0.49799395
13:05:33:363;-0.15322891;9.768343;0.49799395
13:05:33:363;-0.15322891;9.768343;0.49799395
13:05:33:363;-0.15322891;9.768343;0.49799395
13:05:33:363;-0.15322891;9.768343;0.49799395
13:05:33:363;-0.15322891;9.768343;0.49799395
13:05:33:363;-0.15322891;9.768343;0.49799395
13:05:33:363;-0.15322891;9.768343;0.49799395
13:05:33:363;-0.15322891;9.768343;0.49799395
13:05:33:465;-0.7469909;10.400413;0.7661445
13:05:33:465;-0.7469909;10.400413;0.7661445
13:05:33:465;-0.7469909;10.400413;0.7661445
13:05:33:465;-0.7469909;10.400413;0.7661445
13:05:33:465;-0.7469909;10.400413;0.7661445
13:05:33:465;-0.7469909;10.400413;0.7661445
13:05:33:465;-0.7469909;10.400413;0.7661445
13:05:33:465;-0.7469909;10.400413;0.7661445
13:05:33:465;-0.7469909;10.400413;0.7661445
13:05:33:465;-0.7469909;10.400413;0.7661445
13:05:33:465;-0.7469909;10.400413;0.7661445
13:05:33:465;-0.7469909;10.400413;0.7661445
13:05:33:465;-0.7469909;10.400413;0.7661445
13:05:33:465;-0.7469909;10.400413;0.7661445
13:05:33:465;-0.7469909;10.400413;0.7661445
13:05:33:582;-1.1300632;11.530476;-0.11492168
13:05:33:582;-1.1300632;11.530476;-0.11492168
13:05:33:582;-1.1300632;11.530476;-0.11492168
13:05:33:582;-1.1300632;11.530476;-0.11492168
13:05:33:582;-1.1300632;11.530476;-0.11492168
13:05:33:582;-1.1300632;11.530476;-0.11492168
13:05:33:582;-1.1300632;11.530476;-0.11492168
13:05:33:582;-1.1300632;11.530476;-0.11492168
13:05:33:582;-1.1300632;11.530476;-0.11492168
13:05:33:582;-1.1300632;11.530476;-0.11492168
13:05:33:582;-1.1300632;11.530476;-0.11492168
13:05:33:582;-1.1300632;11.530476;-0.11492168
13:05:33:582;-1.1300632;11.530476;-0.11492168
13:05:33:683;-0.36391866;11.243171;0.038307227
13:05:33:683;-0.36391866;11.243171;0.038307227
13:05:33:683;-0.36391866;11.243171;0.038307227
13:05:33:683;-0.36391866;11.243171;0.038307227
13:05:33:683;-0.36391866;11.243171;0.038307227
13:05:33:683;-0.36391866;11.243171;0.038307227
13:05:33:683;-0.36391866;11.243171;0.038307227
13:05:33:683;-0.36391866;11.243171;0.038307227
13:05:33:683;-0.36391866;11.243171;0.038307227
13:05:33:683;-0.36391866;11.243171;0.038307227
13:05:33:683;-0.36391866;11.243171;0.038307227
13:05:33:683;-0.36391866;11.243171;0.038307227
13:05:33:683;-0.36391866;11.243171;0.038307227
13:05:33:683;-0.36391866;11.243171;0.038307227
13:05:33:683;-0.36391866;11.243171;0.038307227
13:05:33:801;-0.30645782;9.212888;1.3982137
13:05:33:801;-0.30645782;9.212888;1.3982137
13:05:33:801;-0.30645782;9.212888;1.3982137
13:05:33:801;-0.30645782;9.212888;1.3982137
13:05:33:801;-0.30645782;9.212888;1.3982137
13:05:33:801;-0.30645782;9.212888;1.3982137
13:05:33:801;-0.30645782;9.212888;1.3982137
13:05:33:801;-0.30645782;9.212888;1.3982137
13:05:33:801;-0.30645782;9.212888;1.3982137
13:05:33:801;-0.30645782;9.212888;1.3982137
13:05:33:801;-0.30645782;9.212888;1.3982137
13:05:33:801;-0.30645782;9.212888;1.3982137
13:05:33:801;-0.30645782;9.212888;1.3982137
13:05:33:801;-0.30645782;9.212888;1.3982137
13:05:33:801;-0.30645782;9.212888;1.3982137
13:05:33:918;-0.019153614;10.28549;-0.2873042
13:05:33:918;-0.019153614;10.28549;-0.2873042
13:05:33:918;-0.019153614;10.28549;-0.2873042
13:05:33:918;-0.019153614;10.28549;-0.2873042
13:05:33:918;-0.019153614;10.28549;-0.2873042
13:05:33:918;-0.019153614;10.28549;-0.2873042
13:05:33:918;-0.019153614;10.28549;-0.2873042
13:05:33:918;-0.019153614;10.28549;-0.2873042
13:05:33:918;-0.019153614;10.28549;-0.2873042
13:05:33:918;-0.019153614;10.28549;-0.2873042
13:05:33:918;-0.019153614;10.28549;-0.2873042
13:05:33:918;-0.019153614;10.28549;-0.2873042
13:05:33:918;-0.019153614;10.28549;-0.2873042
13:05:33:918;-0.019153614;10.28549;-0.2873042
13:05:33:918;-0.019153614;10.28549;-0.2873042
13:05:33:918;-0.019153614;10.28549;-0.2873042
13:05:34:041;-0.095768064;9.346964;1.7238252
13:05:34:041;-0.095768064;9.346964;1.7238252
13:05:34:041;-0.095768064;9.346964;1.7238252
13:05:34:041;-0.095768064;9.346964;1.7238252
13:05:34:041;-0.095768064;9.346964;1.7238252
13:05:34:041;-0.095768064;9.346964;1.7238252
13:05:34:041;-0.095768064;9.346964;1.7238252
13:05:34:041;-0.095768064;9.346964;1.7238252
13:05:34:041;-0.095768064;9.346964;1.7238252
13:05:34:041;-0.095768064;9.346964;1.7238252
13:05:34:041;-0.095768064;9.346964;1.7238252
13:05:34:041;-0.095768064;9.346964;1.7238252
13:05:34:041;-0.095768064;9.346964;1.7238252
13:05:34:041;-0.095768064;9.346964;1.7238252
13:05:34:041;-0.095768064;9.346964;1.7238252
13:05:34:159;-0.49799395;10.840945;0.45968673
13:05:34:159;-0.49799395;10.840945;0.45968673
13:05:34:159;-0.49799395;10.840945;0.45968673
13:05:34:159;-0.49799395;10.840945;0.45968673
13:05:34:159;-0.49799395;10.840945;0.45968673
13:05:34:159;-0.49799395;10.840945;0.45968673
13:05:34:159;-0.49799395;10.840945;0.45968673
13:05:34:159;-0.49799395;10.840945;0.45968673
13:05:34:159;-0.49799395;10.840945;0.45968673
13:05:34:159;-0.49799395;10.840945;0.45968673
13:05:34:159;-0.49799395;10.840945;0.45968673
13:05:34:159;-0.49799395;10.840945;0.45968673
13:05:34:159;-0.49799395;10.840945;0.45968673
13:05:34:261;-0.2681506;11.358093;0.36391866
13:05:34:261;-0.2681506;11.358093;0.36391866
13:05:34:261;-0.2681506;11.358093;0.36391866
13:05:34:261;-0.2681506;11.358093;0.36391866
13:05:34:261;-0.2681506;11.358093;0.36391866
13:05:34:261;-0.2681506;11.358093;0.36391866
13:05:34:261;-0.2681506;11.358093;0.36391866
13:05:34:261;-0.2681506;11.358093;0.36391866
13:05:34:261;-0.2681506;11.358093;0.36391866
13:05:34:261;-0.2681506;11.358093;0.36391866
13:05:34:261;-0.2681506;11.358093;0.36391866
13:05:34:261;-0.2681506;11.358093;0.36391866
13:05:34:261;-0.2681506;11.358093;0.36391866
13:05:34:261;-0.2681506;11.358093;0.36391866
13:05:34:261;-0.2681506;11.358093;0.36391866
13:05:34:379;-0.842759;9.883265;0.90021986
13:05:34:379;-0.842759;9.883265;0.90021986
13:05:34:379;-0.842759;9.883265;0.90021986
13:05:34:379;-0.842759;9.883265;0.90021986
13:05:34:379;-0.842759;9.883265;0.90021986
13:05:34:379;-0.842759;9.883265;0.90021986
13:05:34:379;-0.842759;9.883265;0.90021986
13:05:34:379;-0.842759;9.883265;0.90021986
13:05:34:379;-0.842759;9.883265;0.90021986
13:05:34:379;-0.842759;9.883265;0.90021986
13:05:34:379;-0.842759;9.883265;0.90021986
13:05:34:379;-0.842759;9.883265;0.90021986
13:05:34:379;-0.842759;9.883265;0.90021986
13:05:34:379;-0.842759;9.883265;0.90021986
13:05:34:486;-0.15322891;10.496181;0.15322891
13:05:34:486;-0.15322891;10.496181;0.15322891
13:05:34:486;-0.15322891;10.496181;0.15322891
13:05:34:486;-0.15322891;10.496181;0.15322891
13:05:34:486;-0.15322891;10.496181;0.15322891
13:05:34:486;-0.15322891;10.496181;0.15322891
13:05:34:486;-0.15322891;10.496181;0.15322891
13:05:34:486;-0.15322891;10.496181;0.15322891
13:05:34:486;-0.15322891;10.496181;0.15322891
13:05:34:486;-0.15322891;10.496181;0.15322891
13:05:34:486;-0.15322891;10.496181;0.15322891
13:05:34:486;-0.15322891;10.496181;0.15322891
13:05:34:486;-0.15322891;10.496181;0.15322891
13:05:34:486;-0.15322891;10.496181;0.15322891
13:05:34:486;-0.15322891;10.496181;0.15322891
13:05:34:604;-0.15322891;10.01734;2.0494366
13:05:34:604;-0.15322891;10.01734;2.0494366
13:05:34:604;-0.15322891;10.01734;2.0494366
13:05:34:604;-0.15322891;10.01734;2.0494366
13:05:34:604;-0.15322891;10.01734;2.0494366
13:05:34:604;-0.15322891;10.01734;2.0494366
13:05:34:604;-0.15322891;10.01734;2.0494366
13:05:34:604;-0.15322891;10.01734;2.0494366
13:05:34:604;-0.15322891;10.01734;2.0494366
13:05:34:604;-0.15322891;10.01734;2.0494366
13:05:34:604;-0.15322891;10.01734;2.0494366
13:05:34:604;-0.15322891;10.01734;2.0494366
13:05:34:604;-0.15322891;10.01734;2.0494366
13:05:34:604;-0.15322891;10.01734;2.0494366
13:05:34:604;-0.15322891;10.01734;2.0494366
13:05:34:604;-0.15322891;10.01734;2.0494366
13:05:34:727;-0.36391866;10.515334;-0.05746084
13:05:34:727;-0.36391866;10.515334;-0.05746084
13:05:34:727;-0.36391866;10.515334;-0.05746084
13:05:34:727;-0.36391866;10.515334;-0.05746084
13:05:34:727;-0.36391866;10.515334;-0.05746084
13:05:34:727;-0.36391866;10.515334;-0.05746084
13:05:34:727;-0.36391866;10.515334;-0.05746084
13:05:34:727;-0.36391866;10.515334;-0.05746084
13:05:34:727;-0.36391866;10.515334;-0.05746084
13:05:34:727;-0.36391866;10.515334;-0.05746084
13:05:34:727;-0.36391866;10.515334;-0.05746084
13:05:34:727;-0.36391866;10.515334;-0.05746084
13:05:34:727;-0.36391866;10.515334;-0.05746084
13:05:34:829;-0.45968673;11.626244;-0.6895301
13:05:34:829;-0.45968673;11.626244;-0.6895301
13:05:34:829;-0.45968673;11.626244;-0.6895301
13:05:34:829;-0.45968673;11.626244;-0.6895301
13:05:34:829;-0.45968673;11.626244;-0.6895301
13:05:34:829;-0.45968673;11.626244;-0.6895301
13:05:34:829;-0.45968673;11.626244;-0.6895301
13:05:34:829;-0.45968673;11.626244;-0.6895301
13:05:34:829;-0.45968673;11.626244;-0.6895301
13:05:34:829;-0.45968673;11.626244;-0.6895301
13:05:34:829;-0.45968673;11.626244;-0.6895301
13:05:34:829;-0.45968673;11.626244;-0.6895301
13:05:34:829;-0.45968673;11.626244;-0.6895301
13:05:34:931;-0.22984336;8.772355;1.8195933
13:05:34:931;-0.22984336;8.772355;1.8195933
13:05:34:931;-0.22984336;8.772355;1.8195933
13:05:34:931;-0.22984336;8.772355;1.8195933
13:05:34:931;-0.22984336;8.772355;1.8195933
13:05:34:931;-0.22984336;8.772355;1.8195933
13:05:34:931;-0.22984336;8.772355;1.8195933
13:05:34:931;-0.22984336;8.772355;1.8195933
13:05:34:931;-0.22984336;8.772355;1.8195933
13:05:34:931;-0.22984336;8.772355;1.8195933
13:05:34:931;-0.22984336;8.772355;1.8195933
13:05:34:931;-0.22984336;8.772355;1.8195933
13:05:34:931;-0.22984336;8.772355;1.8195933
13:05:34:931;-0.22984336;8.772355;1.8195933
13:05:34:931;-0.22984336;8.772355;1.8195933
13:05:34:931;-0.22984336;8.772355;1.8195933
13:05:35:061;-0.6703765;10.113108;0.7469909
13:05:35:061;-0.6703765;10.113108;0.7469909
13:05:35:061;-0.6703765;10.113108;0.7469909
13:05:35:061;-0.6703765;10.113108;0.7469909
13:05:35:061;-0.6703765;10.113108;0.7469909
13:05:35:061;-0.6703765;10.113108;0.7469909
13:05:35:061;-0.6703765;10.113108;0.7469909
13:05:35:061;-0.6703765;10.113108;0.7469909
13:05:35:061;-0.6703765;10.113108;0.7469909
13:05:35:061;-0.6703765;10.113108;0.7469909
13:05:35:061;-0.6703765;10.113108;0.7469909
13:05:35:061;-0.6703765;10.113108;0.7469909
13:05:35:061;-0.6703765;10.113108;0.7469909
13:05:35:163;-0.2873042;11.60709;0.11492168
13:05:35:163;-0.2873042;11.60709;0.11492168
13:05:35:163;-0.2873042;11.60709;0.11492168
13:05:35:163;-0.2873042;11.60709;0.11492168
13:05:35:163;-0.2873042;11.60709;0.11492168
13:05:35:163;-0.2873042;11.60709;0.11492168
13:05:35:163;-0.2873042;11.60709;0.11492168
13:05:35:163;-0.2873042;11.60709;0.11492168
13:05:35:163;-0.2873042;11.60709;0.11492168
13:05:35:163;-0.2873042;11.60709;0.11492168
13:05:35:163;-0.2873042;11.60709;0.11492168
13:05:35:163;-0.2873042;11.60709;0.11492168
13:05:35:163;-0.2873042;11.60709;0.11492168
13:05:35:163;-0.2873042;11.60709;0.11492168
13:05:35:266;-1.1109096;10.955867;0.63206923
13:05:35:266;-1.1109096;10.955867;0.63206923
13:05:35:266;-1.1109096;10.955867;0.63206923
13:05:35:266;-1.1109096;10.955867;0.63206923
13:05:35:266;-1.1109096;10.955867;0.63206923
13:05:35:266;-1.1109096;10.955867;0.63206923
13:05:35:266;-1.1109096;10.955867;0.63206923
13:05:35:266;-1.1109096;10.955867;0.63206923
13:05:35:266;-1.1109096;10.955867;0.63206923
13:05:35:266;-1.1109096;10.955867;0.63206923
13:05:35:266;-1.1109096;10.955867;0.63206923
13:05:35:266;-1.1109096;10.955867;0.63206923
13:05:35:266;-1.1109096;10.955867;0.63206923
13:05:35:370;0.076614454;9.557653;1.0726024
13:05:35:370;0.076614454;9.557653;1.0726024
13:05:35:370;0.076614454;9.557653;1.0726024
13:05:35:370;0.076614454;9.557653;1.0726024
13:05:35:370;0.076614454;9.557653;1.0726024
13:05:35:370;0.076614454;9.557653;1.0726024
13:05:35:370;0.076614454;9.557653;1.0726024
13:05:35:370;0.076614454;9.557653;1.0726024
13:05:35:370;0.076614454;9.557653;1.0726024
13:05:35:370;0.076614454;9.557653;1.0726024
13:05:35:370;0.076614454;9.557653;1.0726024
13:05:35:370;0.076614454;9.557653;1.0726024
13:05:35:370;0.076614454;9.557653;1.0726024
13:05:35:476;-0.7086837;9.136273;0.38307226
13:05:35:476;-0.7086837;9.136273;0.38307226
13:05:35:476;-0.7086837;9.136273;0.38307226
13:05:35:476;-0.7086837;9.136273;0.38307226
13:05:35:476;-0.7086837;9.136273;0.38307226
13:05:35:476;-0.7086837;9.136273;0.38307226
13:05:35:476;-0.7086837;9.136273;0.38307226
13:05:35:476;-0.7086837;9.136273;0.38307226
13:05:35:476;-0.7086837;9.136273;0.38307226
13:05:35:476;-0.7086837;9.136273;0.38307226
13:05:35:476;-0.7086837;9.136273;0.38307226
13:05:35:476;-0.7086837;9.136273;0.38307226
13:05:35:476;-0.7086837;9.136273;0.38307226
13:05:35:476;-0.7086837;9.136273;0.38307226
13:05:35:476;-0.7086837;9.136273;0.38307226
13:05:35:476;-0.7086837;9.136273;0.38307226
13:05:35:596;-0.6703765;10.611102;0.095768064
13:05:35:596;-0.6703765;10.611102;0.095768064
13:05:35:596;-0.6703765;10.611102;0.095768064
13:05:35:596;-0.6703765;10.611102;0.095768064
13:05:35:596;-0.6703765;10.611102;0.095768064
13:05:35:596;-0.6703765;10.611102;0.095768064
13:05:35:596;-0.6703765;10.611102;0.095768064
13:05:35:596;-0.6703765;10.611102;0.095768064
13:05:35:596;-0.6703765;10.611102;0.095768064
13:05:35:596;-0.6703765;10.611102;0.095768064
13:05:35:596;-0.6703765;10.611102;0.095768064
13:05:35:596;-0.6703765;10.611102;0.095768064
13:05:35:596;-0.6703765;10.611102;0.095768064
13:05:35:596;-0.6703765;10.611102;0.095768064
13:05:35:596;-0.6703765;10.611102;0.095768064
13:05:35:711;-1.3024458;10.247183;0.5363012
13:05:35:711;-1.3024458;10.247183;0.5363012
13:05:35:711;-1.3024458;10.247183;0.5363012
13:05:35:711;-1.3024458;10.247183;0.5363012
13:05:35:711;-1.3024458;10.247183;0.5363012
13:05:35:711;-1.3024458;10.247183;0.5363012
13:05:35:711;-1.3024458;10.247183;0.5363012
13:05:35:711;-1.3024458;10.247183;0.5363012
13:05:35:711;-1.3024458;10.247183;0.5363012
13:05:35:711;-1.3024458;10.247183;0.5363012
13:05:35:711;-1.3024458;10.247183;0.5363012
13:05:35:711;-1.3024458;10.247183;0.5363012
13:05:35:711;-1.3024458;10.247183;0.5363012
13:05:35:711;-1.3024458;10.247183;0.5363012
13:05:35:711;-1.3024458;10.247183;0.5363012
13:05:35:832;-1.1875241;11.894394;0.19153613
13:05:35:832;-1.1875241;11.894394;0.19153613
13:05:35:832;-1.1875241;11.894394;0.19153613
13:05:35:832;-1.1875241;11.894394;0.19153613
13:05:35:832;-1.1875241;11.894394;0.19153613
13:05:35:832;-1.1875241;11.894394;0.19153613
13:05:35:832;-1.1875241;11.894394;0.19153613
13:05:35:832;-1.1875241;11.894394;0.19153613
13:05:35:832;-1.1875241;11.894394;0.19153613
13:05:35:832;-1.1875241;11.894394;0.19153613
13:05:35:832;-1.1875241;11.894394;0.19153613
13:05:35:832;-1.1875241;11.894394;0.19153613
13:05:35:832;-1.1875241;11.894394;0.19153613
13:05:35:934;-0.019153614;10.572795;-0.19153613
13:05:35:934;-0.019153614;10.572795;-0.19153613
13:05:35:934;-0.019153614;10.572795;-0.19153613
13:05:35:934;-0.019153614;10.572795;-0.19153613
13:05:35:934;-0.019153614;10.572795;-0.19153613
13:05:35:934;-0.019153614;10.572795;-0.19153613
13:05:35:934;-0.019153614;10.572795;-0.19153613
13:05:35:934;-0.019153614;10.572795;-0.19153613
13:05:35:934;-0.019153614;10.572795;-0.19153613
13:05:35:934;-0.019153614;10.572795;-0.19153613
13:05:35:934;-0.019153614;10.572795;-0.19153613
13:05:35:934;-0.019153614;10.572795;-0.19153613
13:05:35:934;-0.019153614;10.572795;-0.19153613
13:05:36:036;0.21068975;9.883265;1.091756
13:05:36:036;0.21068975;9.883265;1.091756
13:05:36:036;0.21068975;9.883265;1.091756
13:05:36:036;0.21068975;9.883265;1.091756
13:05:36:036;0.21068975;9.883265;1.091756
13:05:36:036;0.21068975;9.883265;1.091756
13:05:36:036;0.21068975;9.883265;1.091756
13:05:36:036;0.21068975;9.883265;1.091756
13:05:36:036;0.21068975;9.883265;1.091756
13:05:36:036;0.21068975;9.883265;1.091756
13:05:36:036;0.21068975;9.883265;1.091756
13:05:36:036;0.21068975;9.883265;1.091756
13:05:36:036;0.21068975;9.883265;1.091756
13:05:36:036;0.21068975;9.883265;1.091756
13:05:36:036;0.21068975;9.883265;1.091756
13:05:36:036;0.21068975;9.883265;1.091756
13:05:36:036;0.21068975;9.883265;1.091756
13:05:36:166;-0.80445176;10.01734;1.6663644
13:05:36:166;-0.80445176;10.01734;1.6663644
13:05:36:166;-0.80445176;10.01734;1.6663644
13:05:36:166;-0.80445176;10.01734;1.6663644
13:05:36:166;-0.80445176;10.01734;1.6663644
13:05:36:166;-0.80445176;10.01734;1.6663644
13:05:36:166;-0.80445176;10.01734;1.6663644
13:05:36:166;-0.80445176;10.01734;1.6663644
13:05:36:166;-0.80445176;10.01734;1.6663644
13:05:36:166;-0.80445176;10.01734;1.6663644
13:05:36:166;-0.80445176;10.01734;1.6663644
13:05:36:166;-0.80445176;10.01734;1.6663644
13:05:36:166;-0.80445176;10.01734;1.6663644
13:05:36:166;-0.80445176;10.01734;1.6663644
13:05:36:277;-1.3982137;11.243171;-1.3024458
13:05:36:277;-1.3982137;11.243171;-1.3024458
13:05:36:277;-1.3982137;11.243171;-1.3024458
13:05:36:277;-1.3982137;11.243171;-1.3024458
13:05:36:277;-1.3982137;11.243171;-1.3024458
13:05:36:277;-1.3982137;11.243171;-1.3024458
13:05:36:277;-1.3982137;11.243171;-1.3024458
13:05:36:277;-1.3982137;11.243171;-1.3024458
13:05:36:277;-1.3982137;11.243171;-1.3024458
13:05:36:277;-1.3982137;11.243171;-1.3024458
13:05:36:277;-1.3982137;11.243171;-1.3024458
13:05:36:277;-1.3982137;11.243171;-1.3024458
13:05:36:277;-1.3982137;11.243171;-1.3024458
13:05:36:277;-1.3982137;11.243171;-1.3024458
13:05:36:277;-1.3982137;11.243171;-1.3024458
13:05:36:394;-0.7661445;8.121132;0.45968673
13:05:36:394;-0.7661445;8.121132;0.45968673
13:05:36:394;-0.7661445;8.121132;0.45968673
13:05:36:394;-0.7661445;8.121132;0.45968673
13:05:36:394;-0.7661445;8.121132;0.45968673
13:05:36:394;-0.7661445;8.121132;0.45968673
13:05:36:394;-0.7661445;8.121132;0.45968673
13:05:36:394;-0.7661445;8.121132;0.45968673
13:05:36:394;-0.7661445;8.121132;0.45968673
13:05:36:394;-0.7661445;8.121132;0.45968673
13:05:36:394;-0.7661445;8.121132;0.45968673
13:05:36:394;-0.7661445;8.121132;0.45968673
13:05:36:394;-0.7661445;8.121132;0.45968673
13:05:36:394;-0.7661445;8.121132;0.45968673
13:05:36:502;0.076614454;11.18571;0.34476504
13:05:36:502;0.076614454;11.18571;0.34476504
13:05:36:502;0.076614454;11.18571;0.34476504
13:05:36:502;0.076614454;11.18571;0.34476504
13:05:36:502;0.076614454;11.18571;0.34476504
13:05:36:502;0.076614454;11.18571;0.34476504
13:05:36:502;0.076614454;11.18571;0.34476504
13:05:36:502;0.076614454;11.18571;0.34476504
13:05:36:502;0.076614454;11.18571;0.34476504
13:05:36:502;0.076614454;11.18571;0.34476504
13:05:36:502;0.076614454;11.18571;0.34476504
13:05:36:502;0.076614454;11.18571;0.34476504
13:05:36:502;0.076614454;11.18571;0.34476504
13:05:36:502;0.076614454;11.18571;0.34476504
13:05:36:502;0.076614454;11.18571;0.34476504
13:05:36:620;0.7469909;9.864111;0.7469909
13:05:36:620;0.7469909;9.864111;0.7469909
13:05:36:620;0.7469909;9.864111;0.7469909
13:05:36:620;0.7469909;9.864111;0.7469909
13:05:36:620;0.7469909;9.864111;0.7469909
13:05:36:620;0.7469909;9.864111;0.7469909
13:05:36:620;0.7469909;9.864111;0.7469909
13:05:36:620;0.7469909;9.864111;0.7469909
13:05:36:620;0.7469909;9.864111;0.7469909
13:05:36:620;0.7469909;9.864111;0.7469909
13:05:36:620;0.7469909;9.864111;0.7469909
13:05:36:620;0.7469909;9.864111;0.7469909
13:05:36:620;0.7469909;9.864111;0.7469909
13:05:36:620;0.7469909;9.864111;0.7469909
13:05:36:620;0.7469909;9.864111;0.7469909
13:05:36:739;0.15322891;10.572795;0.91937345
13:05:36:739;0.15322891;10.572795;0.91937345
13:05:36:739;0.15322891;10.572795;0.91937345
13:05:36:739;0.15322891;10.572795;0.91937345
13:05:36:739;0.15322891;10.572795;0.91937345
13:05:36:739;0.15322891;10.572795;0.91937345
13:05:36:739;0.15322891;10.572795;0.91937345
13:05:36:739;0.15322891;10.572795;0.91937345
13:05:36:739;0.15322891;10.572795;0.91937345
13:05:36:739;0.15322891;10.572795;0.91937345
13:05:36:739;0.15322891;10.572795;0.91937345
13:05:36:739;0.15322891;10.572795;0.91937345
13:05:36:739;0.15322891;10.572795;0.91937345
13:05:36:739;0.15322891;10.572795;0.91937345
13:05:36:739;0.15322891;10.572795;0.91937345
13:05:36:857;-0.17238252;8.00621;-0.4405331
13:05:36:857;-0.17238252;8.00621;-0.4405331
13:05:36:857;-0.17238252;8.00621;-0.4405331
13:05:36:857;-0.17238252;8.00621;-0.4405331
13:05:36:857;-0.17238252;8.00621;-0.4405331
13:05:36:857;-0.17238252;8.00621;-0.4405331
13:05:36:857;-0.17238252;8.00621;-0.4405331
13:05:36:857;-0.17238252;8.00621;-0.4405331
13:05:36:857;-0.17238252;8.00621;-0.4405331
13:05:36:857;-0.17238252;8.00621;-0.4405331
13:05:36:857;-0.17238252;8.00621;-0.4405331
13:05:36:857;-0.17238252;8.00621;-0.4405331
13:05:36:857;-0.17238252;8.00621;-0.4405331
13:05:36:857;-0.17238252;8.00621;-0.4405331
13:05:36:857;-0.17238252;8.00621;-0.4405331
13:05:36:857;-0.17238252;8.00621;-0.4405331
13:05:36:979;-0.8619126;8.963891;-1.2258313
13:05:36:979;-0.8619126;8.963891;-1.2258313
13:05:36:979;-0.8619126;8.963891;-1.2258313
13:05:36:979;-0.8619126;8.963891;-1.2258313
13:05:36:979;-0.8619126;8.963891;-1.2258313
13:05:36:979;-0.8619126;8.963891;-1.2258313
13:05:36:979;-0.8619126;8.963891;-1.2258313
13:05:36:979;-0.8619126;8.963891;-1.2258313
13:05:36:979;-0.8619126;8.963891;-1.2258313
13:05:36:979;-0.8619126;8.963891;-1.2258313
13:05:36:979;-0.8619126;8.963891;-1.2258313
13:05:36:979;-0.8619126;8.963891;-1.2258313
13:05:36:979;-0.8619126;8.963891;-1.2258313
13:05:37:081;0.6703765;8.446744;0.8810662
13:05:37:081;0.6703765;8.446744;0.8810662
13:05:37:081;0.6703765;8.446744;0.8810662
13:05:37:081;0.6703765;8.446744;0.8810662
13:05:37:081;0.6703765;8.446744;0.8810662
13:05:37:081;0.6703765;8.446744;0.8810662
13:05:37:081;0.6703765;8.446744;0.8810662
13:05:37:081;0.6703765;8.446744;0.8810662
13:05:37:081;0.6703765;8.446744;0.8810662
13:05:37:081;0.6703765;8.446744;0.8810662
13:05:37:081;0.6703765;8.446744;0.8810662
13:05:37:081;0.6703765;8.446744;0.8810662
13:05:37:081;0.6703765;8.446744;0.8810662
13:05:37:081;0.6703765;8.446744;0.8810662
13:05:37:081;0.6703765;8.446744;0.8810662
13:05:37:198;-0.8619126;8.1402855;2.27928
13:05:37:198;-0.8619126;8.1402855;2.27928
13:05:37:198;-0.8619126;8.1402855;2.27928
13:05:37:198;-0.8619126;8.1402855;2.27928
13:05:37:198;-0.8619126;8.1402855;2.27928
13:05:37:198;-0.8619126;8.1402855;2.27928
13:05:37:198;-0.8619126;8.1402855;2.27928
13:05:37:198;-0.8619126;8.1402855;2.27928
13:05:37:198;-0.8619126;8.1402855;2.27928
13:05:37:198;-0.8619126;8.1402855;2.27928
13:05:37:198;-0.8619126;8.1402855;2.27928
13:05:37:198;-0.8619126;8.1402855;2.27928
13:05:37:198;-0.8619126;8.1402855;2.27928
13:05:37:198;-0.8619126;8.1402855;2.27928
13:05:37:198;-0.8619126;8.1402855;2.27928
13:05:37:198;-0.8619126;8.1402855;2.27928
13:05:37:198;-0.8619126;8.1402855;2.27928
13:05:37:198;-0.8619126;8.1402855;2.27928
13:05:37:198;-0.8619126;8.1402855;2.27928
13:05:37:198;-0.8619126;8.1402855;2.27928
13:05:37:352;-1.3982137;10.323798;1.8962077
13:05:37:352;-1.3982137;10.323798;1.8962077
13:05:37:352;-1.3982137;10.323798;1.8962077
13:05:37:352;-1.3982137;10.323798;1.8962077
13:05:37:352;-1.3982137;10.323798;1.8962077
13:05:37:352;-1.3982137;10.323798;1.8962077
13:05:37:352;-1.3982137;10.323798;1.8962077
13:05:37:352;-1.3982137;10.323798;1.8962077
13:05:37:352;-1.3982137;10.323798;1.8962077
13:05:37:352;-1.3982137;10.323798;1.8962077
13:05:37:352;-1.3982137;10.323798;1.8962077
13:05:37:352;-1.3982137;10.323798;1.8962077
13:05:37:352;-1.3982137;10.323798;1.8962077
13:05:37:460;-1.2066777;9.80665;1.0726024
13:05:37:460;-1.2066777;9.80665;1.0726024
13:05:37:460;-1.2066777;9.80665;1.0726024
13:05:37:460;-1.2066777;9.80665;1.0726024
13:05:37:460;-1.2066777;9.80665;1.0726024
13:05:37:460;-1.2066777;9.80665;1.0726024
13:05:37:460;-1.2066777;9.80665;1.0726024
13:05:37:460;-1.2066777;9.80665;1.0726024
13:05:37:460;-1.2066777;9.80665;1.0726024
13:05:37:460;-1.2066777;9.80665;1.0726024
13:05:37:460;-1.2066777;9.80665;1.0726024
13:05:37:460;-1.2066777;9.80665;1.0726024
13:05:37:460;-1.2066777;9.80665;1.0726024
13:05:37:562;0.63206923;9.481039;0.8619126
13:05:37:562;0.63206923;9.481039;0.8619126
13:05:37:562;0.63206923;9.481039;0.8619126
13:05:37:562;0.63206923;9.481039;0.8619126
13:05:37:562;0.63206923;9.481039;0.8619126
13:05:37:562;0.63206923;9.481039;0.8619126
13:05:37:562;0.63206923;9.481039;0.8619126
13:05:37:562;0.63206923;9.481039;0.8619126
13:05:37:562;0.63206923;9.481039;0.8619126
13:05:37:562;0.63206923;9.481039;0.8619126
13:05:37:562;0.63206923;9.481039;0.8619126
13:05:37:562;0.63206923;9.481039;0.8619126
13:05:37:562;0.63206923;9.481039;0.8619126
13:05:37:562;0.63206923;9.481039;0.8619126
13:05:37:562;0.63206923;9.481039;0.8619126
13:05:37:562;0.63206923;9.481039;0.8619126
13:05:37:684;0.36391866;10.266336;-0.019153614
13:05:37:684;0.36391866;10.266336;-0.019153614
13:05:37:684;0.36391866;10.266336;-0.019153614
13:05:37:684;0.36391866;10.266336;-0.019153614
13:05:37:684;0.36391866;10.266336;-0.019153614
13:05:37:684;0.36391866;10.266336;-0.019153614
13:05:37:684;0.36391866;10.266336;-0.019153614
13:05:37:684;0.36391866;10.266336;-0.019153614
13:05:37:684;0.36391866;10.266336;-0.019153614
13:05:37:684;0.36391866;10.266336;-0.019153614
13:05:37:684;0.36391866;10.266336;-0.019153614
13:05:37:684;0.36391866;10.266336;-0.019153614
13:05:37:684;0.36391866;10.266336;-0.019153614
13:05:37:684;0.36391866;10.266336;-0.019153614
13:05:37:684;0.36391866;10.266336;-0.019153614
13:05:37:801;0.24899697;9.787497;0.21068975
13:05:37:801;0.24899697;9.787497;0.21068975
13:05:37:801;0.24899697;9.787497;0.21068975
13:05:37:801;0.24899697;9.787497;0.21068975
13:05:37:801;0.24899697;9.787497;0.21068975
13:05:37:801;0.24899697;9.787497;0.21068975
13:05:37:801;0.24899697;9.787497;0.21068975
13:05:37:801;0.24899697;9.787497;0.21068975
13:05:37:801;0.24899697;9.787497;0.21068975
13:05:37:801;0.24899697;9.787497;0.21068975
13:05:37:801;0.24899697;9.787497;0.21068975
13:05:37:801;0.24899697;9.787497;0.21068975
13:05:37:801;0.24899697;9.787497;0.21068975
13:05:37:801;0.24899697;9.787497;0.21068975
13:05:37:801;0.24899697;9.787497;0.21068975
13:05:37:917;-0.2873042;9.940725;0.90021986
13:05:37:917;-0.2873042;9.940725;0.90021986
13:05:37:917;-0.2873042;9.940725;0.90021986
13:05:37:917;-0.2873042;9.940725;0.90021986
13:05:37:917;-0.2873042;9.940725;0.90021986
13:05:37:917;-0.2873042;9.940725;0.90021986
13:05:37:917;-0.2873042;9.940725;0.90021986
13:05:37:917;-0.2873042;9.940725;0.90021986
13:05:37:917;-0.2873042;9.940725;0.90021986
13:05:37:917;-0.2873042;9.940725;0.90021986
13:05:37:917;-0.2873042;9.940725;0.90021986
13:05:37:917;-0.2873042;9.940725;0.90021986
13:05:37:917;-0.2873042;9.940725;0.90021986
13:05:37:917;-0.2873042;9.940725;0.90021986
13:05:37:917;-0.2873042;9.940725;0.90021986
13:05:38:037;0.47884035;8.121132;-0.36391866
13:05:38:037;0.47884035;8.121132;-0.36391866
13:05:38:037;0.47884035;8.121132;-0.36391866
13:05:38:037;0.47884035;8.121132;-0.36391866
13:05:38:037;0.47884035;8.121132;-0.36391866
13:05:38:037;0.47884035;8.121132;-0.36391866
13:05:38:037;0.47884035;8.121132;-0.36391866
13:05:38:037;0.47884035;8.121132;-0.36391866
13:05:38:037;0.47884035;8.121132;-0.36391866
13:05:38:037;0.47884035;8.121132;-0.36391866
13:05:38:037;0.47884035;8.121132;-0.36391866
13:05:38:037;0.47884035;8.121132;-0.36391866
13:05:38:037;0.47884035;8.121132;-0.36391866
13:05:38:138;-1.6280571;10.304645;-0.076614454
13:05:38:138;-1.6280571;10.304645;-0.076614454
13:05:38:138;-1.6280571;10.304645;-0.076614454
13:05:38:138;-1.6280571;10.304645;-0.076614454
13:05:38:138;-1.6280571;10.304645;-0.076614454
13:05:38:138;-1.6280571;10.304645;-0.076614454
13:05:38:138;-1.6280571;10.304645;-0.076614454
13:05:38:138;-1.6280571;10.304645;-0.076614454
13:05:38:138;-1.6280571;10.304645;-0.076614454
13:05:38:138;-1.6280571;10.304645;-0.076614454
13:05:38:138;-1.6280571;10.304645;-0.076614454
13:05:38:138;-1.6280571;10.304645;-0.076614454
13:05:38:138;-1.6280571;10.304645;-0.076614454
13:05:38:138;-1.6280571;10.304645;-0.076614454
13:05:38:250;-1.3215994;9.136273;0.7086837
13:05:38:250;-1.3215994;9.136273;0.7086837
13:05:38:250;-1.3215994;9.136273;0.7086837
13:05:38:250;-1.3215994;9.136273;0.7086837
13:05:38:250;-1.3215994;9.136273;0.7086837
13:05:38:250;-1.3215994;9.136273;0.7086837
13:05:38:250;-1.3215994;9.136273;0.7086837
13:05:38:250;-1.3215994;9.136273;0.7086837
13:05:38:250;-1.3215994;9.136273;0.7086837
13:05:38:250;-1.3215994;9.136273;0.7086837
13:05:38:250;-1.3215994;9.136273;0.7086837
13:05:38:250;-1.3215994;9.136273;0.7086837
13:05:38:250;-1.3215994;9.136273;0.7086837
13:05:38:250;-1.3215994;9.136273;0.7086837
13:05:38:356;-0.6703765;10.113108;-0.019153614
13:05:38:356;-0.6703765;10.113108;-0.019153614
13:05:38:356;-0.6703765;10.113108;-0.019153614
13:05:38:356;-0.6703765;10.113108;-0.019153614
13:05:38:356;-0.6703765;10.113108;-0.019153614
13:05:38:356;-0.6703765;10.113108;-0.019153614
13:05:38:356;-0.6703765;10.113108;-0.019153614
13:05:38:356;-0.6703765;10.113108;-0.019153614
13:05:38:356;-0.6703765;10.113108;-0.019153614
13:05:38:356;-0.6703765;10.113108;-0.019153614
13:05:38:356;-0.6703765;10.113108;-0.019153614
13:05:38:356;-0.6703765;10.113108;-0.019153614
13:05:38:356;-0.6703765;10.113108;-0.019153614
13:05:38:459;0.90021986;9.691729;1.2258313
13:05:38:459;0.90021986;9.691729;1.2258313
13:05:38:459;0.90021986;9.691729;1.2258313
13:05:38:459;0.90021986;9.691729;1.2258313
13:05:38:459;0.90021986;9.691729;1.2258313
13:05:38:459;0.90021986;9.691729;1.2258313
13:05:38:459;0.90021986;9.691729;1.2258313
13:05:38:459;0.90021986;9.691729;1.2258313
13:05:38:459;0.90021986;9.691729;1.2258313
13:05:38:459;0.90021986;9.691729;1.2258313
13:05:38:459;0.90021986;9.691729;1.2258313
13:05:38:459;0.90021986;9.691729;1.2258313
13:05:38:459;0.90021986;9.691729;1.2258313
13:05:38:459;0.90021986;9.691729;1.2258313
13:05:38:459;0.90021986;9.691729;1.2258313
13:05:38:578;-0.5363012;10.208876;0.5554548
13:05:38:578;-0.5363012;10.208876;0.5554548
13:05:38:578;-0.5363012;10.208876;0.5554548
13:05:38:578;-0.5363012;10.208876;0.5554548
13:05:38:578;-0.5363012;10.208876;0.5554548
13:05:38:578;-0.5363012;10.208876;0.5554548
13:05:38:578;-0.5363012;10.208876;0.5554548
13:05:38:578;-0.5363012;10.208876;0.5554548
13:05:38:578;-0.5363012;10.208876;0.5554548
13:05:38:578;-0.5363012;10.208876;0.5554548
13:05:38:578;-0.5363012;10.208876;0.5554548
13:05:38:578;-0.5363012;10.208876;0.5554548
13:05:38:578;-0.5363012;10.208876;0.5554548
13:05:38:679;-0.59376204;10.132261;0.5363012
13:05:38:679;-0.59376204;10.132261;0.5363012
13:05:38:679;-0.59376204;10.132261;0.5363012
13:05:38:679;-0.59376204;10.132261;0.5363012
13:05:38:679;-0.59376204;10.132261;0.5363012
13:05:38:679;-0.59376204;10.132261;0.5363012
13:05:38:679;-0.59376204;10.132261;0.5363012
13:05:38:679;-0.59376204;10.132261;0.5363012
13:05:38:679;-0.59376204;10.132261;0.5363012
13:05:38:679;-0.59376204;10.132261;0.5363012
13:05:38:679;-0.59376204;10.132261;0.5363012
13:05:38:679;-0.59376204;10.132261;0.5363012
13:05:38:679;-0.59376204;10.132261;0.5363012
13:05:38:679;-0.59376204;10.132261;0.5363012
13:05:38:679;-0.59376204;10.132261;0.5363012
13:05:38:679;-0.59376204;10.132261;0.5363012
13:05:38:797;-1.1492168;9.710882;0.90021986
13:05:38:797;-1.1492168;9.710882;0.90021986
13:05:38:797;-1.1492168;9.710882;0.90021986
13:05:38:797;-1.1492168;9.710882;0.90021986
13:05:38:797;-1.1492168;9.710882;0.90021986
13:05:38:797;-1.1492168;9.710882;0.90021986
13:05:38:797;-1.1492168;9.710882;0.90021986
13:05:38:797;-1.1492168;9.710882;0.90021986
13:05:38:797;-1.1492168;9.710882;0.90021986
13:05:38:797;-1.1492168;9.710882;0.90021986
13:05:38:797;-1.1492168;9.710882;0.90021986
13:05:38:797;-1.1492168;9.710882;0.90021986
13:05:38:797;-1.1492168;9.710882;0.90021986
13:05:38:797;-1.1492168;9.710882;0.90021986
13:05:38:908;-1.1683705;9.212888;0.019153614
13:05:38:908;-1.1683705;9.212888;0.019153614
13:05:38:908;-1.1683705;9.212888;0.019153614
13:05:38:908;-1.1683705;9.212888;0.019153614
13:05:38:908;-1.1683705;9.212888;0.019153614
13:05:38:908;-1.1683705;9.212888;0.019153614
13:05:38:908;-1.1683705;9.212888;0.019153614
13:05:38:908;-1.1683705;9.212888;0.019153614
13:05:38:908;-1.1683705;9.212888;0.019153614
13:05:38:908;-1.1683705;9.212888;0.019153614
13:05:38:908;-1.1683705;9.212888;0.019153614
13:05:38:908;-1.1683705;9.212888;0.019153614
13:05:38:908;-1.1683705;9.212888;0.019153614
13:05:38:908;-1.1683705;9.212888;0.019153614
13:05:39:019;-0.8619126;9.481039;-0.095768064
13:05:39:019;-0.8619126;9.481039;-0.095768064
13:05:39:019;-0.8619126;9.481039;-0.095768064
13:05:39:019;-0.8619126;9.481039;-0.095768064
13:05:39:019;-0.8619126;9.481039;-0.095768064
13:05:39:019;-0.8619126;9.481039;-0.095768064
13:05:39:019;-0.8619126;9.481039;-0.095768064
13:05:39:019;-0.8619126;9.481039;-0.095768064
13:05:39:019;-0.8619126;9.481039;-0.095768064
13:05:39:019;-0.8619126;9.481039;-0.095768064
13:05:39:019;-0.8619126;9.481039;-0.095768064
13:05:39:019;-0.8619126;9.481039;-0.095768064
13:05:39:019;-0.8619126;9.481039;-0.095768064
13:05:39:019;-0.8619126;9.481039;-0.095768064
13:05:39:019;-0.8619126;9.481039;-0.095768064
13:05:39:133;-0.5746084;10.783484;-0.038307227
13:05:39:133;-0.5746084;10.783484;-0.038307227
13:05:39:133;-0.5746084;10.783484;-0.038307227
13:05:39:133;-0.5746084;10.783484;-0.038307227
13:05:39:133;-0.5746084;10.783484;-0.038307227
13:05:39:133;-0.5746084;10.783484;-0.038307227
13:05:39:133;-0.5746084;10.783484;-0.038307227
13:05:39:133;-0.5746084;10.783484;-0.038307227
13:05:39:133;-0.5746084;10.783484;-0.038307227
13:05:39:133;-0.5746084;10.783484;-0.038307227
13:05:39:133;-0.5746084;10.783484;-0.038307227
13:05:39:133;-0.5746084;10.783484;-0.038307227
13:05:39:133;-0.5746084;10.783484;-0.038307227
13:05:39:240;0.30645782;10.093954;0.32561144
13:05:39:240;0.30645782;10.093954;0.32561144
13:05:39:240;0.30645782;10.093954;0.32561144
13:05:39:240;0.30645782;10.093954;0.32561144
13:05:39:240;0.30645782;10.093954;0.32561144
13:05:39:240;0.30645782;10.093954;0.32561144
13:05:39:240;0.30645782;10.093954;0.32561144
13:05:39:240;0.30645782;10.093954;0.32561144
13:05:39:240;0.30645782;10.093954;0.32561144
13:05:39:240;0.30645782;10.093954;0.32561144
13:05:39:240;0.30645782;10.093954;0.32561144
13:05:39:240;0.30645782;10.093954;0.32561144
13:05:39:240;0.30645782;10.093954;0.32561144
13:05:39:240;0.30645782;10.093954;0.32561144
13:05:39:348;-0.90021986;10.208876;-0.1340753
13:05:39:348;-0.90021986;10.208876;-0.1340753
13:05:39:348;-0.90021986;10.208876;-0.1340753
13:05:39:348;-0.90021986;10.208876;-0.1340753
13:05:39:348;-0.90021986;10.208876;-0.1340753
13:05:39:348;-0.90021986;10.208876;-0.1340753
13:05:39:348;-0.90021986;10.208876;-0.1340753
13:05:39:348;-0.90021986;10.208876;-0.1340753
13:05:39:348;-0.90021986;10.208876;-0.1340753
13:05:39:348;-0.90021986;10.208876;-0.1340753
13:05:39:348;-0.90021986;10.208876;-0.1340753
13:05:39:348;-0.90021986;10.208876;-0.1340753
13:05:39:348;-0.90021986;10.208876;-0.1340753
13:05:39:348;-0.90021986;10.208876;-0.1340753
13:05:39:456;-0.49799395;10.572795;0.6895301
13:05:39:456;-0.49799395;10.572795;0.6895301
13:05:39:456;-0.49799395;10.572795;0.6895301
13:05:39:456;-0.49799395;10.572795;0.6895301
13:05:39:456;-0.49799395;10.572795;0.6895301
13:05:39:456;-0.49799395;10.572795;0.6895301
13:05:39:456;-0.49799395;10.572795;0.6895301
13:05:39:456;-0.49799395;10.572795;0.6895301
13:05:39:456;-0.49799395;10.572795;0.6895301
13:05:39:456;-0.49799395;10.572795;0.6895301
13:05:39:456;-0.49799395;10.572795;0.6895301
13:05:39:456;-0.49799395;10.572795;0.6895301
13:05:39:456;-0.49799395;10.572795;0.6895301
13:05:39:559;-1.1109096;10.093954;0.93852705
13:05:39:559;-1.1109096;10.093954;0.93852705
13:05:39:559;-1.1109096;10.093954;0.93852705
13:05:39:559;-1.1109096;10.093954;0.93852705
13:05:39:559;-1.1109096;10.093954;0.93852705
13:05:39:559;-1.1109096;10.093954;0.93852705
13:05:39:559;-1.1109096;10.093954;0.93852705
13:05:39:559;-1.1109096;10.093954;0.93852705
13:05:39:559;-1.1109096;10.093954;0.93852705
13:05:39:559;-1.1109096;10.093954;0.93852705
13:05:39:559;-1.1109096;10.093954;0.93852705
13:05:39:559;-1.1109096;10.093954;0.93852705
13:05:39:559;-1.1109096;10.093954;0.93852705
13:05:39:559;-1.1109096;10.093954;0.93852705
13:05:39:559;-1.1109096;10.093954;0.93852705
13:05:39:678;-1.340753;10.400413;-0.19153613
13:05:39:678;-1.340753;10.400413;-0.19153613
13:05:39:678;-1.340753;10.400413;-0.19153613
13:05:39:678;-1.340753;10.400413;-0.19153613
13:05:39:678;-1.340753;10.400413;-0.19153613
13:05:39:678;-1.340753;10.400413;-0.19153613
13:05:39:678;-1.340753;10.400413;-0.19153613
13:05:39:678;-1.340753;10.400413;-0.19153613
13:05:39:678;-1.340753;10.400413;-0.19153613
13:05:39:678;-1.340753;10.400413;-0.19153613
13:05:39:678;-1.340753;10.400413;-0.19153613
13:05:39:678;-1.340753;10.400413;-0.19153613
13:05:39:678;-1.340753;10.400413;-0.19153613
13:05:39:678;-1.340753;10.400413;-0.19153613
13:05:39:784;-0.51714754;10.266336;0.6703765
13:05:39:784;-0.51714754;10.266336;0.6703765
13:05:39:784;-0.51714754;10.266336;0.6703765
13:05:39:784;-0.51714754;10.266336;0.6703765
13:05:39:784;-0.51714754;10.266336;0.6703765
13:05:39:784;-0.51714754;10.266336;0.6703765
13:05:39:784;-0.51714754;10.266336;0.6703765
13:05:39:784;-0.51714754;10.266336;0.6703765
13:05:39:784;-0.51714754;10.266336;0.6703765
13:05:39:784;-0.51714754;10.266336;0.6703765
13:05:39:784;-0.51714754;10.266336;0.6703765
13:05:39:784;-0.51714754;10.266336;0.6703765
13:05:39:784;-0.51714754;10.266336;0.6703765
13:05:39:784;-0.51714754;10.266336;0.6703765
13:05:39:891;-0.9959879;10.28549;0.095768064
13:05:39:891;-0.9959879;10.28549;0.095768064
13:05:39:891;-0.9959879;10.28549;0.095768064
13:05:39:891;-0.9959879;10.28549;0.095768064
13:05:39:891;-0.9959879;10.28549;0.095768064
13:05:39:891;-0.9959879;10.28549;0.095768064
13:05:39:891;-0.9959879;10.28549;0.095768064
13:05:39:891;-0.9959879;10.28549;0.095768064
13:05:39:891;-0.9959879;10.28549;0.095768064
13:05:39:891;-0.9959879;10.28549;0.095768064
13:05:39:891;-0.9959879;10.28549;0.095768064
13:05:39:891;-0.9959879;10.28549;0.095768064
13:05:39:891;-0.9959879;10.28549;0.095768064
13:05:40:000;-0.19153613;10.055647;0.45968673
13:05:40:000;-0.19153613;10.055647;0.45968673
13:05:40:000;-0.19153613;10.055647;0.45968673
13:05:40:000;-0.19153613;10.055647;0.45968673
13:05:40:000;-0.19153613;10.055647;0.45968673
13:05:40:000;-0.19153613;10.055647;0.45968673
13:05:40:000;-0.19153613;10.055647;0.45968673
13:05:40:000;-0.19153613;10.055647;0.45968673
13:05:40:000;-0.19153613;10.055647;0.45968673
13:05:40:000;-0.19153613;10.055647;0.45968673
13:05:40:000;-0.19153613;10.055647;0.45968673
13:05:40:000;-0.19153613;10.055647;0.45968673
13:05:40:000;-0.19153613;10.055647;0.45968673
13:05:40:000;-0.19153613;10.055647;0.45968673
13:05:40:000;-0.19153613;10.055647;0.45968673
13:05:40:000;-0.19153613;10.055647;0.45968673
13:05:40:120;-0.2873042;9.097966;0.63206923
13:05:40:120;-0.2873042;9.097966;0.63206923
13:05:40:120;-0.2873042;9.097966;0.63206923
13:05:40:120;-0.2873042;9.097966;0.63206923
13:05:40:120;-0.2873042;9.097966;0.63206923
13:05:40:120;-0.2873042;9.097966;0.63206923
13:05:40:120;-0.2873042;9.097966;0.63206923
13:05:40:120;-0.2873042;9.097966;0.63206923
13:05:40:120;-0.2873042;9.097966;0.63206923
13:05:40:120;-0.2873042;9.097966;0.63206923
13:05:40:120;-0.2873042;9.097966;0.63206923
13:05:40:120;-0.2873042;9.097966;0.63206923
13:05:40:120;-0.2873042;9.097966;0.63206923
13:05:40:120;-0.2873042;9.097966;0.63206923
13:05:40:120;-0.2873042;9.097966;0.63206923
13:05:40:235;0.11492168;10.055647;0.82360536
13:05:40:235;0.11492168;10.055647;0.82360536
13:05:40:235;0.11492168;10.055647;0.82360536
13:05:40:235;0.11492168;10.055647;0.82360536
13:05:40:235;0.11492168;10.055647;0.82360536
13:05:40:235;0.11492168;10.055647;0.82360536
13:05:40:235;0.11492168;10.055647;0.82360536
13:05:40:235;0.11492168;10.055647;0.82360536
13:05:40:235;0.11492168;10.055647;0.82360536
13:05:40:235;0.11492168;10.055647;0.82360536
13:05:40:235;0.11492168;10.055647;0.82360536
13:05:40:235;0.11492168;10.055647;0.82360536
13:05:40:235;0.11492168;10.055647;0.82360536
13:05:40:337;-0.93852705;10.093954;0.019153614
13:05:40:337;-0.93852705;10.093954;0.019153614
13:05:40:337;-0.93852705;10.093954;0.019153614
13:05:40:337;-0.93852705;10.093954;0.019153614
13:05:40:337;-0.93852705;10.093954;0.019153614
13:05:40:337;-0.93852705;10.093954;0.019153614
13:05:40:337;-0.93852705;10.093954;0.019153614
13:05:40:337;-0.93852705;10.093954;0.019153614
13:05:40:337;-0.93852705;10.093954;0.019153614
13:05:40:337;-0.93852705;10.093954;0.019153614
13:05:40:337;-0.93852705;10.093954;0.019153614
13:05:40:337;-0.93852705;10.093954;0.019153614
13:05:40:337;-0.93852705;10.093954;0.019153614
13:05:40:441;-0.32561144;10.994174;0.63206923
13:05:40:441;-0.32561144;10.994174;0.63206923
13:05:40:441;-0.32561144;10.994174;0.63206923
13:05:40:441;-0.32561144;10.994174;0.63206923
13:05:40:441;-0.32561144;10.994174;0.63206923
13:05:40:441;-0.32561144;10.994174;0.63206923
13:05:40:441;-0.32561144;10.994174;0.63206923
13:05:40:441;-0.32561144;10.994174;0.63206923
13:05:40:441;-0.32561144;10.994174;0.63206923
13:05:40:441;-0.32561144;10.994174;0.63206923
13:05:40:441;-0.32561144;10.994174;0.63206923
13:05:40:441;-0.32561144;10.994174;0.63206923
13:05:40:441;-0.32561144;10.994174;0.63206923
13:05:40:441;-0.32561144;10.994174;0.63206923
13:05:40:441;-0.32561144;10.994174;0.63206923
13:05:40:558;-1.0534488;11.147403;0.9768343
13:05:40:558;-1.0534488;11.147403;0.9768343
13:05:40:558;-1.0534488;11.147403;0.9768343
13:05:40:558;-1.0534488;11.147403;0.9768343
13:05:40:558;-1.0534488;11.147403;0.9768343
13:05:40:558;-1.0534488;11.147403;0.9768343
13:05:40:558;-1.0534488;11.147403;0.9768343
13:05:40:558;-1.0534488;11.147403;0.9768343
13:05:40:558;-1.0534488;11.147403;0.9768343
13:05:40:558;-1.0534488;11.147403;0.9768343
13:05:40:558;-1.0534488;11.147403;0.9768343
13:05:40:558;-1.0534488;11.147403;0.9768343
13:05:40:558;-1.0534488;11.147403;0.9768343
13:05:40:558;-1.0534488;11.147403;0.9768343
13:05:40:558;-1.0534488;11.147403;0.9768343
13:05:40:678;-0.5363012;9.940725;0.61291564
13:05:40:678;-0.5363012;9.940725;0.61291564
13:05:40:678;-0.5363012;9.940725;0.61291564
13:05:40:678;-0.5363012;9.940725;0.61291564
13:05:40:678;-0.5363012;9.940725;0.61291564
13:05:40:678;-0.5363012;9.940725;0.61291564
13:05:40:678;-0.5363012;9.940725;0.61291564
13:05:40:678;-0.5363012;9.940725;0.61291564
13:05:40:678;-0.5363012;9.940725;0.61291564
13:05:40:678;-0.5363012;9.940725;0.61291564
13:05:40:678;-0.5363012;9.940725;0.61291564
13:05:40:678;-0.5363012;9.940725;0.61291564
13:05:40:678;-0.5363012;9.940725;0.61291564
13:05:40:678;-0.5363012;9.940725;0.61291564
13:05:40:678;-0.5363012;9.940725;0.61291564
13:05:40:678;-0.5363012;9.940725;0.61291564
13:05:40:797;-0.4405331;9.461885;0.38307226
13:05:40:797;-0.4405331;9.461885;0.38307226
13:05:40:797;-0.4405331;9.461885;0.38307226
13:05:40:797;-0.4405331;9.461885;0.38307226
13:05:40:797;-0.4405331;9.461885;0.38307226
13:05:40:797;-0.4405331;9.461885;0.38307226
13:05:40:797;-0.4405331;9.461885;0.38307226
13:05:40:797;-0.4405331;9.461885;0.38307226
13:05:40:797;-0.4405331;9.461885;0.38307226
13:05:40:797;-0.4405331;9.461885;0.38307226
13:05:40:797;-0.4405331;9.461885;0.38307226
13:05:40:797;-0.4405331;9.461885;0.38307226
13:05:40:898;0.38307226;9.442732;1.2258313
13:05:40:898;0.38307226;9.442732;1.2258313
13:05:40:898;0.38307226;9.442732;1.2258313
13:05:40:898;0.38307226;9.442732;1.2258313
13:05:40:898;0.38307226;9.442732;1.2258313
13:05:40:898;0.38307226;9.442732;1.2258313
13:05:40:898;0.38307226;9.442732;1.2258313
13:05:40:898;0.38307226;9.442732;1.2258313
13:05:40:898;0.38307226;9.442732;1.2258313
13:05:40:898;0.38307226;9.442732;1.2258313
13:05:40:898;0.38307226;9.442732;1.2258313
13:05:40:898;0.38307226;9.442732;1.2258313
13:05:40:898;0.38307226;9.442732;1.2258313
13:05:40:898;0.38307226;9.442732;1.2258313
13:05:40:898;0.38307226;9.442732;1.2258313
13:05:40:898;0.38307226;9.442732;1.2258313
13:05:41:017;0.47884035;10.879252;0.63206923
13:05:41:017;0.47884035;10.879252;0.63206923
13:05:41:017;0.47884035;10.879252;0.63206923
13:05:41:017;0.47884035;10.879252;0.63206923
13:05:41:017;0.47884035;10.879252;0.63206923
13:05:41:017;0.47884035;10.879252;0.63206923
13:05:41:017;0.47884035;10.879252;0.63206923
13:05:41:017;0.47884035;10.879252;0.63206923
13:05:41:017;0.47884035;10.879252;0.63206923
13:05:41:017;0.47884035;10.879252;0.63206923
13:05:41:017;0.47884035;10.879252;0.63206923
13:05:41:017;0.47884035;10.879252;0.63206923
13:05:41:017;0.47884035;10.879252;0.63206923
13:05:41:119;0.7278373;10.400413;0.21068975
13:05:41:119;0.7278373;10.400413;0.21068975
13:05:41:119;0.7278373;10.400413;0.21068975
13:05:41:119;0.7278373;10.400413;0.21068975
13:05:41:119;0.7278373;10.400413;0.21068975
13:05:41:119;0.7278373;10.400413;0.21068975
13:05:41:119;0.7278373;10.400413;0.21068975
13:05:41:119;0.7278373;10.400413;0.21068975
13:05:41:119;0.7278373;10.400413;0.21068975
13:05:41:119;0.7278373;10.400413;0.21068975
13:05:41:119;0.7278373;10.400413;0.21068975
13:05:41:119;0.7278373;10.400413;0.21068975
13:05:41:119;0.7278373;10.400413;0.21068975
13:05:41:119;0.7278373;10.400413;0.21068975
13:05:41:234;0.8619126;10.323798;0.34476504
13:05:41:234;0.8619126;10.323798;0.34476504
13:05:41:234;0.8619126;10.323798;0.34476504
13:05:41:234;0.8619126;10.323798;0.34476504
13:05:41:234;0.8619126;10.323798;0.34476504
13:05:41:234;0.8619126;10.323798;0.34476504
13:05:41:234;0.8619126;10.323798;0.34476504
13:05:41:234;0.8619126;10.323798;0.34476504
13:05:41:234;0.8619126;10.323798;0.34476504
13:05:41:234;0.8619126;10.323798;0.34476504
13:05:41:234;0.8619126;10.323798;0.34476504
13:05:41:234;0.8619126;10.323798;0.34476504
13:05:41:234;0.8619126;10.323798;0.34476504
13:05:41:234;0.8619126;10.323798;0.34476504
13:05:41:234;0.8619126;10.323798;0.34476504
13:05:41:234;0.8619126;10.323798;0.34476504
13:05:41:354;0.8619126;9.557653;1.1492168
13:05:41:354;0.8619126;9.557653;1.1492168
13:05:41:354;0.8619126;9.557653;1.1492168
13:05:41:354;0.8619126;9.557653;1.1492168
13:05:41:354;0.8619126;9.557653;1.1492168
13:05:41:354;0.8619126;9.557653;1.1492168
13:05:41:354;0.8619126;9.557653;1.1492168
13:05:41:354;0.8619126;9.557653;1.1492168
13:05:41:354;0.8619126;9.557653;1.1492168
13:05:41:354;0.8619126;9.557653;1.1492168
13:05:41:354;0.8619126;9.557653;1.1492168
13:05:41:354;0.8619126;9.557653;1.1492168
13:05:41:354;0.8619126;9.557653;1.1492168
13:05:41:460;-0.6703765;9.232041;1.0726024
13:05:41:460;-0.6703765;9.232041;1.0726024
13:05:41:460;-0.6703765;9.232041;1.0726024
13:05:41:460;-0.6703765;9.232041;1.0726024
13:05:41:460;-0.6703765;9.232041;1.0726024
13:05:41:460;-0.6703765;9.232041;1.0726024
13:05:41:460;-0.6703765;9.232041;1.0726024
13:05:41:460;-0.6703765;9.232041;1.0726024
13:05:41:460;-0.6703765;9.232041;1.0726024
13:05:41:460;-0.6703765;9.232041;1.0726024
13:05:41:460;-0.6703765;9.232041;1.0726024
13:05:41:460;-0.6703765;9.232041;1.0726024
13:05:41:460;-0.6703765;9.232041;1.0726024
13:05:41:460;-0.6703765;9.232041;1.0726024
13:05:41:460;-0.6703765;9.232041;1.0726024
13:05:41:577;-0.6703765;9.557653;1.2641385
13:05:41:577;-0.6703765;9.557653;1.2641385
13:05:41:577;-0.6703765;9.557653;1.2641385
13:05:41:577;-0.6703765;9.557653;1.2641385
13:05:41:577;-0.6703765;9.557653;1.2641385
13:05:41:577;-0.6703765;9.557653;1.2641385
13:05:41:577;-0.6703765;9.557653;1.2641385
13:05:41:577;-0.6703765;9.557653;1.2641385
13:05:41:577;-0.6703765;9.557653;1.2641385
13:05:41:577;-0.6703765;9.557653;1.2641385
13:05:41:577;-0.6703765;9.557653;1.2641385
13:05:41:577;-0.6703765;9.557653;1.2641385
13:05:41:577;-0.6703765;9.557653;1.2641385
13:05:41:577;-0.6703765;9.557653;1.2641385
13:05:41:577;-0.6703765;9.557653;1.2641385
13:05:41:577;-0.6703765;9.557653;1.2641385
13:05:41:577;-0.6703765;9.557653;1.2641385
13:05:41:709;0.2873042;10.381259;0.6703765
13:05:41:709;0.2873042;10.381259;0.6703765
13:05:41:709;0.2873042;10.381259;0.6703765
13:05:41:709;0.2873042;10.381259;0.6703765
13:05:41:709;0.2873042;10.381259;0.6703765
13:05:41:709;0.2873042;10.381259;0.6703765
13:05:41:709;0.2873042;10.381259;0.6703765
13:05:41:709;0.2873042;10.381259;0.6703765
13:05:41:709;0.2873042;10.381259;0.6703765
13:05:41:709;0.2873042;10.381259;0.6703765
13:05:41:709;0.2873042;10.381259;0.6703765
13:05:41:709;0.2873042;10.381259;0.6703765
13:05:41:709;0.2873042;10.381259;0.6703765
13:05:41:812;0.9768343;9.864111;1.436521
13:05:41:812;0.9768343;9.864111;1.436521
13:05:41:812;0.9768343;9.864111;1.436521
13:05:41:812;0.9768343;9.864111;1.436521
13:05:41:812;0.9768343;9.864111;1.436521
13:05:41:812;0.9768343;9.864111;1.436521
13:05:41:812;0.9768343;9.864111;1.436521
13:05:41:812;0.9768343;9.864111;1.436521
13:05:41:812;0.9768343;9.864111;1.436521
13:05:41:812;0.9768343;9.864111;1.436521
13:05:41:812;0.9768343;9.864111;1.436521
13:05:41:812;0.9768343;9.864111;1.436521
13:05:41:812;0.9768343;9.864111;1.436521
13:05:41:812;0.9768343;9.864111;1.436521
13:05:41:812;0.9768343;9.864111;1.436521
13:05:41:812;0.9768343;9.864111;1.436521
13:05:41:933;0.40222588;9.998186;0.5746084
13:05:41:933;0.40222588;9.998186;0.5746084
13:05:41:933;0.40222588;9.998186;0.5746084
13:05:41:933;0.40222588;9.998186;0.5746084
13:05:41:933;0.40222588;9.998186;0.5746084
13:05:41:933;0.40222588;9.998186;0.5746084
13:05:41:933;0.40222588;9.998186;0.5746084
13:05:41:933;0.40222588;9.998186;0.5746084
13:05:41:933;0.40222588;9.998186;0.5746084
13:05:41:933;0.40222588;9.998186;0.5746084
13:05:41:933;0.40222588;9.998186;0.5746084
13:05:41:933;0.40222588;9.998186;0.5746084
13:05:41:933;0.40222588;9.998186;0.5746084
13:05:42:037;-0.19153613;10.113108;0.32561144
13:05:42:037;-0.19153613;10.113108;0.32561144
13:05:42:037;-0.19153613;10.113108;0.32561144
13:05:42:037;-0.19153613;10.113108;0.32561144
13:05:42:037;-0.19153613;10.113108;0.32561144
13:05:42:037;-0.19153613;10.113108;0.32561144
13:05:42:037;-0.19153613;10.113108;0.32561144
13:05:42:037;-0.19153613;10.113108;0.32561144
13:05:42:037;-0.19153613;10.113108;0.32561144
13:05:42:037;-0.19153613;10.113108;0.32561144
13:05:42:037;-0.19153613;10.113108;0.32561144
13:05:42:037;-0.19153613;10.113108;0.32561144
13:05:42:037;-0.19153613;10.113108;0.32561144
13:05:42:140;-1.1875241;9.423578;1.3024458
13:05:42:140;-1.1875241;9.423578;1.3024458
13:05:42:140;-1.1875241;9.423578;1.3024458
13:05:42:140;-1.1875241;9.423578;1.3024458
13:05:42:140;-1.1875241;9.423578;1.3024458
13:05:42:140;-1.1875241;9.423578;1.3024458
13:05:42:140;-1.1875241;9.423578;1.3024458
13:05:42:140;-1.1875241;9.423578;1.3024458
13:05:42:140;-1.1875241;9.423578;1.3024458
13:05:42:140;-1.1875241;9.423578;1.3024458
13:05:42:140;-1.1875241;9.423578;1.3024458
13:05:42:140;-1.1875241;9.423578;1.3024458
13:05:42:140;-1.1875241;9.423578;1.3024458
13:05:42:140;-1.1875241;9.423578;1.3024458
13:05:42:140;-1.1875241;9.423578;1.3024458
13:05:42:257;-1.2641385;9.883265;0.9768343
13:05:42:257;-1.2641385;9.883265;0.9768343
13:05:42:257;-1.2641385;9.883265;0.9768343
13:05:42:257;-1.2641385;9.883265;0.9768343
13:05:42:257;-1.2641385;9.883265;0.9768343
13:05:42:257;-1.2641385;9.883265;0.9768343
13:05:42:257;-1.2641385;9.883265;0.9768343
13:05:42:257;-1.2641385;9.883265;0.9768343
13:05:42:257;-1.2641385;9.883265;0.9768343
13:05:42:257;-1.2641385;9.883265;0.9768343
13:05:42:257;-1.2641385;9.883265;0.9768343
13:05:42:257;-1.2641385;9.883265;0.9768343
13:05:42:257;-1.2641385;9.883265;0.9768343
13:05:42:257;-1.2641385;9.883265;0.9768343
13:05:42:363;0.24899697;10.572795;0.076614454
13:05:42:363;0.24899697;10.572795;0.076614454
13:05:42:363;0.24899697;10.572795;0.076614454
13:05:42:363;0.24899697;10.572795;0.076614454
13:05:42:363;0.24899697;10.572795;0.076614454
13:05:42:363;0.24899697;10.572795;0.076614454
13:05:42:363;0.24899697;10.572795;0.076614454
13:05:42:363;0.24899697;10.572795;0.076614454
13:05:42:363;0.24899697;10.572795;0.076614454
13:05:42:363;0.24899697;10.572795;0.076614454
13:05:42:363;0.24899697;10.572795;0.076614454
13:05:42:363;0.24899697;10.572795;0.076614454
13:05:42:363;0.24899697;10.572795;0.076614454
13:05:42:464;1.2641385;10.0748005;0.24899697
13:05:42:464;1.2641385;10.0748005;0.24899697
13:05:42:464;1.2641385;10.0748005;0.24899697
13:05:42:464;1.2641385;10.0748005;0.24899697
13:05:42:464;1.2641385;10.0748005;0.24899697
13:05:42:464;1.2641385;10.0748005;0.24899697
13:05:42:464;1.2641385;10.0748005;0.24899697
13:05:42:464;1.2641385;10.0748005;0.24899697
13:05:42:464;1.2641385;10.0748005;0.24899697
13:05:42:464;1.2641385;10.0748005;0.24899697
13:05:42:464;1.2641385;10.0748005;0.24899697
13:05:42:464;1.2641385;10.0748005;0.24899697
13:05:42:464;1.2641385;10.0748005;0.24899697
13:05:42:464;1.2641385;10.0748005;0.24899697
13:05:42:464;1.2641385;10.0748005;0.24899697
13:05:42:581;0.2873042;10.304645;0.24899697
13:05:42:581;0.2873042;10.304645;0.24899697
13:05:42:581;0.2873042;10.304645;0.24899697
13:05:42:581;0.2873042;10.304645;0.24899697
13:05:42:581;0.2873042;10.304645;0.24899697
13:05:42:581;0.2873042;10.304645;0.24899697
13:05:42:581;0.2873042;10.304645;0.24899697
13:05:42:581;0.2873042;10.304645;0.24899697
13:05:42:581;0.2873042;10.304645;0.24899697
13:05:42:581;0.2873042;10.304645;0.24899697
13:05:42:581;0.2873042;10.304645;0.24899697
13:05:42:581;0.2873042;10.304645;0.24899697
13:05:42:581;0.2873042;10.304645;0.24899697
13:05:42:581;0.2873042;10.304645;0.24899697
13:05:42:581;0.2873042;10.304645;0.24899697
13:05:42:700;-1.091756;10.457873;0.5746084
13:05:42:700;-1.091756;10.457873;0.5746084
13:05:42:700;-1.091756;10.457873;0.5746084
13:05:42:700;-1.091756;10.457873;0.5746084
13:05:42:700;-1.091756;10.457873;0.5746084
13:05:42:700;-1.091756;10.457873;0.5746084
13:05:42:700;-1.091756;10.457873;0.5746084
13:05:42:700;-1.091756;10.457873;0.5746084
13:05:42:700;-1.091756;10.457873;0.5746084
13:05:42:700;-1.091756;10.457873;0.5746084
13:05:42:700;-1.091756;10.457873;0.5746084
13:05:42:700;-1.091756;10.457873;0.5746084
13:05:42:700;-1.091756;10.457873;0.5746084
13:05:42:700;-1.091756;10.457873;0.5746084
13:05:42:700;-1.091756;10.457873;0.5746084
13:05:42:817;-1.0151415;10.208876;1.1492168
13:05:42:817;-1.0151415;10.208876;1.1492168
13:05:42:817;-1.0151415;10.208876;1.1492168
13:05:42:817;-1.0151415;10.208876;1.1492168
13:05:42:817;-1.0151415;10.208876;1.1492168
13:05:42:817;-1.0151415;10.208876;1.1492168
13:05:42:817;-1.0151415;10.208876;1.1492168
13:05:42:817;-1.0151415;10.208876;1.1492168
13:05:42:817;-1.0151415;10.208876;1.1492168
13:05:42:817;-1.0151415;10.208876;1.1492168
13:05:42:817;-1.0151415;10.208876;1.1492168
13:05:42:817;-1.0151415;10.208876;1.1492168
13:05:42:817;-1.0151415;10.208876;1.1492168
13:05:42:817;-1.0151415;10.208876;1.1492168
13:05:42:817;-1.0151415;10.208876;1.1492168
13:05:42:936;-0.30645782;10.553641;0.22984336
13:05:42:936;-0.30645782;10.553641;0.22984336
13:05:42:936;-0.30645782;10.553641;0.22984336
13:05:42:936;-0.30645782;10.553641;0.22984336
13:05:42:936;-0.30645782;10.553641;0.22984336
13:05:42:936;-0.30645782;10.553641;0.22984336
13:05:42:936;-0.30645782;10.553641;0.22984336
13:05:42:936;-0.30645782;10.553641;0.22984336
13:05:42:936;-0.30645782;10.553641;0.22984336
13:05:42:936;-0.30645782;10.553641;0.22984336
13:05:42:936;-0.30645782;10.553641;0.22984336
13:05:42:936;-0.30645782;10.553641;0.22984336
13:05:42:936;-0.30645782;10.553641;0.22984336
13:05:43:039;-0.49799395;10.6877165;1.1875241
13:05:43:039;-0.49799395;10.6877165;1.1875241
13:05:43:039;-0.49799395;10.6877165;1.1875241
13:05:43:039;-0.49799395;10.6877165;1.1875241
13:05:43:039;-0.49799395;10.6877165;1.1875241
13:05:43:039;-0.49799395;10.6877165;1.1875241
13:05:43:039;-0.49799395;10.6877165;1.1875241
13:05:43:039;-0.49799395;10.6877165;1.1875241
13:05:43:039;-0.49799395;10.6877165;1.1875241
13:05:43:039;-0.49799395;10.6877165;1.1875241
13:05:43:039;-0.49799395;10.6877165;1.1875241
13:05:43:039;-0.49799395;10.6877165;1.1875241
13:05:43:039;-0.49799395;10.6877165;1.1875241
13:05:43:039;-0.49799395;10.6877165;1.1875241
13:05:43:039;-0.49799395;10.6877165;1.1875241
13:05:43:039;-0.49799395;10.6877165;1.1875241
13:05:43:159;-0.9959879;9.691729;0.8810662
13:05:43:159;-0.9959879;9.691729;0.8810662
13:05:43:159;-0.9959879;9.691729;0.8810662
13:05:43:159;-0.9959879;9.691729;0.8810662
13:05:43:159;-0.9959879;9.691729;0.8810662
13:05:43:159;-0.9959879;9.691729;0.8810662
13:05:43:159;-0.9959879;9.691729;0.8810662
13:05:43:159;-0.9959879;9.691729;0.8810662
13:05:43:159;-0.9959879;9.691729;0.8810662
13:05:43:159;-0.9959879;9.691729;0.8810662
13:05:43:159;-0.9959879;9.691729;0.8810662
13:05:43:159;-0.9959879;9.691729;0.8810662
13:05:43:159;-0.9959879;9.691729;0.8810662
13:05:43:159;-0.9959879;9.691729;0.8810662
13:05:43:159;-0.9959879;9.691729;0.8810662
13:05:43:159;-0.9959879;9.691729;0.8810662
13:05:43:282;-0.78529817;9.883265;1.6089035
13:05:43:282;-0.78529817;9.883265;1.6089035
13:05:43:282;-0.78529817;9.883265;1.6089035
13:05:43:282;-0.78529817;9.883265;1.6089035
13:05:43:282;-0.78529817;9.883265;1.6089035
13:05:43:282;-0.78529817;9.883265;1.6089035
13:05:43:282;-0.78529817;9.883265;1.6089035
13:05:43:282;-0.78529817;9.883265;1.6089035
13:05:43:282;-0.78529817;9.883265;1.6089035
13:05:43:282;-0.78529817;9.883265;1.6089035
13:05:43:282;-0.78529817;9.883265;1.6089035
13:05:43:282;-0.78529817;9.883265;1.6089035
13:05:43:282;-0.78529817;9.883265;1.6089035
13:05:43:282;-0.78529817;9.883265;1.6089035
13:05:43:282;-0.78529817;9.883265;1.6089035
13:05:43:402;-0.7469909;10.840945;0.05746084
13:05:43:402;-0.7469909;10.840945;0.05746084
13:05:43:402;-0.7469909;10.840945;0.05746084
13:05:43:402;-0.7469909;10.840945;0.05746084
13:05:43:402;-0.7469909;10.840945;0.05746084
13:05:43:402;-0.7469909;10.840945;0.05746084
13:05:43:402;-0.7469909;10.840945;0.05746084
13:05:43:402;-0.7469909;10.840945;0.05746084
13:05:43:402;-0.7469909;10.840945;0.05746084
13:05:43:402;-0.7469909;10.840945;0.05746084
13:05:43:402;-0.7469909;10.840945;0.05746084
13:05:43:402;-0.7469909;10.840945;0.05746084
13:05:43:402;-0.7469909;10.840945;0.05746084
13:05:43:402;-0.7469909;10.840945;0.05746084
13:05:43:402;-0.7469909;10.840945;0.05746084
13:05:43:520;0.2681506;9.653421;1.3599066
13:05:43:520;0.2681506;9.653421;1.3599066
13:05:43:520;0.2681506;9.653421;1.3599066
13:05:43:520;0.2681506;9.653421;1.3599066
13:05:43:520;0.2681506;9.653421;1.3599066
13:05:43:520;0.2681506;9.653421;1.3599066
13:05:43:520;0.2681506;9.653421;1.3599066
13:05:43:520;0.2681506;9.653421;1.3599066
13:05:43:520;0.2681506;9.653421;1.3599066
13:05:43:520;0.2681506;9.653421;1.3599066
13:05:43:520;0.2681506;9.653421;1.3599066
13:05:43:520;0.2681506;9.653421;1.3599066
13:05:43:520;0.2681506;9.653421;1.3599066
13:05:43:520;0.2681506;9.653421;1.3599066
13:05:43:520;0.2681506;9.653421;1.3599066
13:05:43:636;0.9768343;9.653421;1.0151415
13:05:43:636;0.9768343;9.653421;1.0151415
13:05:43:636;0.9768343;9.653421;1.0151415
13:05:43:636;0.9768343;9.653421;1.0151415
13:05:43:636;0.9768343;9.653421;1.0151415
13:05:43:636;0.9768343;9.653421;1.0151415
13:05:43:636;0.9768343;9.653421;1.0151415
13:05:43:636;0.9768343;9.653421;1.0151415
13:05:43:636;0.9768343;9.653421;1.0151415
13:05:43:636;0.9768343;9.653421;1.0151415
13:05:43:636;0.9768343;9.653421;1.0151415
13:05:43:636;0.9768343;9.653421;1.0151415
13:05:43:636;0.9768343;9.653421;1.0151415
13:05:43:636;0.9768343;9.653421;1.0151415
13:05:43:636;0.9768343;9.653421;1.0151415
13:05:43:754;0.019153614;9.442732;0.90021986
13:05:43:754;0.019153614;9.442732;0.90021986
13:05:43:754;0.019153614;9.442732;0.90021986
13:05:43:754;0.019153614;9.442732;0.90021986
13:05:43:754;0.019153614;9.442732;0.90021986
13:05:43:754;0.019153614;9.442732;0.90021986
13:05:43:754;0.019153614;9.442732;0.90021986
13:05:43:754;0.019153614;9.442732;0.90021986
13:05:43:754;0.019153614;9.442732;0.90021986
13:05:43:754;0.019153614;9.442732;0.90021986
13:05:43:754;0.019153614;9.442732;0.90021986
13:05:43:754;0.019153614;9.442732;0.90021986
13:05:43:754;0.019153614;9.442732;0.90021986
13:05:43:754;0.019153614;9.442732;0.90021986
13:05:43:754;0.019153614;9.442732;0.90021986
13:05:43:874;-1.7238252;10.01734;0.7661445
13:05:43:874;-1.7238252;10.01734;0.7661445
13:05:43:874;-1.7238252;10.01734;0.7661445
13:05:43:874;-1.7238252;10.01734;0.7661445
13:05:43:874;-1.7238252;10.01734;0.7661445
13:05:43:874;-1.7238252;10.01734;0.7661445
13:05:43:874;-1.7238252;10.01734;0.7661445
13:05:43:874;-1.7238252;10.01734;0.7661445
13:05:43:874;-1.7238252;10.01734;0.7661445
13:05:43:874;-1.7238252;10.01734;0.7661445
13:05:43:874;-1.7238252;10.01734;0.7661445
13:05:43:874;-1.7238252;10.01734;0.7661445
13:05:43:874;-1.7238252;10.01734;0.7661445
13:05:43:874;-1.7238252;10.01734;0.7661445
13:05:43:874;-1.7238252;10.01734;0.7661445
13:05:43:990;-0.842759;10.572795;-0.095768064
13:05:43:990;-0.842759;10.572795;-0.095768064
13:05:43:990;-0.842759;10.572795;-0.095768064
13:05:43:990;-0.842759;10.572795;-0.095768064
13:05:43:990;-0.842759;10.572795;-0.095768064
13:05:43:990;-0.842759;10.572795;-0.095768064
13:05:43:990;-0.842759;10.572795;-0.095768064
13:05:43:990;-0.842759;10.572795;-0.095768064
13:05:43:990;-0.842759;10.572795;-0.095768064
13:05:43:990;-0.842759;10.572795;-0.095768064
13:05:43:990;-0.842759;10.572795;-0.095768064
13:05:43:990;-0.842759;10.572795;-0.095768064
13:05:43:990;-0.842759;10.572795;-0.095768064
13:05:43:990;-0.842759;10.572795;-0.095768064
13:05:43:990;-0.842759;10.572795;-0.095768064
13:05:43:990;-0.842759;10.572795;-0.095768064
13:05:44:111;0.1340753;10.457873;0.59376204
13:05:44:111;0.1340753;10.457873;0.59376204
13:05:44:111;0.1340753;10.457873;0.59376204
13:05:44:111;0.1340753;10.457873;0.59376204
13:05:44:111;0.1340753;10.457873;0.59376204
13:05:44:111;0.1340753;10.457873;0.59376204
13:05:44:111;0.1340753;10.457873;0.59376204
13:05:44:111;0.1340753;10.457873;0.59376204
13:05:44:111;0.1340753;10.457873;0.59376204
13:05:44:111;0.1340753;10.457873;0.59376204
13:05:44:111;0.1340753;10.457873;0.59376204
13:05:44:111;0.1340753;10.457873;0.59376204
13:05:44:111;0.1340753;10.457873;0.59376204
13:05:44:214;-1.3599066;9.768343;0.7661445
13:05:44:214;-1.3599066;9.768343;0.7661445
13:05:44:214;-1.3599066;9.768343;0.7661445
13:05:44:214;-1.3599066;9.768343;0.7661445
13:05:44:214;-1.3599066;9.768343;0.7661445
13:05:44:214;-1.3599066;9.768343;0.7661445
13:05:44:214;-1.3599066;9.768343;0.7661445
13:05:44:214;-1.3599066;9.768343;0.7661445
13:05:44:214;-1.3599066;9.768343;0.7661445
13:05:44:214;-1.3599066;9.768343;0.7661445
13:05:44:214;-1.3599066;9.768343;0.7661445
13:05:44:214;-1.3599066;9.768343;0.7661445
13:05:44:214;-1.3599066;9.768343;0.7661445
13:05:44:214;-1.3599066;9.768343;0.7661445
13:05:44:214;-1.3599066;9.768343;0.7661445
13:05:44:333;-1.2641385;10.266336;0.5363012
13:05:44:333;-1.2641385;10.266336;0.5363012
13:05:44:333;-1.2641385;10.266336;0.5363012
13:05:44:333;-1.2641385;10.266336;0.5363012
13:05:44:333;-1.2641385;10.266336;0.5363012
13:05:44:333;-1.2641385;10.266336;0.5363012
13:05:44:333;-1.2641385;10.266336;0.5363012
13:05:44:333;-1.2641385;10.266336;0.5363012
13:05:44:333;-1.2641385;10.266336;0.5363012
13:05:44:333;-1.2641385;10.266336;0.5363012
13:05:44:333;-1.2641385;10.266336;0.5363012
13:05:44:333;-1.2641385;10.266336;0.5363012
13:05:44:333;-1.2641385;10.266336;0.5363012
13:05:44:333;-1.2641385;10.266336;0.5363012
13:05:44:333;-1.2641385;10.266336;0.5363012
13:05:44:452;-0.32561144;9.653421;0.5363012
13:05:44:452;-0.32561144;9.653421;0.5363012
13:05:44:452;-0.32561144;9.653421;0.5363012
13:05:44:452;-0.32561144;9.653421;0.5363012
13:05:44:452;-0.32561144;9.653421;0.5363012
13:05:44:452;-0.32561144;9.653421;0.5363012
13:05:44:452;-0.32561144;9.653421;0.5363012
13:05:44:452;-0.32561144;9.653421;0.5363012
13:05:44:452;-0.32561144;9.653421;0.5363012
13:05:44:452;-0.32561144;9.653421;0.5363012
13:05:44:452;-0.32561144;9.653421;0.5363012
13:05:44:452;-0.32561144;9.653421;0.5363012
13:05:44:452;-0.32561144;9.653421;0.5363012
13:05:44:452;-0.32561144;9.653421;0.5363012
13:05:44:452;-0.32561144;9.653421;0.5363012
13:05:44:570;-0.24899697;9.844957;0.22984336
13:05:44:570;-0.24899697;9.844957;0.22984336
13:05:44:570;-0.24899697;9.844957;0.22984336
13:05:44:570;-0.24899697;9.844957;0.22984336
13:05:44:570;-0.24899697;9.844957;0.22984336
13:05:44:570;-0.24899697;9.844957;0.22984336
13:05:44:570;-0.24899697;9.844957;0.22984336
13:05:44:570;-0.24899697;9.844957;0.22984336
13:05:44:570;-0.24899697;9.844957;0.22984336
13:05:44:570;-0.24899697;9.844957;0.22984336
13:05:44:570;-0.24899697;9.844957;0.22984336
13:05:44:570;-0.24899697;9.844957;0.22984336
13:05:44:570;-0.24899697;9.844957;0.22984336
13:05:44:570;-0.24899697;9.844957;0.22984336
13:05:44:677;-0.49799395;9.902418;1.2449849
13:05:44:677;-0.49799395;9.902418;1.2449849
13:05:44:677;-0.49799395;9.902418;1.2449849
13:05:44:677;-0.49799395;9.902418;1.2449849
13:05:44:677;-0.49799395;9.902418;1.2449849
13:05:44:677;-0.49799395;9.902418;1.2449849
13:05:44:677;-0.49799395;9.902418;1.2449849
13:05:44:677;-0.49799395;9.902418;1.2449849
13:05:44:677;-0.49799395;9.902418;1.2449849
13:05:44:677;-0.49799395;9.902418;1.2449849
13:05:44:677;-0.49799395;9.902418;1.2449849
13:05:44:677;-0.49799395;9.902418;1.2449849
13:05:44:677;-0.49799395;9.902418;1.2449849
13:05:44:677;-0.49799395;9.902418;1.2449849
13:05:44:677;-0.49799395;9.902418;1.2449849
13:05:44:677;-0.49799395;9.902418;1.2449849
13:05:44:801;0.076614454;10.879252;-0.5746084
13:05:44:801;0.076614454;10.879252;-0.5746084
13:05:44:801;0.076614454;10.879252;-0.5746084
13:05:44:801;0.076614454;10.879252;-0.5746084
13:05:44:801;0.076614454;10.879252;-0.5746084
13:05:44:801;0.076614454;10.879252;-0.5746084
13:05:44:801;0.076614454;10.879252;-0.5746084
13:05:44:801;0.076614454;10.879252;-0.5746084
13:05:44:801;0.076614454;10.879252;-0.5746084
13:05:44:801;0.076614454;10.879252;-0.5746084
13:05:44:801;0.076614454;10.879252;-0.5746084
13:05:44:801;0.076614454;10.879252;-0.5746084
13:05:44:801;0.076614454;10.879252;-0.5746084
13:05:44:801;0.076614454;10.879252;-0.5746084
13:05:44:801;0.076614454;10.879252;-0.5746084
13:05:44:920;0.59376204;10.247183;-0.63206923
13:05:44:920;0.59376204;10.247183;-0.63206923
13:05:44:920;0.59376204;10.247183;-0.63206923
13:05:44:920;0.59376204;10.247183;-0.63206923
13:05:44:920;0.59376204;10.247183;-0.63206923
13:05:44:920;0.59376204;10.247183;-0.63206923
13:05:44:920;0.59376204;10.247183;-0.63206923
13:05:44:920;0.59376204;10.247183;-0.63206923
13:05:44:920;0.59376204;10.247183;-0.63206923
13:05:44:920;0.59376204;10.247183;-0.63206923
13:05:44:920;0.59376204;10.247183;-0.63206923
13:05:44:920;0.59376204;10.247183;-0.63206923
13:05:44:920;0.59376204;10.247183;-0.63206923
13:05:44:920;0.59376204;10.247183;-0.63206923
13:05:44:920;0.59376204;10.247183;-0.63206923
13:05:45:039;-0.47884035;8.944737;0.842759
13:05:45:039;-0.47884035;8.944737;0.842759
13:05:45:039;-0.47884035;8.944737;0.842759
13:05:45:039;-0.47884035;8.944737;0.842759
13:05:45:039;-0.47884035;8.944737;0.842759
13:05:45:039;-0.47884035;8.944737;0.842759
13:05:45:039;-0.47884035;8.944737;0.842759
13:05:45:039;-0.47884035;8.944737;0.842759
13:05:45:039;-0.47884035;8.944737;0.842759
13:05:45:039;-0.47884035;8.944737;0.842759
13:05:45:039;-0.47884035;8.944737;0.842759
13:05:45:039;-0.47884035;8.944737;0.842759
13:05:45:039;-0.47884035;8.944737;0.842759
13:05:45:039;-0.47884035;8.944737;0.842759
13:05:45:039;-0.47884035;8.944737;0.842759
13:05:45:039;-0.47884035;8.944737;0.842759
13:05:45:157;-0.90021986;10.170568;0.038307227
13:05:45:157;-0.90021986;10.170568;0.038307227
13:05:45:157;-0.90021986;10.170568;0.038307227
13:05:45:157;-0.90021986;10.170568;0.038307227
13:05:45:157;-0.90021986;10.170568;0.038307227
13:05:45:157;-0.90021986;10.170568;0.038307227
13:05:45:157;-0.90021986;10.170568;0.038307227
13:05:45:157;-0.90021986;10.170568;0.038307227
13:05:45:157;-0.90021986;10.170568;0.038307227
13:05:45:157;-0.90021986;10.170568;0.038307227
13:05:45:157;-0.90021986;10.170568;0.038307227
13:05:45:157;-0.90021986;10.170568;0.038307227
13:05:45:157;-0.90021986;10.170568;0.038307227
13:05:45:258;-0.8619126;10.323798;0.4213795
13:05:45:258;-0.8619126;10.323798;0.4213795
13:05:45:258;-0.8619126;10.323798;0.4213795
13:05:45:258;-0.8619126;10.323798;0.4213795
13:05:45:258;-0.8619126;10.323798;0.4213795
13:05:45:258;-0.8619126;10.323798;0.4213795
13:05:45:258;-0.8619126;10.323798;0.4213795
13:05:45:258;-0.8619126;10.323798;0.4213795
13:05:45:258;-0.8619126;10.323798;0.4213795
13:05:45:258;-0.8619126;10.323798;0.4213795
13:05:45:258;-0.8619126;10.323798;0.4213795
13:05:45:258;-0.8619126;10.323798;0.4213795
13:05:45:258;-0.8619126;10.323798;0.4213795
13:05:45:258;-0.8619126;10.323798;0.4213795
13:05:45:258;-0.8619126;10.323798;0.4213795
13:05:45:376;-1.3215994;10.113108;0.40222588
13:05:45:376;-1.3215994;10.113108;0.40222588
13:05:45:376;-1.3215994;10.113108;0.40222588
13:05:45:376;-1.3215994;10.113108;0.40222588
13:05:45:376;-1.3215994;10.113108;0.40222588
13:05:45:376;-1.3215994;10.113108;0.40222588
13:05:45:376;-1.3215994;10.113108;0.40222588
13:05:45:376;-1.3215994;10.113108;0.40222588
13:05:45:376;-1.3215994;10.113108;0.40222588
13:05:45:376;-1.3215994;10.113108;0.40222588
13:05:45:376;-1.3215994;10.113108;0.40222588
13:05:45:376;-1.3215994;10.113108;0.40222588
13:05:45:376;-1.3215994;10.113108;0.40222588
13:05:45:376;-1.3215994;10.113108;0.40222588
13:05:45:376;-1.3215994;10.113108;0.40222588
13:05:45:495;-0.6512229;9.998186;0.63206923
13:05:45:495;-0.6512229;9.998186;0.63206923
13:05:45:495;-0.6512229;9.998186;0.63206923
13:05:45:495;-0.6512229;9.998186;0.63206923
13:05:45:495;-0.6512229;9.998186;0.63206923
13:05:45:495;-0.6512229;9.998186;0.63206923
13:05:45:495;-0.6512229;9.998186;0.63206923
13:05:45:495;-0.6512229;9.998186;0.63206923
13:05:45:495;-0.6512229;9.998186;0.63206923
13:05:45:495;-0.6512229;9.998186;0.63206923
13:05:45:495;-0.6512229;9.998186;0.63206923
13:05:45:495;-0.6512229;9.998186;0.63206923
13:05:45:495;-0.6512229;9.998186;0.63206923
13:05:45:495;-0.6512229;9.998186;0.63206923
13:05:45:495;-0.6512229;9.998186;0.63206923
13:05:45:495;-0.6512229;9.998186;0.63206923
13:05:45:495;-0.6512229;9.998186;0.63206923
13:05:45:626;0.61291564;9.749189;0.7086837
13:05:45:626;0.61291564;9.749189;0.7086837
13:05:45:626;0.61291564;9.749189;0.7086837
13:05:45:626;0.61291564;9.749189;0.7086837
13:05:45:626;0.61291564;9.749189;0.7086837
13:05:45:626;0.61291564;9.749189;0.7086837
13:05:45:626;0.61291564;9.749189;0.7086837
13:05:45:626;0.61291564;9.749189;0.7086837
13:05:45:626;0.61291564;9.749189;0.7086837
13:05:45:626;0.61291564;9.749189;0.7086837
13:05:45:626;0.61291564;9.749189;0.7086837
13:05:45:626;0.61291564;9.749189;0.7086837
13:05:45:626;0.61291564;9.749189;0.7086837
13:05:45:626;0.61291564;9.749189;0.7086837
13:05:45:736;-0.5554548;10.304645;0.019153614
13:05:45:736;-0.5554548;10.304645;0.019153614
13:05:45:736;-0.5554548;10.304645;0.019153614
13:05:45:736;-0.5554548;10.304645;0.019153614
13:05:45:736;-0.5554548;10.304645;0.019153614
13:05:45:736;-0.5554548;10.304645;0.019153614
13:05:45:736;-0.5554548;10.304645;0.019153614
13:05:45:736;-0.5554548;10.304645;0.019153614
13:05:45:736;-0.5554548;10.304645;0.019153614
13:05:45:736;-0.5554548;10.304645;0.019153614
13:05:45:736;-0.5554548;10.304645;0.019153614
13:05:45:736;-0.5554548;10.304645;0.019153614
13:05:45:736;-0.5554548;10.304645;0.019153614
13:05:45:841;0.80445176;10.208876;0.24899697
13:05:45:841;0.80445176;10.208876;0.24899697
13:05:45:841;0.80445176;10.208876;0.24899697
13:05:45:841;0.80445176;10.208876;0.24899697
13:05:45:841;0.80445176;10.208876;0.24899697
13:05:45:841;0.80445176;10.208876;0.24899697
13:05:45:841;0.80445176;10.208876;0.24899697
13:05:45:841;0.80445176;10.208876;0.24899697
13:05:45:841;0.80445176;10.208876;0.24899697
13:05:45:841;0.80445176;10.208876;0.24899697
13:05:45:841;0.80445176;10.208876;0.24899697
13:05:45:841;0.80445176;10.208876;0.24899697
13:05:45:841;0.80445176;10.208876;0.24899697
13:05:45:841;0.80445176;10.208876;0.24899697
13:05:45:841;0.80445176;10.208876;0.24899697
13:05:45:959;0.019153614;10.170568;0.32561144
13:05:45:959;0.019153614;10.170568;0.32561144
13:05:45:959;0.019153614;10.170568;0.32561144
13:05:45:959;0.019153614;10.170568;0.32561144
13:05:45:959;0.019153614;10.170568;0.32561144
13:05:45:959;0.019153614;10.170568;0.32561144
13:05:45:959;0.019153614;10.170568;0.32561144
13:05:45:959;0.019153614;10.170568;0.32561144
13:05:45:959;0.019153614;10.170568;0.32561144
13:05:45:959;0.019153614;10.170568;0.32561144
13:05:45:959;0.019153614;10.170568;0.32561144
13:05:45:959;0.019153614;10.170568;0.32561144
13:05:45:959;0.019153614;10.170568;0.32561144
13:05:45:959;0.019153614;10.170568;0.32561144
13:05:45:959;0.019153614;10.170568;0.32561144
13:05:46:076;-1.685518;9.921572;0.6512229
13:05:46:076;-1.685518;9.921572;0.6512229
13:05:46:076;-1.685518;9.921572;0.6512229
13:05:46:076;-1.685518;9.921572;0.6512229
13:05:46:076;-1.685518;9.921572;0.6512229
13:05:46:076;-1.685518;9.921572;0.6512229
13:05:46:076;-1.685518;9.921572;0.6512229
13:05:46:076;-1.685518;9.921572;0.6512229
13:05:46:076;-1.685518;9.921572;0.6512229
13:05:46:076;-1.685518;9.921572;0.6512229
13:05:46:076;-1.685518;9.921572;0.6512229
13:05:46:076;-1.685518;9.921572;0.6512229
13:05:46:076;-1.685518;9.921572;0.6512229
13:05:46:076;-1.685518;9.921572;0.6512229
13:05:46:076;-1.685518;9.921572;0.6512229
13:05:46:076;-1.685518;9.921572;0.6512229
13:05:46:196;-0.51714754;10.0748005;0.4405331
13:05:46:196;-0.51714754;10.0748005;0.4405331
13:05:46:196;-0.51714754;10.0748005;0.4405331
13:05:46:196;-0.51714754;10.0748005;0.4405331
13:05:46:196;-0.51714754;10.0748005;0.4405331
13:05:46:196;-0.51714754;10.0748005;0.4405331
13:05:46:196;-0.51714754;10.0748005;0.4405331
13:05:46:196;-0.51714754;10.0748005;0.4405331
13:05:46:196;-0.51714754;10.0748005;0.4405331
13:05:46:196;-0.51714754;10.0748005;0.4405331
13:05:46:196;-0.51714754;10.0748005;0.4405331
13:05:46:196;-0.51714754;10.0748005;0.4405331
13:05:46:196;-0.51714754;10.0748005;0.4405331
13:05:46:299;-0.5746084;10.132261;0.24899697
13:05:46:299;-0.5746084;10.132261;0.24899697
13:05:46:299;-0.5746084;10.132261;0.24899697
13:05:46:299;-0.5746084;10.132261;0.24899697
13:05:46:299;-0.5746084;10.132261;0.24899697
13:05:46:299;-0.5746084;10.132261;0.24899697
13:05:46:299;-0.5746084;10.132261;0.24899697
13:05:46:299;-0.5746084;10.132261;0.24899697
13:05:46:299;-0.5746084;10.132261;0.24899697
13:05:46:299;-0.5746084;10.132261;0.24899697
13:05:46:299;-0.5746084;10.132261;0.24899697
13:05:46:299;-0.5746084;10.132261;0.24899697
13:05:46:299;-0.5746084;10.132261;0.24899697
13:05:46:405;-1.2258313;10.28549;0.11492168
13:05:46:405;-1.2258313;10.28549;0.11492168
13:05:46:405;-1.2258313;10.28549;0.11492168
13:05:46:405;-1.2258313;10.28549;0.11492168
13:05:46:405;-1.2258313;10.28549;0.11492168
13:05:46:405;-1.2258313;10.28549;0.11492168
13:05:46:405;-1.2258313;10.28549;0.11492168
13:05:46:405;-1.2258313;10.28549;0.11492168
13:05:46:405;-1.2258313;10.28549;0.11492168
13:05:46:405;-1.2258313;10.28549;0.11492168
13:05:46:405;-1.2258313;10.28549;0.11492168
13:05:46:405;-1.2258313;10.28549;0.11492168
13:05:46:405;-1.2258313;10.28549;0.11492168
13:05:46:405;-1.2258313;10.28549;0.11492168
13:05:46:405;-1.2258313;10.28549;0.11492168
13:05:46:519;0.7086837;9.672575;1.1300632
13:05:46:519;0.7086837;9.672575;1.1300632
13:05:46:519;0.7086837;9.672575;1.1300632
13:05:46:519;0.7086837;9.672575;1.1300632
13:05:46:519;0.7086837;9.672575;1.1300632
13:05:46:519;0.7086837;9.672575;1.1300632
13:05:46:519;0.7086837;9.672575;1.1300632
13:05:46:519;0.7086837;9.672575;1.1300632
13:05:46:519;0.7086837;9.672575;1.1300632
13:05:46:519;0.7086837;9.672575;1.1300632
13:05:46:519;0.7086837;9.672575;1.1300632
13:05:46:519;0.7086837;9.672575;1.1300632
13:05:46:519;0.7086837;9.672575;1.1300632
13:05:46:519;0.7086837;9.672575;1.1300632
13:05:46:519;0.7086837;9.672575;1.1300632
13:05:46:519;0.7086837;9.672575;1.1300632
13:05:46:519;0.7086837;9.672575;1.1300632
13:05:46:652;0.9959879;9.883265;0.40222588
13:05:46:652;0.9959879;9.883265;0.40222588
13:05:46:652;0.9959879;9.883265;0.40222588
13:05:46:652;0.9959879;9.883265;0.40222588
13:05:46:652;0.9959879;9.883265;0.40222588
13:05:46:652;0.9959879;9.883265;0.40222588
13:05:46:652;0.9959879;9.883265;0.40222588
13:05:46:652;0.9959879;9.883265;0.40222588
13:05:46:652;0.9959879;9.883265;0.40222588
13:05:46:652;0.9959879;9.883265;0.40222588
13:05:46:652;0.9959879;9.883265;0.40222588
13:05:46:652;0.9959879;9.883265;0.40222588
13:05:46:652;0.9959879;9.883265;0.40222588
13:05:46:652;0.9959879;9.883265;0.40222588
13:05:46:652;0.9959879;9.883265;0.40222588
13:05:46:771;-0.32561144;10.151415;0.4213795
13:05:46:771;-0.32561144;10.151415;0.4213795
13:05:46:771;-0.32561144;10.151415;0.4213795
13:05:46:771;-0.32561144;10.151415;0.4213795
13:05:46:771;-0.32561144;10.151415;0.4213795
13:05:46:771;-0.32561144;10.151415;0.4213795
13:05:46:771;-0.32561144;10.151415;0.4213795
13:05:46:771;-0.32561144;10.151415;0.4213795
13:05:46:771;-0.32561144;10.151415;0.4213795
13:05:46:771;-0.32561144;10.151415;0.4213795
13:05:46:771;-0.32561144;10.151415;0.4213795
13:05:46:771;-0.32561144;10.151415;0.4213795
13:05:46:771;-0.32561144;10.151415;0.4213795
13:05:46:874;-1.0726024;10.189722;0.15322891
13:05:46:874;-1.0726024;10.189722;0.15322891
13:05:46:874;-1.0726024;10.189722;0.15322891
13:05:46:874;-1.0726024;10.189722;0.15322891
13:05:46:874;-1.0726024;10.189722;0.15322891
13:05:46:874;-1.0726024;10.189722;0.15322891
13:05:46:874;-1.0726024;10.189722;0.15322891
13:05:46:874;-1.0726024;10.189722;0.15322891
13:05:46:874;-1.0726024;10.189722;0.15322891
13:05:46:874;-1.0726024;10.189722;0.15322891
13:05:46:874;-1.0726024;10.189722;0.15322891
13:05:46:874;-1.0726024;10.189722;0.15322891
13:05:46:874;-1.0726024;10.189722;0.15322891
13:05:46:874;-1.0726024;10.189722;0.15322891
13:05:46:874;-1.0726024;10.189722;0.15322891
13:05:46:992;0.21068975;10.093954;-0.095768064
13:05:46:992;0.21068975;10.093954;-0.095768064
13:05:46:992;0.21068975;10.093954;-0.095768064
13:05:46:992;0.21068975;10.093954;-0.095768064
13:05:46:992;0.21068975;10.093954;-0.095768064
13:05:46:992;0.21068975;10.093954;-0.095768064
13:05:46:992;0.21068975;10.093954;-0.095768064
13:05:46:992;0.21068975;10.093954;-0.095768064
13:05:46:992;0.21068975;10.093954;-0.095768064
13:05:46:992;0.21068975;10.093954;-0.095768064
13:05:46:992;0.21068975;10.093954;-0.095768064
13:05:46:992;0.21068975;10.093954;-0.095768064
13:05:46:992;0.21068975;10.093954;-0.095768064
13:05:46:992;0.21068975;10.093954;-0.095768064
13:05:46:992;0.21068975;10.093954;-0.095768064
13:05:46:992;0.21068975;10.093954;-0.095768064
13:05:46:992;0.21068975;10.093954;-0.095768064
13:05:47:124;-0.24899697;9.500193;0.63206923
13:05:47:124;-0.24899697;9.500193;0.63206923
13:05:47:124;-0.24899697;9.500193;0.63206923
13:05:47:124;-0.24899697;9.500193;0.63206923
13:05:47:124;-0.24899697;9.500193;0.63206923
13:05:47:124;-0.24899697;9.500193;0.63206923
13:05:47:124;-0.24899697;9.500193;0.63206923
13:05:47:124;-0.24899697;9.500193;0.63206923
13:05:47:124;-0.24899697;9.500193;0.63206923
13:05:47:124;-0.24899697;9.500193;0.63206923
13:05:47:124;-0.24899697;9.500193;0.63206923
13:05:47:124;-0.24899697;9.500193;0.63206923
13:05:47:124;-0.24899697;9.500193;0.63206923
13:05:47:124;-0.24899697;9.500193;0.63206923
13:05:47:124;-0.24899697;9.500193;0.63206923
13:05:47:124;-0.24899697;9.500193;0.63206923
13:05:47:124;-0.24899697;9.500193;0.63206923
13:05:47:124;-0.24899697;9.500193;0.63206923
13:05:47:124;-0.24899697;9.500193;0.63206923
13:05:47:124;-0.24899697;9.500193;0.63206923
13:05:47:275;0.11492168;9.5385;0.4213795
13:05:47:275;0.11492168;9.5385;0.4213795
13:05:47:275;0.11492168;9.5385;0.4213795
13:05:47:275;0.11492168;9.5385;0.4213795
13:05:47:275;0.11492168;9.5385;0.4213795
13:05:47:275;0.11492168;9.5385;0.4213795
13:05:47:275;0.11492168;9.5385;0.4213795
13:05:47:275;0.11492168;9.5385;0.4213795
13:05:47:275;0.11492168;9.5385;0.4213795
13:05:47:275;0.11492168;9.5385;0.4213795
13:05:47:275;0.11492168;9.5385;0.4213795
13:05:47:275;0.11492168;9.5385;0.4213795
13:05:47:275;0.11492168;9.5385;0.4213795
13:05:47:275;0.11492168;9.5385;0.4213795
13:05:47:385;-0.78529817;9.481039;-0.05746084
13:05:47:385;-0.78529817;9.481039;-0.05746084
13:05:47:385;-0.78529817;9.481039;-0.05746084
13:05:47:385;-0.78529817;9.481039;-0.05746084
13:05:47:385;-0.78529817;9.481039;-0.05746084
13:05:47:385;-0.78529817;9.481039;-0.05746084
13:05:47:385;-0.78529817;9.481039;-0.05746084
13:05:47:385;-0.78529817;9.481039;-0.05746084
13:05:47:385;-0.78529817;9.481039;-0.05746084
13:05:47:385;-0.78529817;9.481039;-0.05746084
13:05:47:385;-0.78529817;9.481039;-0.05746084
13:05:47:385;-0.78529817;9.481039;-0.05746084
13:05:47:385;-0.78529817;9.481039;-0.05746084
13:05:47:385;-0.78529817;9.481039;-0.05746084
13:05:47:500;0.4213795;9.557653;0.19153613
13:05:47:500;0.4213795;9.557653;0.19153613
13:05:47:500;0.4213795;9.557653;0.19153613
13:05:47:500;0.4213795;9.557653;0.19153613
13:05:47:500;0.4213795;9.557653;0.19153613
13:05:47:500;0.4213795;9.557653;0.19153613
13:05:47:500;0.4213795;9.557653;0.19153613
13:05:47:500;0.4213795;9.557653;0.19153613
13:05:47:500;0.4213795;9.557653;0.19153613
13:05:47:500;0.4213795;9.557653;0.19153613
13:05:47:500;0.4213795;9.557653;0.19153613
13:05:47:500;0.4213795;9.557653;0.19153613
13:05:47:500;0.4213795;9.557653;0.19153613
13:05:47:500;0.4213795;9.557653;0.19153613
13:05:47:500;0.4213795;9.557653;0.19153613
13:05:47:500;0.4213795;9.557653;0.19153613
13:05:47:618;-0.82360536;10.151415;0.1340753
13:05:47:618;-0.82360536;10.151415;0.1340753
13:05:47:618;-0.82360536;10.151415;0.1340753
13:05:47:618;-0.82360536;10.151415;0.1340753
13:05:47:618;-0.82360536;10.151415;0.1340753
13:05:47:618;-0.82360536;10.151415;0.1340753
13:05:47:618;-0.82360536;10.151415;0.1340753
13:05:47:618;-0.82360536;10.151415;0.1340753
13:05:47:618;-0.82360536;10.151415;0.1340753
13:05:47:618;-0.82360536;10.151415;0.1340753
13:05:47:618;-0.82360536;10.151415;0.1340753
13:05:47:618;-0.82360536;10.151415;0.1340753
13:05:47:618;-0.82360536;10.151415;0.1340753
13:05:47:618;-0.82360536;10.151415;0.1340753
13:05:47:618;-0.82360536;10.151415;0.1340753
13:05:47:736;-1.7046716;10.247183;-0.19153613
13:05:47:736;-1.7046716;10.247183;-0.19153613
13:05:47:736;-1.7046716;10.247183;-0.19153613
13:05:47:736;-1.7046716;10.247183;-0.19153613
13:05:47:736;-1.7046716;10.247183;-0.19153613
13:05:47:736;-1.7046716;10.247183;-0.19153613
13:05:47:736;-1.7046716;10.247183;-0.19153613
13:05:47:736;-1.7046716;10.247183;-0.19153613
13:05:47:736;-1.7046716;10.247183;-0.19153613
13:05:47:736;-1.7046716;10.247183;-0.19153613
13:05:47:736;-1.7046716;10.247183;-0.19153613
13:05:47:736;-1.7046716;10.247183;-0.19153613
13:05:47:736;-1.7046716;10.247183;-0.19153613
13:05:47:840;-0.8810662;9.749189;0.34476504
13:05:47:840;-0.8810662;9.749189;0.34476504
13:05:47:840;-0.8810662;9.749189;0.34476504
13:05:47:840;-0.8810662;9.749189;0.34476504
13:05:47:840;-0.8810662;9.749189;0.34476504
13:05:47:840;-0.8810662;9.749189;0.34476504
13:05:47:840;-0.8810662;9.749189;0.34476504
13:05:47:840;-0.8810662;9.749189;0.34476504
13:05:47:840;-0.8810662;9.749189;0.34476504
13:05:47:840;-0.8810662;9.749189;0.34476504
13:05:47:840;-0.8810662;9.749189;0.34476504
13:05:47:840;-0.8810662;9.749189;0.34476504
13:05:47:840;-0.8810662;9.749189;0.34476504
13:05:47:840;-0.8810662;9.749189;0.34476504
13:05:47:952;0.47884035;10.400413;0.1340753
13:05:47:952;0.47884035;10.400413;0.1340753
13:05:47:952;0.47884035;10.400413;0.1340753
13:05:47:952;0.47884035;10.400413;0.1340753
13:05:47:952;0.47884035;10.400413;0.1340753
13:05:47:952;0.47884035;10.400413;0.1340753
13:05:47:952;0.47884035;10.400413;0.1340753
13:05:47:952;0.47884035;10.400413;0.1340753
13:05:47:952;0.47884035;10.400413;0.1340753
13:05:47:952;0.47884035;10.400413;0.1340753
13:05:47:952;0.47884035;10.400413;0.1340753
13:05:47:952;0.47884035;10.400413;0.1340753
13:05:47:952;0.47884035;10.400413;0.1340753
13:05:48:054;0.842759;10.247183;0.15322891
13:05:48:054;0.842759;10.247183;0.15322891
13:05:48:054;0.842759;10.247183;0.15322891
13:05:48:054;0.842759;10.247183;0.15322891
13:05:48:054;0.842759;10.247183;0.15322891
13:05:48:054;0.842759;10.247183;0.15322891
13:05:48:054;0.842759;10.247183;0.15322891
13:05:48:054;0.842759;10.247183;0.15322891
13:05:48:054;0.842759;10.247183;0.15322891
13:05:48:054;0.842759;10.247183;0.15322891
13:05:48:054;0.842759;10.247183;0.15322891
13:05:48:054;0.842759;10.247183;0.15322891
13:05:48:054;0.842759;10.247183;0.15322891
13:05:48:054;0.842759;10.247183;0.15322891
13:05:48:054;0.842759;10.247183;0.15322891
13:05:48:171;-0.45968673;10.400413;0.19153613
13:05:48:171;-0.45968673;10.400413;0.19153613
13:05:48:171;-0.45968673;10.400413;0.19153613
13:05:48:171;-0.45968673;10.400413;0.19153613
13:05:48:171;-0.45968673;10.400413;0.19153613
13:05:48:171;-0.45968673;10.400413;0.19153613
13:05:48:171;-0.45968673;10.400413;0.19153613
13:05:48:171;-0.45968673;10.400413;0.19153613
13:05:48:171;-0.45968673;10.400413;0.19153613
13:05:48:171;-0.45968673;10.400413;0.19153613
13:05:48:171;-0.45968673;10.400413;0.19153613
13:05:48:171;-0.45968673;10.400413;0.19153613
13:05:48:171;-0.45968673;10.400413;0.19153613
13:05:48:171;-0.45968673;10.400413;0.19153613
13:05:48:171;-0.45968673;10.400413;0.19153613
13:05:48:284;-0.2681506;10.0748005;-0.038307227
13:05:48:284;-0.2681506;10.0748005;-0.038307227
13:05:48:284;-0.2681506;10.0748005;-0.038307227
13:05:48:284;-0.2681506;10.0748005;-0.038307227
13:05:48:284;-0.2681506;10.0748005;-0.038307227
13:05:48:284;-0.2681506;10.0748005;-0.038307227
13:05:48:284;-0.2681506;10.0748005;-0.038307227
13:05:48:284;-0.2681506;10.0748005;-0.038307227
13:05:48:284;-0.2681506;10.0748005;-0.038307227
13:05:48:284;-0.2681506;10.0748005;-0.038307227
13:05:48:284;-0.2681506;10.0748005;-0.038307227
13:05:48:284;-0.2681506;10.0748005;-0.038307227
13:05:48:284;-0.2681506;10.0748005;-0.038307227
13:05:48:284;-0.2681506;10.0748005;-0.038307227
13:05:48:284;-0.2681506;10.0748005;-0.038307227
13:05:48:406;0.61291564;9.787497;0.40222588
13:05:48:406;0.61291564;9.787497;0.40222588
13:05:48:406;0.61291564;9.787497;0.40222588
13:05:48:406;0.61291564;9.787497;0.40222588
13:05:48:406;0.61291564;9.787497;0.40222588
13:05:48:406;0.61291564;9.787497;0.40222588
13:05:48:406;0.61291564;9.787497;0.40222588
13:05:48:406;0.61291564;9.787497;0.40222588
13:05:48:406;0.61291564;9.787497;0.40222588
13:05:48:406;0.61291564;9.787497;0.40222588
13:05:48:406;0.61291564;9.787497;0.40222588
13:05:48:406;0.61291564;9.787497;0.40222588
13:05:48:406;0.61291564;9.787497;0.40222588
13:05:48:406;0.61291564;9.787497;0.40222588
13:05:48:406;0.61291564;9.787497;0.40222588
13:05:48:518;-1.4173675;9.998186;0.38307226
13:05:48:518;-1.4173675;9.998186;0.38307226
13:05:48:518;-1.4173675;9.998186;0.38307226
13:05:48:518;-1.4173675;9.998186;0.38307226
13:05:48:518;-1.4173675;9.998186;0.38307226
13:05:48:518;-1.4173675;9.998186;0.38307226
13:05:48:518;-1.4173675;9.998186;0.38307226
13:05:48:518;-1.4173675;9.998186;0.38307226
13:05:48:518;-1.4173675;9.998186;0.38307226
13:05:48:518;-1.4173675;9.998186;0.38307226
13:05:48:518;-1.4173675;9.998186;0.38307226
13:05:48:518;-1.4173675;9.998186;0.38307226
13:05:48:518;-1.4173675;9.998186;0.38307226
13:05:48:518;-1.4173675;9.998186;0.38307226
13:05:48:518;-1.4173675;9.998186;0.38307226
13:05:48:636;0.32561144;10.01734;-0.21068975
13:05:48:636;0.32561144;10.01734;-0.21068975
13:05:48:636;0.32561144;10.01734;-0.21068975
13:05:48:636;0.32561144;10.01734;-0.21068975
13:05:48:636;0.32561144;10.01734;-0.21068975
13:05:48:636;0.32561144;10.01734;-0.21068975
13:05:48:636;0.32561144;10.01734;-0.21068975
13:05:48:636;0.32561144;10.01734;-0.21068975
13:05:48:636;0.32561144;10.01734;-0.21068975
13:05:48:636;0.32561144;10.01734;-0.21068975
13:05:48:636;0.32561144;10.01734;-0.21068975
13:05:48:636;0.32561144;10.01734;-0.21068975
13:05:48:636;0.32561144;10.01734;-0.21068975
13:05:48:636;0.32561144;10.01734;-0.21068975
13:05:48:636;0.32561144;10.01734;-0.21068975
13:05:48:756;1.1683705;10.955867;-0.6895301
13:05:48:756;1.1683705;10.955867;-0.6895301
13:05:48:756;1.1683705;10.955867;-0.6895301
13:05:48:756;1.1683705;10.955867;-0.6895301
13:05:48:756;1.1683705;10.955867;-0.6895301
13:05:48:756;1.1683705;10.955867;-0.6895301
13:05:48:756;1.1683705;10.955867;-0.6895301
13:05:48:756;1.1683705;10.955867;-0.6895301
13:05:48:756;1.1683705;10.955867;-0.6895301
13:05:48:756;1.1683705;10.955867;-0.6895301
13:05:48:756;1.1683705;10.955867;-0.6895301
13:05:48:756;1.1683705;10.955867;-0.6895301
13:05:48:756;1.1683705;10.955867;-0.6895301
13:05:48:857;0.6895301;9.519346;0.22984336
13:05:48:857;0.6895301;9.519346;0.22984336
13:05:48:857;0.6895301;9.519346;0.22984336
13:05:48:857;0.6895301;9.519346;0.22984336
13:05:48:857;0.6895301;9.519346;0.22984336
13:05:48:857;0.6895301;9.519346;0.22984336
13:05:48:857;0.6895301;9.519346;0.22984336
13:05:48:857;0.6895301;9.519346;0.22984336
13:05:48:857;0.6895301;9.519346;0.22984336
13:05:48:857;0.6895301;9.519346;0.22984336
13:05:48:857;0.6895301;9.519346;0.22984336
13:05:48:857;0.6895301;9.519346;0.22984336
13:05:48:857;0.6895301;9.519346;0.22984336
13:05:48:857;0.6895301;9.519346;0.22984336
13:05:48:857;0.6895301;9.519346;0.22984336
13:05:48:973;-0.36391866;9.902418;-0.45968673
13:05:48:973;-0.36391866;9.902418;-0.45968673
13:05:48:973;-0.36391866;9.902418;-0.45968673
13:05:48:973;-0.36391866;9.902418;-0.45968673
13:05:48:973;-0.36391866;9.902418;-0.45968673
13:05:48:973;-0.36391866;9.902418;-0.45968673
13:05:48:973;-0.36391866;9.902418;-0.45968673
13:05:48:973;-0.36391866;9.902418;-0.45968673
13:05:48:973;-0.36391866;9.902418;-0.45968673
13:05:48:973;-0.36391866;9.902418;-0.45968673
13:05:48:973;-0.36391866;9.902418;-0.45968673
13:05:48:973;-0.36391866;9.902418;-0.45968673
13:05:48:973;-0.36391866;9.902418;-0.45968673
13:05:49:078;0.32561144;10.036493;-0.019153614
13:05:49:078;0.32561144;10.036493;-0.019153614
13:05:49:078;0.32561144;10.036493;-0.019153614
13:05:49:078;0.32561144;10.036493;-0.019153614
13:05:49:078;0.32561144;10.036493;-0.019153614
13:05:49:078;0.32561144;10.036493;-0.019153614
13:05:49:078;0.32561144;10.036493;-0.019153614
13:05:49:078;0.32561144;10.036493;-0.019153614
13:05:49:078;0.32561144;10.036493;-0.019153614
13:05:49:078;0.32561144;10.036493;-0.019153614
13:05:49:078;0.32561144;10.036493;-0.019153614
13:05:49:078;0.32561144;10.036493;-0.019153614
13:05:49:078;0.32561144;10.036493;-0.019153614
13:05:49:078;0.32561144;10.036493;-0.019153614
13:05:49:181;0.038307227;9.998186;0.22984336
13:05:49:181;0.038307227;9.998186;0.22984336
13:05:49:181;0.038307227;9.998186;0.22984336
13:05:49:181;0.038307227;9.998186;0.22984336
13:05:49:181;0.038307227;9.998186;0.22984336
13:05:49:181;0.038307227;9.998186;0.22984336
13:05:49:181;0.038307227;9.998186;0.22984336
13:05:49:181;0.038307227;9.998186;0.22984336
13:05:49:181;0.038307227;9.998186;0.22984336
13:05:49:181;0.038307227;9.998186;0.22984336
13:05:49:181;0.038307227;9.998186;0.22984336
13:05:49:181;0.038307227;9.998186;0.22984336
13:05:49:181;0.038307227;9.998186;0.22984336
13:05:49:181;0.038307227;9.998186;0.22984336
13:05:49:181;0.038307227;9.998186;0.22984336
13:05:49:298;-1.6089035;10.0748005;0.05746084
13:05:49:298;-1.6089035;10.0748005;0.05746084
13:05:49:298;-1.6089035;10.0748005;0.05746084
13:05:49:298;-1.6089035;10.0748005;0.05746084
13:05:49:298;-1.6089035;10.0748005;0.05746084
13:05:49:298;-1.6089035;10.0748005;0.05746084
13:05:49:298;-1.6089035;10.0748005;0.05746084
13:05:49:298;-1.6089035;10.0748005;0.05746084
13:05:49:298;-1.6089035;10.0748005;0.05746084
13:05:49:298;-1.6089035;10.0748005;0.05746084
13:05:49:298;-1.6089035;10.0748005;0.05746084
13:05:49:298;-1.6089035;10.0748005;0.05746084
13:05:49:298;-1.6089035;10.0748005;0.05746084
13:05:49:406;0.45968673;10.553641;-0.19153613
13:05:49:406;0.45968673;10.553641;-0.19153613
13:05:49:406;0.45968673;10.553641;-0.19153613
13:05:49:406;0.45968673;10.553641;-0.19153613
13:05:49:406;0.45968673;10.553641;-0.19153613
13:05:49:406;0.45968673;10.553641;-0.19153613
13:05:49:406;0.45968673;10.553641;-0.19153613
13:05:49:406;0.45968673;10.553641;-0.19153613
13:05:49:406;0.45968673;10.553641;-0.19153613
13:05:49:406;0.45968673;10.553641;-0.19153613
13:05:49:406;0.45968673;10.553641;-0.19153613
13:05:49:406;0.45968673;10.553641;-0.19153613
13:05:49:406;0.45968673;10.553641;-0.19153613
13:05:49:406;0.45968673;10.553641;-0.19153613
13:05:49:406;0.45968673;10.553641;-0.19153613
13:05:49:516;-0.78529817;10.208876;-0.2681506
13:05:49:516;-0.78529817;10.208876;-0.2681506
13:05:49:516;-0.78529817;10.208876;-0.2681506
13:05:49:516;-0.78529817;10.208876;-0.2681506
13:05:49:516;-0.78529817;10.208876;-0.2681506
13:05:49:516;-0.78529817;10.208876;-0.2681506
13:05:49:516;-0.78529817;10.208876;-0.2681506
13:05:49:516;-0.78529817;10.208876;-0.2681506
13:05:49:516;-0.78529817;10.208876;-0.2681506
13:05:49:516;-0.78529817;10.208876;-0.2681506
13:05:49:516;-0.78529817;10.208876;-0.2681506
13:05:49:516;-0.78529817;10.208876;-0.2681506
13:05:49:617;-0.7278373;9.576807;0.7278373
13:05:49:617;-0.7278373;9.576807;0.7278373
13:05:49:617;-0.7278373;9.576807;0.7278373
13:05:49:617;-0.7278373;9.576807;0.7278373
13:05:49:617;-0.7278373;9.576807;0.7278373
13:05:49:617;-0.7278373;9.576807;0.7278373
13:05:49:617;-0.7278373;9.576807;0.7278373
13:05:49:617;-0.7278373;9.576807;0.7278373
13:05:49:617;-0.7278373;9.576807;0.7278373
13:05:49:617;-0.7278373;9.576807;0.7278373
13:05:49:617;-0.7278373;9.576807;0.7278373
13:05:49:617;-0.7278373;9.576807;0.7278373
13:05:49:617;-0.7278373;9.576807;0.7278373
13:05:49:617;-0.7278373;9.576807;0.7278373
13:05:49:617;-0.7278373;9.576807;0.7278373
13:05:49:617;-0.7278373;9.576807;0.7278373
13:05:49:617;-0.7278373;9.576807;0.7278373
13:05:49:617;-0.7278373;9.576807;0.7278373
13:05:49:757;-0.5554548;11.032481;-0.82360536
13:05:49:757;-0.5554548;11.032481;-0.82360536
13:05:49:757;-0.5554548;11.032481;-0.82360536
13:05:49:757;-0.5554548;11.032481;-0.82360536
13:05:49:757;-0.5554548;11.032481;-0.82360536
13:05:49:757;-0.5554548;11.032481;-0.82360536
13:05:49:757;-0.5554548;11.032481;-0.82360536
13:05:49:757;-0.5554548;11.032481;-0.82360536
13:05:49:757;-0.5554548;11.032481;-0.82360536
13:05:49:757;-0.5554548;11.032481;-0.82360536
13:05:49:757;-0.5554548;11.032481;-0.82360536
13:05:49:757;-0.5554548;11.032481;-0.82360536
13:05:49:757;-0.5554548;11.032481;-0.82360536
13:05:49:757;-0.5554548;11.032481;-0.82360536
13:05:49:757;-0.5554548;11.032481;-0.82360536
13:05:49:757;-0.5554548;11.032481;-0.82360536
13:05:49:876;-1.4173675;9.385271;0.8619126
13:05:49:876;-1.4173675;9.385271;0.8619126
13:05:49:876;-1.4173675;9.385271;0.8619126
13:05:49:876;-1.4173675;9.385271;0.8619126
13:05:49:876;-1.4173675;9.385271;0.8619126
13:05:49:876;-1.4173675;9.385271;0.8619126
13:05:49:876;-1.4173675;9.385271;0.8619126
13:05:49:876;-1.4173675;9.385271;0.8619126
13:05:49:876;-1.4173675;9.385271;0.8619126
13:05:49:876;-1.4173675;9.385271;0.8619126
13:05:49:876;-1.4173675;9.385271;0.8619126
13:05:49:876;-1.4173675;9.385271;0.8619126
13:05:49:876;-1.4173675;9.385271;0.8619126
13:05:49:876;-1.4173675;9.385271;0.8619126
13:05:49:876;-1.4173675;9.385271;0.8619126
13:05:49:876;-1.4173675;9.385271;0.8619126
13:05:49:876;-1.4173675;9.385271;0.8619126
13:05:49:876;-1.4173675;9.385271;0.8619126
13:05:49:876;-1.4173675;9.385271;0.8619126
13:05:49:876;-1.4173675;9.385271;0.8619126
13:05:50:037;-0.21068975;9.864111;0.51714754
13:05:50:037;-0.21068975;9.864111;0.51714754
13:05:50:037;-0.21068975;9.864111;0.51714754
13:05:50:037;-0.21068975;9.864111;0.51714754
13:05:50:037;-0.21068975;9.864111;0.51714754
13:05:50:037;-0.21068975;9.864111;0.51714754
13:05:50:037;-0.21068975;9.864111;0.51714754
13:05:50:037;-0.21068975;9.864111;0.51714754
13:05:50:037;-0.21068975;9.864111;0.51714754
13:05:50:037;-0.21068975;9.864111;0.51714754
13:05:50:037;-0.21068975;9.864111;0.51714754
13:05:50:037;-0.21068975;9.864111;0.51714754
13:05:50:037;-0.21068975;9.864111;0.51714754
13:05:50:138;-0.1340753;9.998186;0.51714754
13:05:50:138;-0.1340753;9.998186;0.51714754
13:05:50:138;-0.1340753;9.998186;0.51714754
13:05:50:138;-0.1340753;9.998186;0.51714754
13:05:50:138;-0.1340753;9.998186;0.51714754
13:05:50:138;-0.1340753;9.998186;0.51714754
13:05:50:138;-0.1340753;9.998186;0.51714754
13:05:50:138;-0.1340753;9.998186;0.51714754
13:05:50:138;-0.1340753;9.998186;0.51714754
13:05:50:138;-0.1340753;9.998186;0.51714754
13:05:50:138;-0.1340753;9.998186;0.51714754
13:05:50:138;-0.1340753;9.998186;0.51714754
13:05:50:138;-0.1340753;9.998186;0.51714754
13:05:50:138;-0.1340753;9.998186;0.51714754
13:05:50:138;-0.1340753;9.998186;0.51714754
13:05:50:138;-0.1340753;9.998186;0.51714754
13:05:50:258;-0.842759;10.726024;-0.82360536
13:05:50:258;-0.842759;10.726024;-0.82360536
13:05:50:258;-0.842759;10.726024;-0.82360536
13:05:50:258;-0.842759;10.726024;-0.82360536
13:05:50:258;-0.842759;10.726024;-0.82360536
13:05:50:258;-0.842759;10.726024;-0.82360536
13:05:50:258;-0.842759;10.726024;-0.82360536
13:05:50:258;-0.842759;10.726024;-0.82360536
13:05:50:258;-0.842759;10.726024;-0.82360536
13:05:50:258;-0.842759;10.726024;-0.82360536
13:05:50:258;-0.842759;10.726024;-0.82360536
13:05:50:258;-0.842759;10.726024;-0.82360536
13:05:50:258;-0.842759;10.726024;-0.82360536
13:05:50:364;-0.05746084;10.515334;-0.842759
13:05:50:364;-0.05746084;10.515334;-0.842759
13:05:50:364;-0.05746084;10.515334;-0.842759
13:05:50:364;-0.05746084;10.515334;-0.842759
13:05:50:364;-0.05746084;10.515334;-0.842759
13:05:50:364;-0.05746084;10.515334;-0.842759
13:05:50:364;-0.05746084;10.515334;-0.842759
13:05:50:364;-0.05746084;10.515334;-0.842759
13:05:50:364;-0.05746084;10.515334;-0.842759
13:05:50:364;-0.05746084;10.515334;-0.842759
13:05:50:364;-0.05746084;10.515334;-0.842759
13:05:50:364;-0.05746084;10.515334;-0.842759
13:05:50:364;-0.05746084;10.515334;-0.842759
13:05:50:364;-0.05746084;10.515334;-0.842759
13:05:50:364;-0.05746084;10.515334;-0.842759
13:05:50:484;-1.2449849;9.787497;0.78529817
13:05:50:484;-1.2449849;9.787497;0.78529817
13:05:50:484;-1.2449849;9.787497;0.78529817
13:05:50:484;-1.2449849;9.787497;0.78529817
13:05:50:484;-1.2449849;9.787497;0.78529817
13:05:50:484;-1.2449849;9.787497;0.78529817
13:05:50:484;-1.2449849;9.787497;0.78529817
13:05:50:484;-1.2449849;9.787497;0.78529817
13:05:50:484;-1.2449849;9.787497;0.78529817
13:05:50:484;-1.2449849;9.787497;0.78529817
13:05:50:484;-1.2449849;9.787497;0.78529817
13:05:50:484;-1.2449849;9.787497;0.78529817
13:05:50:484;-1.2449849;9.787497;0.78529817
13:05:50:484;-1.2449849;9.787497;0.78529817
13:05:50:484;-1.2449849;9.787497;0.78529817
13:05:50:484;-1.2449849;9.787497;0.78529817
13:05:50:602;-0.32561144;9.844957;0.45968673
13:05:50:602;-0.32561144;9.844957;0.45968673
13:05:50:602;-0.32561144;9.844957;0.45968673
13:05:50:602;-0.32561144;9.844957;0.45968673
13:05:50:602;-0.32561144;9.844957;0.45968673
13:05:50:602;-0.32561144;9.844957;0.45968673
13:05:50:602;-0.32561144;9.844957;0.45968673
13:05:50:602;-0.32561144;9.844957;0.45968673
13:05:50:602;-0.32561144;9.844957;0.45968673
13:05:50:602;-0.32561144;9.844957;0.45968673
13:05:50:602;-0.32561144;9.844957;0.45968673
13:05:50:602;-0.32561144;9.844957;0.45968673
13:05:50:602;-0.32561144;9.844957;0.45968673
13:05:50:602;-0.32561144;9.844957;0.45968673
13:05:50:602;-0.32561144;9.844957;0.45968673
13:05:50:719;-0.47884035;11.013328;-0.7086837
13:05:50:719;-0.47884035;11.013328;-0.7086837
13:05:50:719;-0.47884035;11.013328;-0.7086837
13:05:50:719;-0.47884035;11.013328;-0.7086837
13:05:50:719;-0.47884035;11.013328;-0.7086837
13:05:50:719;-0.47884035;11.013328;-0.7086837
13:05:50:719;-0.47884035;11.013328;-0.7086837
13:05:50:719;-0.47884035;11.013328;-0.7086837
13:05:50:719;-0.47884035;11.013328;-0.7086837
13:05:50:719;-0.47884035;11.013328;-0.7086837
13:05:50:719;-0.47884035;11.013328;-0.7086837
13:05:50:719;-0.47884035;11.013328;-0.7086837
13:05:50:719;-0.47884035;11.013328;-0.7086837
13:05:50:719;-0.47884035;11.013328;-0.7086837
13:05:50:719;-0.47884035;11.013328;-0.7086837
13:05:50:836;-0.90021986;10.362105;-0.78529817
13:05:50:836;-0.90021986;10.362105;-0.78529817
13:05:50:836;-0.90021986;10.362105;-0.78529817
13:05:50:836;-0.90021986;10.362105;-0.78529817
13:05:50:836;-0.90021986;10.362105;-0.78529817
13:05:50:836;-0.90021986;10.362105;-0.78529817
13:05:50:836;-0.90021986;10.362105;-0.78529817
13:05:50:836;-0.90021986;10.362105;-0.78529817
13:05:50:836;-0.90021986;10.362105;-0.78529817
13:05:50:836;-0.90021986;10.362105;-0.78529817
13:05:50:836;-0.90021986;10.362105;-0.78529817
13:05:50:836;-0.90021986;10.362105;-0.78529817
13:05:50:836;-0.90021986;10.362105;-0.78529817
13:05:50:836;-0.90021986;10.362105;-0.78529817
13:05:50:836;-0.90021986;10.362105;-0.78529817
13:05:50:955;-0.61291564;10.266336;-0.019153614
13:05:50:955;-0.61291564;10.266336;-0.019153614
13:05:50:955;-0.61291564;10.266336;-0.019153614
13:05:50:955;-0.61291564;10.266336;-0.019153614
13:05:50:955;-0.61291564;10.266336;-0.019153614
13:05:50:955;-0.61291564;10.266336;-0.019153614
13:05:50:955;-0.61291564;10.266336;-0.019153614
13:05:50:955;-0.61291564;10.266336;-0.019153614
13:05:50:955;-0.61291564;10.266336;-0.019153614
13:05:50:955;-0.61291564;10.266336;-0.019153614
13:05:50:955;-0.61291564;10.266336;-0.019153614
13:05:50:955;-0.61291564;10.266336;-0.019153614
13:05:50:955;-0.61291564;10.266336;-0.019153614
13:05:51:058;-0.61291564;9.346964;-0.038307227
13:05:51:058;-0.61291564;9.346964;-0.038307227
13:05:51:058;-0.61291564;9.346964;-0.038307227
13:05:51:058;-0.61291564;9.346964;-0.038307227
13:05:51:058;-0.61291564;9.346964;-0.038307227
13:05:51:058;-0.61291564;9.346964;-0.038307227
13:05:51:058;-0.61291564;9.346964;-0.038307227
13:05:51:058;-0.61291564;9.346964;-0.038307227
13:05:51:058;-0.61291564;9.346964;-0.038307227
13:05:51:058;-0.61291564;9.346964;-0.038307227
13:05:51:058;-0.61291564;9.346964;-0.038307227
13:05:51:058;-0.61291564;9.346964;-0.038307227
13:05:51:058;-0.61291564;9.346964;-0.038307227
13:05:51:160;-1.2258313;9.825804;-0.019153614
13:05:51:160;-1.2258313;9.825804;-0.019153614
13:05:51:160;-1.2258313;9.825804;-0.019153614
13:05:51:160;-1.2258313;9.825804;-0.019153614
13:05:51:160;-1.2258313;9.825804;-0.019153614
13:05:51:160;-1.2258313;9.825804;-0.019153614
13:05:51:160;-1.2258313;9.825804;-0.019153614
13:05:51:160;-1.2258313;9.825804;-0.019153614
13:05:51:160;-1.2258313;9.825804;-0.019153614
13:05:51:160;-1.2258313;9.825804;-0.019153614
13:05:51:160;-1.2258313;9.825804;-0.019153614
13:05:51:160;-1.2258313;9.825804;-0.019153614
13:05:51:160;-1.2258313;9.825804;-0.019153614
13:05:51:160;-1.2258313;9.825804;-0.019153614
13:05:51:160;-1.2258313;9.825804;-0.019153614
13:05:51:160;-1.2258313;9.825804;-0.019153614
13:05:51:285;-0.4405331;11.243171;0.095768064
13:05:51:285;-0.4405331;11.243171;0.095768064
13:05:51:285;-0.4405331;11.243171;0.095768064
13:05:51:285;-0.4405331;11.243171;0.095768064
13:05:51:285;-0.4405331;11.243171;0.095768064
13:05:51:285;-0.4405331;11.243171;0.095768064
13:05:51:285;-0.4405331;11.243171;0.095768064
13:05:51:285;-0.4405331;11.243171;0.095768064
13:05:51:285;-0.4405331;11.243171;0.095768064
13:05:51:285;-0.4405331;11.243171;0.095768064
13:05:51:285;-0.4405331;11.243171;0.095768064
13:05:51:285;-0.4405331;11.243171;0.095768064
13:05:51:285;-0.4405331;11.243171;0.095768064
13:05:51:285;-0.4405331;11.243171;0.095768064
13:05:51:285;-0.4405331;11.243171;0.095768064
13:05:51:285;-0.4405331;11.243171;0.095768064
13:05:51:407;0.36391866;10.01734;0.47884035
13:05:51:407;0.36391866;10.01734;0.47884035
13:05:51:407;0.36391866;10.01734;0.47884035
13:05:51:407;0.36391866;10.01734;0.47884035
13:05:51:407;0.36391866;10.01734;0.47884035
13:05:51:407;0.36391866;10.01734;0.47884035
13:05:51:407;0.36391866;10.01734;0.47884035
13:05:51:407;0.36391866;10.01734;0.47884035
13:05:51:407;0.36391866;10.01734;0.47884035
13:05:51:407;0.36391866;10.01734;0.47884035
13:05:51:407;0.36391866;10.01734;0.47884035
13:05:51:407;0.36391866;10.01734;0.47884035
13:05:51:407;0.36391866;10.01734;0.47884035
13:05:51:510;-1.1300632;9.921572;-0.49799395
13:05:51:510;-1.1300632;9.921572;-0.49799395
13:05:51:510;-1.1300632;9.921572;-0.49799395
13:05:51:510;-1.1300632;9.921572;-0.49799395
13:05:51:510;-1.1300632;9.921572;-0.49799395
13:05:51:510;-1.1300632;9.921572;-0.49799395
13:05:51:510;-1.1300632;9.921572;-0.49799395
13:05:51:510;-1.1300632;9.921572;-0.49799395
13:05:51:510;-1.1300632;9.921572;-0.49799395
13:05:51:510;-1.1300632;9.921572;-0.49799395
13:05:51:510;-1.1300632;9.921572;-0.49799395
13:05:51:510;-1.1300632;9.921572;-0.49799395
13:05:51:510;-1.1300632;9.921572;-0.49799395
13:05:51:510;-1.1300632;9.921572;-0.49799395
13:05:51:510;-1.1300632;9.921572;-0.49799395
13:05:51:627;-0.61291564;9.519346;-0.095768064
13:05:51:627;-0.61291564;9.519346;-0.095768064
13:05:51:627;-0.61291564;9.519346;-0.095768064
13:05:51:627;-0.61291564;9.519346;-0.095768064
13:05:51:627;-0.61291564;9.519346;-0.095768064
13:05:51:627;-0.61291564;9.519346;-0.095768064
13:05:51:627;-0.61291564;9.519346;-0.095768064
13:05:51:627;-0.61291564;9.519346;-0.095768064
13:05:51:627;-0.61291564;9.519346;-0.095768064
13:05:51:627;-0.61291564;9.519346;-0.095768064
13:05:51:627;-0.61291564;9.519346;-0.095768064
13:05:51:627;-0.61291564;9.519346;-0.095768064
13:05:51:627;-0.61291564;9.519346;-0.095768064
13:05:51:729;0.11492168;10.381259;-0.5746084
13:05:51:729;0.11492168;10.381259;-0.5746084
13:05:51:729;0.11492168;10.381259;-0.5746084
13:05:51:729;0.11492168;10.381259;-0.5746084
13:05:51:729;0.11492168;10.381259;-0.5746084
13:05:51:729;0.11492168;10.381259;-0.5746084
13:05:51:729;0.11492168;10.381259;-0.5746084
13:05:51:729;0.11492168;10.381259;-0.5746084
13:05:51:729;0.11492168;10.381259;-0.5746084
13:05:51:729;0.11492168;10.381259;-0.5746084
13:05:51:729;0.11492168;10.381259;-0.5746084
13:05:51:729;0.11492168;10.381259;-0.5746084
13:05:51:729;0.11492168;10.381259;-0.5746084
13:05:51:729;0.11492168;10.381259;-0.5746084
13:05:51:729;0.11492168;10.381259;-0.5746084
13:05:51:848;-0.91937345;10.093954;0.36391866
13:05:51:848;-0.91937345;10.093954;0.36391866
13:05:51:848;-0.91937345;10.093954;0.36391866
13:05:51:848;-0.91937345;10.093954;0.36391866
13:05:51:848;-0.91937345;10.093954;0.36391866
13:05:51:848;-0.91937345;10.093954;0.36391866
13:05:51:848;-0.91937345;10.093954;0.36391866
13:05:51:848;-0.91937345;10.093954;0.36391866
13:05:51:848;-0.91937345;10.093954;0.36391866
13:05:51:848;-0.91937345;10.093954;0.36391866
13:05:51:848;-0.91937345;10.093954;0.36391866
13:05:51:848;-0.91937345;10.093954;0.36391866
13:05:51:848;-0.91937345;10.093954;0.36391866
13:05:51:848;-0.91937345;10.093954;0.36391866
13:05:51:848;-0.91937345;10.093954;0.36391866
13:05:51:967;-0.2873042;10.01734;-0.05746084
13:05:51:967;-0.2873042;10.01734;-0.05746084
13:05:51:967;-0.2873042;10.01734;-0.05746084
13:05:51:967;-0.2873042;10.01734;-0.05746084
13:05:51:967;-0.2873042;10.01734;-0.05746084
13:05:51:967;-0.2873042;10.01734;-0.05746084
13:05:51:967;-0.2873042;10.01734;-0.05746084
13:05:51:967;-0.2873042;10.01734;-0.05746084
13:05:51:967;-0.2873042;10.01734;-0.05746084
13:05:51:967;-0.2873042;10.01734;-0.05746084
13:05:51:967;-0.2873042;10.01734;-0.05746084
13:05:51:967;-0.2873042;10.01734;-0.05746084
13:05:51:967;-0.2873042;10.01734;-0.05746084
13:05:51:967;-0.2873042;10.01734;-0.05746084
13:05:51:967;-0.2873042;10.01734;-0.05746084
13:05:51:967;-0.2873042;10.01734;-0.05746084
13:05:52:091;0.19153613;9.921572;-0.34476504
13:05:52:091;0.19153613;9.921572;-0.34476504
13:05:52:091;0.19153613;9.921572;-0.34476504
13:05:52:091;0.19153613;9.921572;-0.34476504
13:05:52:091;0.19153613;9.921572;-0.34476504
13:05:52:091;0.19153613;9.921572;-0.34476504
13:05:52:091;0.19153613;9.921572;-0.34476504
13:05:52:091;0.19153613;9.921572;-0.34476504
13:05:52:091;0.19153613;9.921572;-0.34476504
13:05:52:091;0.19153613;9.921572;-0.34476504
13:05:52:091;0.19153613;9.921572;-0.34476504
13:05:52:091;0.19153613;9.921572;-0.34476504
13:05:52:091;0.19153613;9.921572;-0.34476504
13:05:52:091;0.19153613;9.921572;-0.34476504
13:05:52:091;0.19153613;9.921572;-0.34476504
13:05:52:206;-0.49799395;10.342952;-0.19153613
13:05:52:206;-0.49799395;10.342952;-0.19153613
13:05:52:206;-0.49799395;10.342952;-0.19153613
13:05:52:206;-0.49799395;10.342952;-0.19153613
13:05:52:206;-0.49799395;10.342952;-0.19153613
13:05:52:206;-0.49799395;10.342952;-0.19153613
13:05:52:206;-0.49799395;10.342952;-0.19153613
13:05:52:206;-0.49799395;10.342952;-0.19153613
13:05:52:206;-0.49799395;10.342952;-0.19153613
13:05:52:206;-0.49799395;10.342952;-0.19153613
13:05:52:206;-0.49799395;10.342952;-0.19153613
13:05:52:206;-0.49799395;10.342952;-0.19153613
13:05:52:206;-0.49799395;10.342952;-0.19153613
13:05:52:206;-0.49799395;10.342952;-0.19153613
13:05:52:206;-0.49799395;10.342952;-0.19153613
13:05:52:325;-0.34476504;10.132261;0.1340753
13:05:52:325;-0.34476504;10.132261;0.1340753
13:05:52:325;-0.34476504;10.132261;0.1340753
13:05:52:325;-0.34476504;10.132261;0.1340753
13:05:52:325;-0.34476504;10.132261;0.1340753
13:05:52:325;-0.34476504;10.132261;0.1340753
13:05:52:325;-0.34476504;10.132261;0.1340753
13:05:52:325;-0.34476504;10.132261;0.1340753
13:05:52:325;-0.34476504;10.132261;0.1340753
13:05:52:325;-0.34476504;10.132261;0.1340753
13:05:52:325;-0.34476504;10.132261;0.1340753
13:05:52:325;-0.34476504;10.132261;0.1340753
13:05:52:325;-0.34476504;10.132261;0.1340753
13:05:52:428;-1.0151415;10.266336;-0.6703765
13:05:52:428;-1.0151415;10.266336;-0.6703765
13:05:52:428;-1.0151415;10.266336;-0.6703765
13:05:52:428;-1.0151415;10.266336;-0.6703765
13:05:52:428;-1.0151415;10.266336;-0.6703765
13:05:52:428;-1.0151415;10.266336;-0.6703765
