Time_Accel;AccelX;AccelY;AccelZ
11:01:33:936;1.1875241;10.323798;-0.5554548
11:01:33:936;1.1875241;10.323798;-0.5554548
11:01:33:936;1.1875241;10.323798;-0.5554548
11:01:33:936;1.1875241;10.323798;-0.5554548
11:01:34:036;0.8619126;9.615114;1.0342951
11:01:34:036;0.8619126;9.615114;1.0342951
11:01:34:036;0.8619126;9.615114;1.0342951
11:01:34:036;0.8619126;9.615114;1.0342951
11:01:34:036;0.8619126;9.615114;1.0342951
11:01:34:036;0.8619126;9.615114;1.0342951
11:01:34:036;0.8619126;9.615114;1.0342951
11:01:34:036;0.8619126;9.615114;1.0342951
11:01:34:036;0.8619126;9.615114;1.0342951
11:01:34:036;0.8619126;9.615114;1.0342951
11:01:34:036;0.8619126;9.615114;1.0342951
11:01:34:036;0.8619126;9.615114;1.0342951
11:01:34:036;0.8619126;9.615114;1.0342951
11:01:34:036;0.8619126;9.615114;1.0342951
11:01:34:036;0.8619126;9.615114;1.0342951
11:01:34:036;0.8619126;9.615114;1.0342951
11:01:34:164;0.8619126;9.385271;1.091756
11:01:34:164;0.8619126;9.385271;1.091756
11:01:34:164;0.8619126;9.385271;1.091756
11:01:34:164;0.8619126;9.385271;1.091756
11:01:34:164;0.8619126;9.385271;1.091756
11:01:34:164;0.8619126;9.385271;1.091756
11:01:34:164;0.8619126;9.385271;1.091756
11:01:34:164;0.8619126;9.385271;1.091756
11:01:34:164;0.8619126;9.385271;1.091756
11:01:34:164;0.8619126;9.385271;1.091756
11:01:34:164;0.8619126;9.385271;1.091756
11:01:34:164;0.8619126;9.385271;1.091756
11:01:34:164;0.8619126;9.385271;1.091756
11:01:34:164;0.8619126;9.385271;1.091756
11:01:34:164;0.8619126;9.385271;1.091756
11:01:34:276;1.0151415;10.208876;-0.2681506
11:01:34:276;1.0151415;10.208876;-0.2681506
11:01:34:276;1.0151415;10.208876;-0.2681506
11:01:34:276;1.0151415;10.208876;-0.2681506
11:01:34:276;1.0151415;10.208876;-0.2681506
11:01:34:276;1.0151415;10.208876;-0.2681506
11:01:34:276;1.0151415;10.208876;-0.2681506
11:01:34:276;1.0151415;10.208876;-0.2681506
11:01:34:276;1.0151415;10.208876;-0.2681506
11:01:34:276;1.0151415;10.208876;-0.2681506
11:01:34:276;1.0151415;10.208876;-0.2681506
11:01:34:276;1.0151415;10.208876;-0.2681506
11:01:34:276;1.0151415;10.208876;-0.2681506
11:01:34:381;0.82360536;10.649409;-0.9959879
11:01:34:381;0.82360536;10.649409;-0.9959879
11:01:34:381;0.82360536;10.649409;-0.9959879
11:01:34:381;0.82360536;10.649409;-0.9959879
11:01:34:381;0.82360536;10.649409;-0.9959879
11:01:34:381;0.82360536;10.649409;-0.9959879
11:01:34:381;0.82360536;10.649409;-0.9959879
11:01:34:381;0.82360536;10.649409;-0.9959879
11:01:34:381;0.82360536;10.649409;-0.9959879
11:01:34:381;0.82360536;10.649409;-0.9959879
11:01:34:381;0.82360536;10.649409;-0.9959879
11:01:34:381;0.82360536;10.649409;-0.9959879
11:01:34:381;0.82360536;10.649409;-0.9959879
11:01:34:381;0.82360536;10.649409;-0.9959879
11:01:34:381;0.82360536;10.649409;-0.9959879
11:01:34:381;0.82360536;10.649409;-0.9959879
11:01:34:381;0.82360536;10.649409;-0.9959879
11:01:34:508;0.9576807;10.821792;-0.8810662
11:01:34:508;0.9576807;10.821792;-0.8810662
11:01:34:508;0.9576807;10.821792;-0.8810662
11:01:34:508;0.9576807;10.821792;-0.8810662
11:01:34:508;0.9576807;10.821792;-0.8810662
11:01:34:508;0.9576807;10.821792;-0.8810662
11:01:34:508;0.9576807;10.821792;-0.8810662
11:01:34:508;0.9576807;10.821792;-0.8810662
11:01:34:508;0.9576807;10.821792;-0.8810662
11:01:34:508;0.9576807;10.821792;-0.8810662
11:01:34:508;0.9576807;10.821792;-0.8810662
11:01:34:508;0.9576807;10.821792;-0.8810662
11:01:34:508;0.9576807;10.821792;-0.8810662
11:01:34:616;0.9576807;10.534488;-1.2449849
11:01:34:616;0.9576807;10.534488;-1.2449849
11:01:34:616;0.9576807;10.534488;-1.2449849
11:01:34:616;0.9576807;10.534488;-1.2449849
11:01:34:616;0.9576807;10.534488;-1.2449849
11:01:34:616;0.9576807;10.534488;-1.2449849
11:01:34:616;0.9576807;10.534488;-1.2449849
11:01:34:616;0.9576807;10.534488;-1.2449849
11:01:34:616;0.9576807;10.534488;-1.2449849
11:01:34:616;0.9576807;10.534488;-1.2449849
11:01:34:616;0.9576807;10.534488;-1.2449849
11:01:34:616;0.9576807;10.534488;-1.2449849
11:01:34:616;0.9576807;10.534488;-1.2449849
11:01:34:616;0.9576807;10.534488;-1.2449849
11:01:34:616;0.9576807;10.534488;-1.2449849
11:01:34:733;0.6512229;9.346964;1.0151415
11:01:34:733;0.6512229;9.346964;1.0151415
11:01:34:733;0.6512229;9.346964;1.0151415
11:01:34:733;0.6512229;9.346964;1.0151415
11:01:34:733;0.6512229;9.346964;1.0151415
11:01:34:733;0.6512229;9.346964;1.0151415
11:01:34:733;0.6512229;9.346964;1.0151415
11:01:34:733;0.6512229;9.346964;1.0151415
11:01:34:733;0.6512229;9.346964;1.0151415
11:01:34:733;0.6512229;9.346964;1.0151415
11:01:34:733;0.6512229;9.346964;1.0151415
11:01:34:733;0.6512229;9.346964;1.0151415
11:01:34:733;0.6512229;9.346964;1.0151415
11:01:34:733;0.6512229;9.346964;1.0151415
11:01:34:839;0.51714754;9.844957;0.6512229
11:01:34:839;0.51714754;9.844957;0.6512229
11:01:34:839;0.51714754;9.844957;0.6512229
11:01:34:839;0.51714754;9.844957;0.6512229
11:01:34:839;0.51714754;9.844957;0.6512229
11:01:34:839;0.51714754;9.844957;0.6512229
11:01:34:839;0.51714754;9.844957;0.6512229
11:01:34:839;0.51714754;9.844957;0.6512229
11:01:34:839;0.51714754;9.844957;0.6512229
11:01:34:839;0.51714754;9.844957;0.6512229
11:01:34:839;0.51714754;9.844957;0.6512229
11:01:34:839;0.51714754;9.844957;0.6512229
11:01:34:839;0.51714754;9.844957;0.6512229
11:01:34:839;0.51714754;9.844957;0.6512229
11:01:34:951;0.90021986;9.998186;0.4213795
11:01:34:951;0.90021986;9.998186;0.4213795
11:01:34:951;0.90021986;9.998186;0.4213795
11:01:34:951;0.90021986;9.998186;0.4213795
11:01:34:951;0.90021986;9.998186;0.4213795
11:01:34:951;0.90021986;9.998186;0.4213795
11:01:34:951;0.90021986;9.998186;0.4213795
11:01:34:951;0.90021986;9.998186;0.4213795
11:01:34:951;0.90021986;9.998186;0.4213795
11:01:34:951;0.90021986;9.998186;0.4213795
11:01:34:951;0.90021986;9.998186;0.4213795
11:01:34:951;0.90021986;9.998186;0.4213795
11:01:34:951;0.90021986;9.998186;0.4213795
11:01:34:951;0.90021986;9.998186;0.4213795
11:01:34:951;0.90021986;9.998186;0.4213795
11:01:35:069;0.8619126;10.649409;-1.091756
11:01:35:069;0.8619126;10.649409;-1.091756
11:01:35:069;0.8619126;10.649409;-1.091756
11:01:35:069;0.8619126;10.649409;-1.091756
11:01:35:069;0.8619126;10.649409;-1.091756
11:01:35:069;0.8619126;10.649409;-1.091756
11:01:35:069;0.8619126;10.649409;-1.091756
11:01:35:069;0.8619126;10.649409;-1.091756
11:01:35:069;0.8619126;10.649409;-1.091756
11:01:35:069;0.8619126;10.649409;-1.091756
11:01:35:069;0.8619126;10.649409;-1.091756
11:01:35:069;0.8619126;10.649409;-1.091756
11:01:35:069;0.8619126;10.649409;-1.091756
11:01:35:069;0.8619126;10.649409;-1.091756
11:01:35:069;0.8619126;10.649409;-1.091756
11:01:35:187;0.4213795;9.385271;1.091756
11:01:35:187;0.4213795;9.385271;1.091756
11:01:35:187;0.4213795;9.385271;1.091756
11:01:35:187;0.4213795;9.385271;1.091756
11:01:35:187;0.4213795;9.385271;1.091756
11:01:35:187;0.4213795;9.385271;1.091756
11:01:35:187;0.4213795;9.385271;1.091756
11:01:35:187;0.4213795;9.385271;1.091756
11:01:35:187;0.4213795;9.385271;1.091756
11:01:35:187;0.4213795;9.385271;1.091756
11:01:35:187;0.4213795;9.385271;1.091756
11:01:35:187;0.4213795;9.385271;1.091756
11:01:35:187;0.4213795;9.385271;1.091756
11:01:35:187;0.4213795;9.385271;1.091756
11:01:35:187;0.4213795;9.385271;1.091756
11:01:35:187;0.4213795;9.385271;1.091756
11:01:35:305;0.47884035;10.323798;-0.40222588
11:01:35:305;0.47884035;10.323798;-0.40222588
11:01:35:305;0.47884035;10.323798;-0.40222588
11:01:35:305;0.47884035;10.323798;-0.40222588
11:01:35:305;0.47884035;10.323798;-0.40222588
11:01:35:305;0.47884035;10.323798;-0.40222588
11:01:35:305;0.47884035;10.323798;-0.40222588
11:01:35:305;0.47884035;10.323798;-0.40222588
11:01:35:305;0.47884035;10.323798;-0.40222588
11:01:35:305;0.47884035;10.323798;-0.40222588
11:01:35:305;0.47884035;10.323798;-0.40222588
11:01:35:305;0.47884035;10.323798;-0.40222588
11:01:35:305;0.47884035;10.323798;-0.40222588
11:01:35:305;0.47884035;10.323798;-0.40222588
11:01:35:421;0.59376204;9.825804;0.5554548
11:01:35:421;0.59376204;9.825804;0.5554548
11:01:35:421;0.59376204;9.825804;0.5554548
11:01:35:421;0.59376204;9.825804;0.5554548
11:01:35:421;0.59376204;9.825804;0.5554548
11:01:35:421;0.59376204;9.825804;0.5554548
11:01:35:421;0.59376204;9.825804;0.5554548
11:01:35:421;0.59376204;9.825804;0.5554548
11:01:35:421;0.59376204;9.825804;0.5554548
11:01:35:421;0.59376204;9.825804;0.5554548
11:01:35:421;0.59376204;9.825804;0.5554548
11:01:35:421;0.59376204;9.825804;0.5554548
11:01:35:421;0.59376204;9.825804;0.5554548
11:01:35:522;0.5554548;9.940725;0.63206923
11:01:35:522;0.5554548;9.940725;0.63206923
11:01:35:522;0.5554548;9.940725;0.63206923
11:01:35:522;0.5554548;9.940725;0.63206923
11:01:35:522;0.5554548;9.940725;0.63206923
11:01:35:522;0.5554548;9.940725;0.63206923
11:01:35:522;0.5554548;9.940725;0.63206923
11:01:35:522;0.5554548;9.940725;0.63206923
11:01:35:522;0.5554548;9.940725;0.63206923
11:01:35:522;0.5554548;9.940725;0.63206923
11:01:35:522;0.5554548;9.940725;0.63206923
11:01:35:522;0.5554548;9.940725;0.63206923
11:01:35:522;0.5554548;9.940725;0.63206923
11:01:35:522;0.5554548;9.940725;0.63206923
11:01:35:522;0.5554548;9.940725;0.63206923
11:01:35:637;0.38307226;10.113108;0.2873042
11:01:35:637;0.38307226;10.113108;0.2873042
11:01:35:637;0.38307226;10.113108;0.2873042
11:01:35:637;0.38307226;10.113108;0.2873042
11:01:35:637;0.38307226;10.113108;0.2873042
11:01:35:637;0.38307226;10.113108;0.2873042
11:01:35:637;0.38307226;10.113108;0.2873042
11:01:35:637;0.38307226;10.113108;0.2873042
11:01:35:637;0.38307226;10.113108;0.2873042
11:01:35:637;0.38307226;10.113108;0.2873042
11:01:35:637;0.38307226;10.113108;0.2873042
11:01:35:637;0.38307226;10.113108;0.2873042
11:01:35:637;0.38307226;10.113108;0.2873042
11:01:35:637;0.38307226;10.113108;0.2873042
11:01:35:637;0.38307226;10.113108;0.2873042
11:01:35:754;0.2873042;9.998186;0.40222588
11:01:35:754;0.2873042;9.998186;0.40222588
11:01:35:754;0.2873042;9.998186;0.40222588
11:01:35:754;0.2873042;9.998186;0.40222588
11:01:35:754;0.2873042;9.998186;0.40222588
11:01:35:754;0.2873042;9.998186;0.40222588
11:01:35:754;0.2873042;9.998186;0.40222588
11:01:35:754;0.2873042;9.998186;0.40222588
11:01:35:754;0.2873042;9.998186;0.40222588
11:01:35:754;0.2873042;9.998186;0.40222588
11:01:35:754;0.2873042;9.998186;0.40222588
11:01:35:754;0.2873042;9.998186;0.40222588
11:01:35:754;0.2873042;9.998186;0.40222588
11:01:35:754;0.2873042;9.998186;0.40222588
11:01:35:754;0.2873042;9.998186;0.40222588
11:01:35:754;0.2873042;9.998186;0.40222588
11:01:35:754;0.2873042;9.998186;0.40222588
11:01:35:754;0.2873042;9.998186;0.40222588
11:01:35:754;0.2873042;9.998186;0.40222588
11:01:35:904;0.30645782;10.151415;0.36391866
11:01:35:904;0.30645782;10.151415;0.36391866
11:01:35:904;0.30645782;10.151415;0.36391866
11:01:35:904;0.30645782;10.151415;0.36391866
11:01:35:904;0.30645782;10.151415;0.36391866
11:01:35:904;0.30645782;10.151415;0.36391866
11:01:35:904;0.30645782;10.151415;0.36391866
11:01:35:904;0.30645782;10.151415;0.36391866
11:01:35:904;0.30645782;10.151415;0.36391866
11:01:35:904;0.30645782;10.151415;0.36391866
11:01:35:904;0.30645782;10.151415;0.36391866
11:01:35:904;0.30645782;10.151415;0.36391866
11:01:35:904;0.30645782;10.151415;0.36391866
11:01:35:904;0.30645782;10.151415;0.36391866
11:01:36:011;0.11492168;10.0748005;0.24899697
11:01:36:011;0.11492168;10.0748005;0.24899697
11:01:36:011;0.11492168;10.0748005;0.24899697
11:01:36:011;0.11492168;10.0748005;0.24899697
11:01:36:011;0.11492168;10.0748005;0.24899697
11:01:36:011;0.11492168;10.0748005;0.24899697
11:01:36:011;0.11492168;10.0748005;0.24899697
11:01:36:011;0.11492168;10.0748005;0.24899697
11:01:36:011;0.11492168;10.0748005;0.24899697
11:01:36:011;0.11492168;10.0748005;0.24899697
11:01:36:011;0.11492168;10.0748005;0.24899697
11:01:36:011;0.11492168;10.0748005;0.24899697
11:01:36:011;0.11492168;10.0748005;0.24899697
11:01:36:011;0.11492168;10.0748005;0.24899697
11:01:36:011;0.11492168;10.0748005;0.24899697
11:01:36:127;0.11492168;10.036493;0.1340753
11:01:36:127;0.11492168;10.036493;0.1340753
11:01:36:127;0.11492168;10.036493;0.1340753
11:01:36:127;0.11492168;10.036493;0.1340753
11:01:36:127;0.11492168;10.036493;0.1340753
11:01:36:127;0.11492168;10.036493;0.1340753
11:01:36:127;0.11492168;10.036493;0.1340753
11:01:36:127;0.11492168;10.036493;0.1340753
11:01:36:127;0.11492168;10.036493;0.1340753
11:01:36:127;0.11492168;10.036493;0.1340753
11:01:36:127;0.11492168;10.036493;0.1340753
11:01:36:127;0.11492168;10.036493;0.1340753
11:01:36:127;0.11492168;10.036493;0.1340753
11:01:36:127;0.11492168;10.036493;0.1340753
11:01:36:127;0.11492168;10.036493;0.1340753
11:01:36:245;1.0534488;9.940725;0.40222588
11:01:36:245;1.0534488;9.940725;0.40222588
11:01:36:245;1.0534488;9.940725;0.40222588
11:01:36:245;1.0534488;9.940725;0.40222588
11:01:36:245;1.0534488;9.940725;0.40222588
11:01:36:245;1.0534488;9.940725;0.40222588
11:01:36:245;1.0534488;9.940725;0.40222588
11:01:36:245;1.0534488;9.940725;0.40222588
11:01:36:245;1.0534488;9.940725;0.40222588
11:01:36:245;1.0534488;9.940725;0.40222588
11:01:36:245;1.0534488;9.940725;0.40222588
11:01:36:245;1.0534488;9.940725;0.40222588
11:01:36:245;1.0534488;9.940725;0.40222588
11:01:36:245;1.0534488;9.940725;0.40222588
11:01:36:245;1.0534488;9.940725;0.40222588
11:01:36:363;0.5554548;10.0748005;0.32561144
11:01:36:363;0.5554548;10.0748005;0.32561144
11:01:36:363;0.5554548;10.0748005;0.32561144
11:01:36:363;0.5554548;10.0748005;0.32561144
11:01:36:363;0.5554548;10.0748005;0.32561144
11:01:36:363;0.5554548;10.0748005;0.32561144
11:01:36:363;0.5554548;10.0748005;0.32561144
11:01:36:363;0.5554548;10.0748005;0.32561144
11:01:36:363;0.5554548;10.0748005;0.32561144
11:01:36:363;0.5554548;10.0748005;0.32561144
11:01:36:363;0.5554548;10.0748005;0.32561144
11:01:36:363;0.5554548;10.0748005;0.32561144
11:01:36:363;0.5554548;10.0748005;0.32561144
11:01:36:363;0.5554548;10.0748005;0.32561144
11:01:36:363;0.5554548;10.0748005;0.32561144
11:01:36:481;0.5363012;10.113108;0.19153613
11:01:36:481;0.5363012;10.113108;0.19153613
11:01:36:481;0.5363012;10.113108;0.19153613
11:01:36:481;0.5363012;10.113108;0.19153613
11:01:36:481;0.5363012;10.113108;0.19153613
11:01:36:481;0.5363012;10.113108;0.19153613
11:01:36:481;0.5363012;10.113108;0.19153613
11:01:36:481;0.5363012;10.113108;0.19153613
11:01:36:481;0.5363012;10.113108;0.19153613
11:01:36:481;0.5363012;10.113108;0.19153613
11:01:36:481;0.5363012;10.113108;0.19153613
11:01:36:481;0.5363012;10.113108;0.19153613
11:01:36:481;0.5363012;10.113108;0.19153613
11:01:36:481;0.5363012;10.113108;0.19153613
11:01:36:481;0.5363012;10.113108;0.19153613
11:01:36:600;0.15322891;9.902418;-0.21068975
11:01:36:600;0.15322891;9.902418;-0.21068975
11:01:36:600;0.15322891;9.902418;-0.21068975
11:01:36:600;0.15322891;9.902418;-0.21068975
11:01:36:600;0.15322891;9.902418;-0.21068975
11:01:36:600;0.15322891;9.902418;-0.21068975
11:01:36:600;0.15322891;9.902418;-0.21068975
11:01:36:600;0.15322891;9.902418;-0.21068975
11:01:36:600;0.15322891;9.902418;-0.21068975
11:01:36:600;0.15322891;9.902418;-0.21068975
11:01:36:600;0.15322891;9.902418;-0.21068975
11:01:36:600;0.15322891;9.902418;-0.21068975
11:01:36:600;0.15322891;9.902418;-0.21068975
11:01:36:600;0.15322891;9.902418;-0.21068975
11:01:36:600;0.15322891;9.902418;-0.21068975
11:01:36:717;0.19153613;10.036493;-0.15322891
11:01:36:717;0.19153613;10.036493;-0.15322891
11:01:36:717;0.19153613;10.036493;-0.15322891
11:01:36:717;0.19153613;10.036493;-0.15322891
11:01:36:717;0.19153613;10.036493;-0.15322891
11:01:36:717;0.19153613;10.036493;-0.15322891
11:01:36:717;0.19153613;10.036493;-0.15322891
11:01:36:717;0.19153613;10.036493;-0.15322891
11:01:36:717;0.19153613;10.036493;-0.15322891
11:01:36:717;0.19153613;10.036493;-0.15322891
11:01:36:717;0.19153613;10.036493;-0.15322891
11:01:36:717;0.19153613;10.036493;-0.15322891
11:01:36:717;0.19153613;10.036493;-0.15322891
11:01:36:717;0.19153613;10.036493;-0.15322891
11:01:36:717;0.19153613;10.036493;-0.15322891
11:01:36:833;0.17238252;10.036493;-0.17238252
11:01:36:833;0.17238252;10.036493;-0.17238252
11:01:36:833;0.17238252;10.036493;-0.17238252
11:01:36:833;0.17238252;10.036493;-0.17238252
11:01:36:833;0.17238252;10.036493;-0.17238252
11:01:36:833;0.17238252;10.036493;-0.17238252
11:01:36:833;0.17238252;10.036493;-0.17238252
11:01:36:833;0.17238252;10.036493;-0.17238252
11:01:36:833;0.17238252;10.036493;-0.17238252
11:01:36:833;0.17238252;10.036493;-0.17238252
11:01:36:833;0.17238252;10.036493;-0.17238252
11:01:36:833;0.17238252;10.036493;-0.17238252
11:01:36:833;0.17238252;10.036493;-0.17238252
11:01:36:934;0.4405331;10.113108;0.019153614
11:01:36:934;0.4405331;10.113108;0.019153614
11:01:36:934;0.4405331;10.113108;0.019153614
11:01:36:934;0.4405331;10.113108;0.019153614
11:01:36:934;0.4405331;10.113108;0.019153614
11:01:36:934;0.4405331;10.113108;0.019153614
11:01:36:934;0.4405331;10.113108;0.019153614
11:01:36:934;0.4405331;10.113108;0.019153614
11:01:36:934;0.4405331;10.113108;0.019153614
11:01:36:934;0.4405331;10.113108;0.019153614
11:01:36:934;0.4405331;10.113108;0.019153614
11:01:36:934;0.4405331;10.113108;0.019153614
11:01:36:934;0.4405331;10.113108;0.019153614
11:01:36:934;0.4405331;10.113108;0.019153614
11:01:36:934;0.4405331;10.113108;0.019153614
11:01:37:051;0.2873042;10.036493;-0.076614454
11:01:37:051;0.2873042;10.036493;-0.076614454
11:01:37:051;0.2873042;10.036493;-0.076614454
11:01:37:051;0.2873042;10.036493;-0.076614454
11:01:37:051;0.2873042;10.036493;-0.076614454
11:01:37:051;0.2873042;10.036493;-0.076614454
11:01:37:051;0.2873042;10.036493;-0.076614454
11:01:37:051;0.2873042;10.036493;-0.076614454
11:01:37:051;0.2873042;10.036493;-0.076614454
11:01:37:051;0.2873042;10.036493;-0.076614454
11:01:37:051;0.2873042;10.036493;-0.076614454
11:01:37:051;0.2873042;10.036493;-0.076614454
11:01:37:051;0.2873042;10.036493;-0.076614454
11:01:37:152;0.6512229;9.998186;0.34476504
11:01:37:152;0.6512229;9.998186;0.34476504
11:01:37:152;0.6512229;9.998186;0.34476504
11:01:37:152;0.6512229;9.998186;0.34476504
11:01:37:152;0.6512229;9.998186;0.34476504
11:01:37:152;0.6512229;9.998186;0.34476504
11:01:37:152;0.6512229;9.998186;0.34476504
11:01:37:152;0.6512229;9.998186;0.34476504
11:01:37:152;0.6512229;9.998186;0.34476504
11:01:37:152;0.6512229;9.998186;0.34476504
11:01:37:152;0.6512229;9.998186;0.34476504
11:01:37:152;0.6512229;9.998186;0.34476504
11:01:37:152;0.6512229;9.998186;0.34476504
11:01:37:152;0.6512229;9.998186;0.34476504
11:01:37:261;0.34476504;9.959879;0.019153614
11:01:37:261;0.34476504;9.959879;0.019153614
11:01:37:261;0.34476504;9.959879;0.019153614
11:01:37:261;0.34476504;9.959879;0.019153614
11:01:37:261;0.34476504;9.959879;0.019153614
11:01:37:261;0.34476504;9.959879;0.019153614
11:01:37:261;0.34476504;9.959879;0.019153614
11:01:37:261;0.34476504;9.959879;0.019153614
11:01:37:261;0.34476504;9.959879;0.019153614
11:01:37:261;0.34476504;9.959879;0.019153614
11:01:37:261;0.34476504;9.959879;0.019153614
11:01:37:261;0.34476504;9.959879;0.019153614
11:01:37:261;0.34476504;9.959879;0.019153614
11:01:37:366;0.21068975;9.959879;-0.038307227
11:01:37:366;0.21068975;9.959879;-0.038307227
11:01:37:366;0.21068975;9.959879;-0.038307227
11:01:37:366;0.21068975;9.959879;-0.038307227
11:01:37:366;0.21068975;9.959879;-0.038307227
11:01:37:366;0.21068975;9.959879;-0.038307227
11:01:37:366;0.21068975;9.959879;-0.038307227
11:01:37:366;0.21068975;9.959879;-0.038307227
11:01:37:366;0.21068975;9.959879;-0.038307227
11:01:37:366;0.21068975;9.959879;-0.038307227
11:01:37:366;0.21068975;9.959879;-0.038307227
11:01:37:366;0.21068975;9.959879;-0.038307227
11:01:37:366;0.21068975;9.959879;-0.038307227
11:01:37:366;0.21068975;9.959879;-0.038307227
11:01:37:366;0.21068975;9.959879;-0.038307227
11:01:37:366;0.21068975;9.959879;-0.038307227
11:01:37:488;0.32561144;10.0748005;0.038307227
11:01:37:488;0.32561144;10.0748005;0.038307227
11:01:37:488;0.32561144;10.0748005;0.038307227
11:01:37:488;0.32561144;10.0748005;0.038307227
11:01:37:488;0.32561144;10.0748005;0.038307227
11:01:37:488;0.32561144;10.0748005;0.038307227
11:01:37:488;0.32561144;10.0748005;0.038307227
11:01:37:488;0.32561144;10.0748005;0.038307227
11:01:37:488;0.32561144;10.0748005;0.038307227
11:01:37:488;0.32561144;10.0748005;0.038307227
11:01:37:488;0.32561144;10.0748005;0.038307227
11:01:37:488;0.32561144;10.0748005;0.038307227
11:01:37:488;0.32561144;10.0748005;0.038307227
11:01:37:590;0.34476504;9.80665;0.38307226
11:01:37:590;0.34476504;9.80665;0.38307226
11:01:37:590;0.34476504;9.80665;0.38307226
11:01:37:590;0.34476504;9.80665;0.38307226
11:01:37:590;0.34476504;9.80665;0.38307226
11:01:37:590;0.34476504;9.80665;0.38307226
11:01:37:590;0.34476504;9.80665;0.38307226
11:01:37:590;0.34476504;9.80665;0.38307226
11:01:37:590;0.34476504;9.80665;0.38307226
11:01:37:590;0.34476504;9.80665;0.38307226
11:01:37:590;0.34476504;9.80665;0.38307226
11:01:37:590;0.34476504;9.80665;0.38307226
11:01:37:590;0.34476504;9.80665;0.38307226
11:01:37:590;0.34476504;9.80665;0.38307226
11:01:37:590;0.34476504;9.80665;0.38307226
11:01:37:590;0.34476504;9.80665;0.38307226
11:01:37:590;0.34476504;9.80665;0.38307226
11:01:37:723;-0.2681506;10.132261;0.2681506
11:01:37:723;-0.2681506;10.132261;0.2681506
11:01:37:723;-0.2681506;10.132261;0.2681506
11:01:37:723;-0.2681506;10.132261;0.2681506
11:01:37:723;-0.2681506;10.132261;0.2681506
11:01:37:723;-0.2681506;10.132261;0.2681506
11:01:37:723;-0.2681506;10.132261;0.2681506
11:01:37:723;-0.2681506;10.132261;0.2681506
11:01:37:723;-0.2681506;10.132261;0.2681506
11:01:37:723;-0.2681506;10.132261;0.2681506
11:01:37:723;-0.2681506;10.132261;0.2681506
11:01:37:723;-0.2681506;10.132261;0.2681506
11:01:37:723;-0.2681506;10.132261;0.2681506
11:01:37:723;-0.2681506;10.132261;0.2681506
11:01:37:723;-0.2681506;10.132261;0.2681506
11:01:37:838;-0.24899697;10.764331;1.934515
11:01:37:838;-0.24899697;10.764331;1.934515
11:01:37:838;-0.24899697;10.764331;1.934515
11:01:37:838;-0.24899697;10.764331;1.934515
11:01:37:838;-0.24899697;10.764331;1.934515
11:01:37:838;-0.24899697;10.764331;1.934515
11:01:37:838;-0.24899697;10.764331;1.934515
11:01:37:838;-0.24899697;10.764331;1.934515
11:01:37:838;-0.24899697;10.764331;1.934515
11:01:37:838;-0.24899697;10.764331;1.934515
11:01:37:838;-0.24899697;10.764331;1.934515
11:01:37:838;-0.24899697;10.764331;1.934515
11:01:37:838;-0.24899697;10.764331;1.934515
11:01:37:838;-0.24899697;10.764331;1.934515
11:01:37:838;-0.24899697;10.764331;1.934515
11:01:37:956;-0.17238252;10.630256;1.3215994
11:01:37:956;-0.17238252;10.630256;1.3215994
11:01:37:956;-0.17238252;10.630256;1.3215994
11:01:37:956;-0.17238252;10.630256;1.3215994
11:01:37:956;-0.17238252;10.630256;1.3215994
11:01:37:956;-0.17238252;10.630256;1.3215994
11:01:37:956;-0.17238252;10.630256;1.3215994
11:01:37:956;-0.17238252;10.630256;1.3215994
11:01:37:956;-0.17238252;10.630256;1.3215994
11:01:37:956;-0.17238252;10.630256;1.3215994
11:01:37:956;-0.17238252;10.630256;1.3215994
11:01:37:956;-0.17238252;10.630256;1.3215994
11:01:37:956;-0.17238252;10.630256;1.3215994
11:01:37:956;-0.17238252;10.630256;1.3215994
11:01:37:956;-0.17238252;10.630256;1.3215994
11:01:38:072;0.8619126;9.040505;0.019153614
11:01:38:072;0.8619126;9.040505;0.019153614
11:01:38:072;0.8619126;9.040505;0.019153614
11:01:38:072;0.8619126;9.040505;0.019153614
11:01:38:072;0.8619126;9.040505;0.019153614
11:01:38:072;0.8619126;9.040505;0.019153614
11:01:38:072;0.8619126;9.040505;0.019153614
11:01:38:072;0.8619126;9.040505;0.019153614
11:01:38:072;0.8619126;9.040505;0.019153614
11:01:38:072;0.8619126;9.040505;0.019153614
11:01:38:072;0.8619126;9.040505;0.019153614
11:01:38:072;0.8619126;9.040505;0.019153614
11:01:38:072;0.8619126;9.040505;0.019153614
11:01:38:072;0.8619126;9.040505;0.019153614
11:01:38:072;0.8619126;9.040505;0.019153614
11:01:38:190;1.4173675;8.925584;-0.34476504
11:01:38:190;1.4173675;8.925584;-0.34476504
11:01:38:190;1.4173675;8.925584;-0.34476504
11:01:38:190;1.4173675;8.925584;-0.34476504
11:01:38:190;1.4173675;8.925584;-0.34476504
11:01:38:190;1.4173675;8.925584;-0.34476504
11:01:38:190;1.4173675;8.925584;-0.34476504
11:01:38:190;1.4173675;8.925584;-0.34476504
11:01:38:190;1.4173675;8.925584;-0.34476504
11:01:38:190;1.4173675;8.925584;-0.34476504
11:01:38:190;1.4173675;8.925584;-0.34476504
11:01:38:190;1.4173675;8.925584;-0.34476504
11:01:38:190;1.4173675;8.925584;-0.34476504
11:01:38:190;1.4173675;8.925584;-0.34476504
11:01:38:190;1.4173675;8.925584;-0.34476504
11:01:38:306;0.5746084;9.902418;0.05746084
11:01:38:306;0.5746084;9.902418;0.05746084
11:01:38:306;0.5746084;9.902418;0.05746084
11:01:38:306;0.5746084;9.902418;0.05746084
11:01:38:306;0.5746084;9.902418;0.05746084
11:01:38:306;0.5746084;9.902418;0.05746084
11:01:38:306;0.5746084;9.902418;0.05746084
11:01:38:306;0.5746084;9.902418;0.05746084
11:01:38:306;0.5746084;9.902418;0.05746084
11:01:38:306;0.5746084;9.902418;0.05746084
11:01:38:306;0.5746084;9.902418;0.05746084
11:01:38:306;0.5746084;9.902418;0.05746084
11:01:38:306;0.5746084;9.902418;0.05746084
11:01:38:409;-0.4405331;10.783484;0.38307226
11:01:38:409;-0.4405331;10.783484;0.38307226
11:01:38:409;-0.4405331;10.783484;0.38307226
11:01:38:409;-0.4405331;10.783484;0.38307226
11:01:38:409;-0.4405331;10.783484;0.38307226
11:01:38:409;-0.4405331;10.783484;0.38307226
11:01:38:409;-0.4405331;10.783484;0.38307226
11:01:38:409;-0.4405331;10.783484;0.38307226
11:01:38:409;-0.4405331;10.783484;0.38307226
11:01:38:409;-0.4405331;10.783484;0.38307226
11:01:38:409;-0.4405331;10.783484;0.38307226
11:01:38:409;-0.4405331;10.783484;0.38307226
11:01:38:409;-0.4405331;10.783484;0.38307226
11:01:38:409;-0.4405331;10.783484;0.38307226
11:01:38:409;-0.4405331;10.783484;0.38307226
11:01:38:409;-0.4405331;10.783484;0.38307226
11:01:38:409;-0.4405331;10.783484;0.38307226
11:01:38:540;-0.2681506;10.362105;1.1683705
11:01:38:540;-0.2681506;10.362105;1.1683705
11:01:38:540;-0.2681506;10.362105;1.1683705
11:01:38:540;-0.2681506;10.362105;1.1683705
11:01:38:540;-0.2681506;10.362105;1.1683705
11:01:38:540;-0.2681506;10.362105;1.1683705
11:01:38:540;-0.2681506;10.362105;1.1683705
11:01:38:540;-0.2681506;10.362105;1.1683705
11:01:38:540;-0.2681506;10.362105;1.1683705
11:01:38:540;-0.2681506;10.362105;1.1683705
11:01:38:540;-0.2681506;10.362105;1.1683705
11:01:38:540;-0.2681506;10.362105;1.1683705
11:01:38:540;-0.2681506;10.362105;1.1683705
11:01:38:540;-0.2681506;10.362105;1.1683705
11:01:38:540;-0.2681506;10.362105;1.1683705
11:01:38:664;0.47884035;10.093954;-0.2873042
11:01:38:664;0.47884035;10.093954;-0.2873042
11:01:38:664;0.47884035;10.093954;-0.2873042
11:01:38:664;0.47884035;10.093954;-0.2873042
11:01:38:664;0.47884035;10.093954;-0.2873042
11:01:38:664;0.47884035;10.093954;-0.2873042
11:01:38:664;0.47884035;10.093954;-0.2873042
11:01:38:664;0.47884035;10.093954;-0.2873042
11:01:38:664;0.47884035;10.093954;-0.2873042
11:01:38:664;0.47884035;10.093954;-0.2873042
11:01:38:664;0.47884035;10.093954;-0.2873042
11:01:38:664;0.47884035;10.093954;-0.2873042
11:01:38:664;0.47884035;10.093954;-0.2873042
11:01:38:664;0.47884035;10.093954;-0.2873042
11:01:38:664;0.47884035;10.093954;-0.2873042
11:01:38:777;0.61291564;9.864111;-0.21068975
11:01:38:777;0.61291564;9.864111;-0.21068975
11:01:38:777;0.61291564;9.864111;-0.21068975
11:01:38:777;0.61291564;9.864111;-0.21068975
11:01:38:777;0.61291564;9.864111;-0.21068975
11:01:38:777;0.61291564;9.864111;-0.21068975
11:01:38:777;0.61291564;9.864111;-0.21068975
11:01:38:777;0.61291564;9.864111;-0.21068975
11:01:38:777;0.61291564;9.864111;-0.21068975
11:01:38:777;0.61291564;9.864111;-0.21068975
11:01:38:777;0.61291564;9.864111;-0.21068975
11:01:38:777;0.61291564;9.864111;-0.21068975
11:01:38:777;0.61291564;9.864111;-0.21068975
11:01:38:777;0.61291564;9.864111;-0.21068975
11:01:38:777;0.61291564;9.864111;-0.21068975
11:01:38:895;0.30645782;10.170568;0.21068975
11:01:38:895;0.30645782;10.170568;0.21068975
11:01:38:895;0.30645782;10.170568;0.21068975
11:01:38:895;0.30645782;10.170568;0.21068975
11:01:38:895;0.30645782;10.170568;0.21068975
11:01:38:895;0.30645782;10.170568;0.21068975
11:01:38:895;0.30645782;10.170568;0.21068975
11:01:38:895;0.30645782;10.170568;0.21068975
11:01:38:895;0.30645782;10.170568;0.21068975
11:01:38:895;0.30645782;10.170568;0.21068975
11:01:38:895;0.30645782;10.170568;0.21068975
11:01:38:895;0.30645782;10.170568;0.21068975
11:01:38:895;0.30645782;10.170568;0.21068975
11:01:38:895;0.30645782;10.170568;0.21068975
11:01:38:895;0.30645782;10.170568;0.21068975
11:01:39:014;0.019153614;10.170568;0.6895301
11:01:39:014;0.019153614;10.170568;0.6895301
11:01:39:014;0.019153614;10.170568;0.6895301
11:01:39:014;0.019153614;10.170568;0.6895301
11:01:39:014;0.019153614;10.170568;0.6895301
11:01:39:014;0.019153614;10.170568;0.6895301
11:01:39:014;0.019153614;10.170568;0.6895301
11:01:39:014;0.019153614;10.170568;0.6895301
11:01:39:014;0.019153614;10.170568;0.6895301
11:01:39:014;0.019153614;10.170568;0.6895301
11:01:39:014;0.019153614;10.170568;0.6895301
11:01:39:014;0.019153614;10.170568;0.6895301
11:01:39:014;0.019153614;10.170568;0.6895301
11:01:39:014;0.019153614;10.170568;0.6895301
11:01:39:014;0.019153614;10.170568;0.6895301
11:01:39:132;0.095768064;10.151415;0.40222588
11:01:39:132;0.095768064;10.151415;0.40222588
11:01:39:132;0.095768064;10.151415;0.40222588
11:01:39:132;0.095768064;10.151415;0.40222588
11:01:39:132;0.095768064;10.151415;0.40222588
11:01:39:132;0.095768064;10.151415;0.40222588
11:01:39:132;0.095768064;10.151415;0.40222588
11:01:39:132;0.095768064;10.151415;0.40222588
11:01:39:132;0.095768064;10.151415;0.40222588
11:01:39:132;0.095768064;10.151415;0.40222588
11:01:39:132;0.095768064;10.151415;0.40222588
11:01:39:132;0.095768064;10.151415;0.40222588
11:01:39:132;0.095768064;10.151415;0.40222588
11:01:39:132;0.095768064;10.151415;0.40222588
11:01:39:132;0.095768064;10.151415;0.40222588
11:01:39:132;0.095768064;10.151415;0.40222588
11:01:39:251;0.47884035;9.864111;0.095768064
11:01:39:251;0.47884035;9.864111;0.095768064
11:01:39:251;0.47884035;9.864111;0.095768064
11:01:39:251;0.47884035;9.864111;0.095768064
11:01:39:251;0.47884035;9.864111;0.095768064
11:01:39:251;0.47884035;9.864111;0.095768064
11:01:39:251;0.47884035;9.864111;0.095768064
11:01:39:251;0.47884035;9.864111;0.095768064
11:01:39:251;0.47884035;9.864111;0.095768064
11:01:39:251;0.47884035;9.864111;0.095768064
11:01:39:251;0.47884035;9.864111;0.095768064
11:01:39:251;0.47884035;9.864111;0.095768064
11:01:39:251;0.47884035;9.864111;0.095768064
11:01:39:251;0.47884035;9.864111;0.095768064
11:01:39:366;0.24899697;10.266336;0.30645782
11:01:39:366;0.24899697;10.266336;0.30645782
11:01:39:366;0.24899697;10.266336;0.30645782
11:01:39:366;0.24899697;10.266336;0.30645782
11:01:39:366;0.24899697;10.266336;0.30645782
11:01:39:366;0.24899697;10.266336;0.30645782
11:01:39:366;0.24899697;10.266336;0.30645782
11:01:39:366;0.24899697;10.266336;0.30645782
11:01:39:366;0.24899697;10.266336;0.30645782
11:01:39:366;0.24899697;10.266336;0.30645782
11:01:39:366;0.24899697;10.266336;0.30645782
11:01:39:366;0.24899697;10.266336;0.30645782
11:01:39:366;0.24899697;10.266336;0.30645782
11:01:39:366;0.24899697;10.266336;0.30645782
11:01:39:366;0.24899697;10.266336;0.30645782
11:01:39:484;0.095768064;10.0748005;0.019153614
11:01:39:484;0.095768064;10.0748005;0.019153614
11:01:39:484;0.095768064;10.0748005;0.019153614
11:01:39:484;0.095768064;10.0748005;0.019153614
11:01:39:484;0.095768064;10.0748005;0.019153614
11:01:39:484;0.095768064;10.0748005;0.019153614
11:01:39:484;0.095768064;10.0748005;0.019153614
11:01:39:484;0.095768064;10.0748005;0.019153614
11:01:39:484;0.095768064;10.0748005;0.019153614
11:01:39:484;0.095768064;10.0748005;0.019153614
11:01:39:484;0.095768064;10.0748005;0.019153614
11:01:39:484;0.095768064;10.0748005;0.019153614
11:01:39:484;0.095768064;10.0748005;0.019153614
11:01:39:484;0.095768064;10.0748005;0.019153614
11:01:39:484;0.095768064;10.0748005;0.019153614
11:01:39:601;-0.19153613;9.9790325;0.11492168
11:01:39:601;-0.19153613;9.9790325;0.11492168
11:01:39:601;-0.19153613;9.9790325;0.11492168
11:01:39:601;-0.19153613;9.9790325;0.11492168
11:01:39:601;-0.19153613;9.9790325;0.11492168
11:01:39:601;-0.19153613;9.9790325;0.11492168
11:01:39:601;-0.19153613;9.9790325;0.11492168
11:01:39:601;-0.19153613;9.9790325;0.11492168
11:01:39:601;-0.19153613;9.9790325;0.11492168
11:01:39:601;-0.19153613;9.9790325;0.11492168
11:01:39:601;-0.19153613;9.9790325;0.11492168
11:01:39:601;-0.19153613;9.9790325;0.11492168
11:01:39:601;-0.19153613;9.9790325;0.11492168
11:01:39:601;-0.19153613;9.9790325;0.11492168
11:01:39:601;-0.19153613;9.9790325;0.11492168
11:01:39:718;0.1340753;10.342952;0.2873042
11:01:39:718;0.1340753;10.342952;0.2873042
11:01:39:718;0.1340753;10.342952;0.2873042
11:01:39:718;0.1340753;10.342952;0.2873042
11:01:39:718;0.1340753;10.342952;0.2873042
11:01:39:718;0.1340753;10.342952;0.2873042
11:01:39:718;0.1340753;10.342952;0.2873042
11:01:39:718;0.1340753;10.342952;0.2873042
11:01:39:718;0.1340753;10.342952;0.2873042
11:01:39:718;0.1340753;10.342952;0.2873042
11:01:39:718;0.1340753;10.342952;0.2873042
11:01:39:718;0.1340753;10.342952;0.2873042
11:01:39:718;0.1340753;10.342952;0.2873042
11:01:39:718;0.1340753;10.342952;0.2873042
11:01:39:718;0.1340753;10.342952;0.2873042
11:01:39:718;0.1340753;10.342952;0.2873042
11:01:39:837;0.2681506;9.902418;-0.4213795
11:01:39:837;0.2681506;9.902418;-0.4213795
11:01:39:837;0.2681506;9.902418;-0.4213795
11:01:39:837;0.2681506;9.902418;-0.4213795
11:01:39:837;0.2681506;9.902418;-0.4213795
11:01:39:837;0.2681506;9.902418;-0.4213795
11:01:39:837;0.2681506;9.902418;-0.4213795
11:01:39:837;0.2681506;9.902418;-0.4213795
11:01:39:837;0.2681506;9.902418;-0.4213795
11:01:39:837;0.2681506;9.902418;-0.4213795
11:01:39:837;0.2681506;9.902418;-0.4213795
11:01:39:837;0.2681506;9.902418;-0.4213795
11:01:39:837;0.2681506;9.902418;-0.4213795
11:01:39:837;0.2681506;9.902418;-0.4213795
11:01:39:837;0.2681506;9.902418;-0.4213795
11:01:39:957;0.19153613;9.844957;-0.17238252
11:01:39:957;0.19153613;9.844957;-0.17238252
11:01:39:957;0.19153613;9.844957;-0.17238252
11:01:39:957;0.19153613;9.844957;-0.17238252
11:01:39:957;0.19153613;9.844957;-0.17238252
11:01:39:957;0.19153613;9.844957;-0.17238252
11:01:39:957;0.19153613;9.844957;-0.17238252
11:01:39:957;0.19153613;9.844957;-0.17238252
11:01:39:957;0.19153613;9.844957;-0.17238252
11:01:39:957;0.19153613;9.844957;-0.17238252
11:01:39:957;0.19153613;9.844957;-0.17238252
11:01:39:957;0.19153613;9.844957;-0.17238252
11:01:39:957;0.19153613;9.844957;-0.17238252
11:01:39:957;0.19153613;9.844957;-0.17238252
11:01:39:957;0.19153613;9.844957;-0.17238252
11:01:40:072;0.34476504;9.519346;-0.4213795
11:01:40:072;0.34476504;9.519346;-0.4213795
11:01:40:072;0.34476504;9.519346;-0.4213795
11:01:40:072;0.34476504;9.519346;-0.4213795
11:01:40:072;0.34476504;9.519346;-0.4213795
11:01:40:072;0.34476504;9.519346;-0.4213795
11:01:40:072;0.34476504;9.519346;-0.4213795
11:01:40:072;0.34476504;9.519346;-0.4213795
11:01:40:072;0.34476504;9.519346;-0.4213795
11:01:40:072;0.34476504;9.519346;-0.4213795
11:01:40:072;0.34476504;9.519346;-0.4213795
11:01:40:072;0.34476504;9.519346;-0.4213795
11:01:40:072;0.34476504;9.519346;-0.4213795
11:01:40:072;0.34476504;9.519346;-0.4213795
11:01:40:072;0.34476504;9.519346;-0.4213795
11:01:40:191;0.076614454;10.362105;-0.05746084
11:01:40:191;0.076614454;10.362105;-0.05746084
11:01:40:191;0.076614454;10.362105;-0.05746084
11:01:40:191;0.076614454;10.362105;-0.05746084
11:01:40:191;0.076614454;10.362105;-0.05746084
11:01:40:191;0.076614454;10.362105;-0.05746084
11:01:40:191;0.076614454;10.362105;-0.05746084
11:01:40:191;0.076614454;10.362105;-0.05746084
11:01:40:191;0.076614454;10.362105;-0.05746084
11:01:40:191;0.076614454;10.362105;-0.05746084
11:01:40:191;0.076614454;10.362105;-0.05746084
11:01:40:191;0.076614454;10.362105;-0.05746084
11:01:40:191;0.076614454;10.362105;-0.05746084
11:01:40:191;0.076614454;10.362105;-0.05746084
11:01:40:191;0.076614454;10.362105;-0.05746084
11:01:40:307;-0.5554548;10.515334;0.36391866
11:01:40:307;-0.5554548;10.515334;0.36391866
11:01:40:307;-0.5554548;10.515334;0.36391866
11:01:40:307;-0.5554548;10.515334;0.36391866
11:01:40:307;-0.5554548;10.515334;0.36391866
11:01:40:307;-0.5554548;10.515334;0.36391866
11:01:40:307;-0.5554548;10.515334;0.36391866
11:01:40:307;-0.5554548;10.515334;0.36391866
11:01:40:307;-0.5554548;10.515334;0.36391866
11:01:40:307;-0.5554548;10.515334;0.36391866
11:01:40:307;-0.5554548;10.515334;0.36391866
11:01:40:307;-0.5554548;10.515334;0.36391866
11:01:40:307;-0.5554548;10.515334;0.36391866
11:01:40:307;-0.5554548;10.515334;0.36391866
11:01:40:307;-0.5554548;10.515334;0.36391866
11:01:40:424;-0.9959879;10.745177;0.30645782
11:01:40:424;-0.9959879;10.745177;0.30645782
11:01:40:424;-0.9959879;10.745177;0.30645782
11:01:40:424;-0.9959879;10.745177;0.30645782
11:01:40:424;-0.9959879;10.745177;0.30645782
11:01:40:424;-0.9959879;10.745177;0.30645782
11:01:40:424;-0.9959879;10.745177;0.30645782
11:01:40:424;-0.9959879;10.745177;0.30645782
11:01:40:424;-0.9959879;10.745177;0.30645782
11:01:40:424;-0.9959879;10.745177;0.30645782
11:01:40:424;-0.9959879;10.745177;0.30645782
11:01:40:424;-0.9959879;10.745177;0.30645782
11:01:40:424;-0.9959879;10.745177;0.30645782
11:01:40:525;-0.24899697;9.940725;0.21068975
11:01:40:525;-0.24899697;9.940725;0.21068975
11:01:40:525;-0.24899697;9.940725;0.21068975
11:01:40:525;-0.24899697;9.940725;0.21068975
11:01:40:525;-0.24899697;9.940725;0.21068975
11:01:40:525;-0.24899697;9.940725;0.21068975
11:01:40:525;-0.24899697;9.940725;0.21068975
11:01:40:525;-0.24899697;9.940725;0.21068975
11:01:40:525;-0.24899697;9.940725;0.21068975
11:01:40:525;-0.24899697;9.940725;0.21068975
11:01:40:525;-0.24899697;9.940725;0.21068975
11:01:40:525;-0.24899697;9.940725;0.21068975
11:01:40:525;-0.24899697;9.940725;0.21068975
11:01:40:525;-0.24899697;9.940725;0.21068975
11:01:40:639;0.1340753;9.672575;-0.34476504
11:01:40:639;0.1340753;9.672575;-0.34476504
11:01:40:639;0.1340753;9.672575;-0.34476504
11:01:40:639;0.1340753;9.672575;-0.34476504
11:01:40:639;0.1340753;9.672575;-0.34476504
11:01:40:639;0.1340753;9.672575;-0.34476504
11:01:40:639;0.1340753;9.672575;-0.34476504
11:01:40:639;0.1340753;9.672575;-0.34476504
11:01:40:639;0.1340753;9.672575;-0.34476504
11:01:40:639;0.1340753;9.672575;-0.34476504
11:01:40:639;0.1340753;9.672575;-0.34476504
11:01:40:639;0.1340753;9.672575;-0.34476504
11:01:40:639;0.1340753;9.672575;-0.34476504
11:01:40:639;0.1340753;9.672575;-0.34476504
11:01:40:639;0.1340753;9.672575;-0.34476504
11:01:40:756;-0.076614454;10.0748005;-0.82360536
11:01:40:756;-0.076614454;10.0748005;-0.82360536
11:01:40:756;-0.076614454;10.0748005;-0.82360536
11:01:40:756;-0.076614454;10.0748005;-0.82360536
11:01:40:756;-0.076614454;10.0748005;-0.82360536
11:01:40:756;-0.076614454;10.0748005;-0.82360536
11:01:40:756;-0.076614454;10.0748005;-0.82360536
11:01:40:756;-0.076614454;10.0748005;-0.82360536
11:01:40:756;-0.076614454;10.0748005;-0.82360536
11:01:40:756;-0.076614454;10.0748005;-0.82360536
11:01:40:756;-0.076614454;10.0748005;-0.82360536
11:01:40:756;-0.076614454;10.0748005;-0.82360536
11:01:40:756;-0.076614454;10.0748005;-0.82360536
11:01:40:756;-0.076614454;10.0748005;-0.82360536
11:01:40:756;-0.076614454;10.0748005;-0.82360536
11:01:40:875;-0.30645782;10.01734;0.30645782
11:01:40:875;-0.30645782;10.01734;0.30645782
11:01:40:875;-0.30645782;10.01734;0.30645782
11:01:40:875;-0.30645782;10.01734;0.30645782
11:01:40:875;-0.30645782;10.01734;0.30645782
11:01:40:875;-0.30645782;10.01734;0.30645782
11:01:40:875;-0.30645782;10.01734;0.30645782
11:01:40:875;-0.30645782;10.01734;0.30645782
11:01:40:875;-0.30645782;10.01734;0.30645782
11:01:40:875;-0.30645782;10.01734;0.30645782
11:01:40:875;-0.30645782;10.01734;0.30645782
11:01:40:875;-0.30645782;10.01734;0.30645782
11:01:40:875;-0.30645782;10.01734;0.30645782
11:01:40:875;-0.30645782;10.01734;0.30645782
11:01:40:875;-0.30645782;10.01734;0.30645782
11:01:40:990;-0.30645782;10.5919485;0.24899697
11:01:40:990;-0.30645782;10.5919485;0.24899697
11:01:40:990;-0.30645782;10.5919485;0.24899697
11:01:40:990;-0.30645782;10.5919485;0.24899697
11:01:40:990;-0.30645782;10.5919485;0.24899697
11:01:40:990;-0.30645782;10.5919485;0.24899697
11:01:40:990;-0.30645782;10.5919485;0.24899697
11:01:40:990;-0.30645782;10.5919485;0.24899697
11:01:40:990;-0.30645782;10.5919485;0.24899697
11:01:40:990;-0.30645782;10.5919485;0.24899697
11:01:40:990;-0.30645782;10.5919485;0.24899697
11:01:40:990;-0.30645782;10.5919485;0.24899697
11:01:40:990;-0.30645782;10.5919485;0.24899697
11:01:40:990;-0.30645782;10.5919485;0.24899697
11:01:40:990;-0.30645782;10.5919485;0.24899697
11:01:41:109;0.019153614;10.400413;0.1340753
11:01:41:109;0.019153614;10.400413;0.1340753
11:01:41:109;0.019153614;10.400413;0.1340753
11:01:41:109;0.019153614;10.400413;0.1340753
11:01:41:109;0.019153614;10.400413;0.1340753
11:01:41:109;0.019153614;10.400413;0.1340753
11:01:41:109;0.019153614;10.400413;0.1340753
11:01:41:109;0.019153614;10.400413;0.1340753
11:01:41:109;0.019153614;10.400413;0.1340753
11:01:41:109;0.019153614;10.400413;0.1340753
11:01:41:109;0.019153614;10.400413;0.1340753
11:01:41:109;0.019153614;10.400413;0.1340753
11:01:41:109;0.019153614;10.400413;0.1340753
11:01:41:109;0.019153614;10.400413;0.1340753
11:01:41:109;0.019153614;10.400413;0.1340753
11:01:41:225;-0.19153613;9.595961;-0.21068975
11:01:41:225;-0.19153613;9.595961;-0.21068975
11:01:41:225;-0.19153613;9.595961;-0.21068975
11:01:41:225;-0.19153613;9.595961;-0.21068975
11:01:41:225;-0.19153613;9.595961;-0.21068975
11:01:41:225;-0.19153613;9.595961;-0.21068975
11:01:41:225;-0.19153613;9.595961;-0.21068975
11:01:41:225;-0.19153613;9.595961;-0.21068975
11:01:41:225;-0.19153613;9.595961;-0.21068975
11:01:41:225;-0.19153613;9.595961;-0.21068975
11:01:41:225;-0.19153613;9.595961;-0.21068975
11:01:41:225;-0.19153613;9.595961;-0.21068975
11:01:41:225;-0.19153613;9.595961;-0.21068975
11:01:41:225;-0.19153613;9.595961;-0.21068975
11:01:41:225;-0.19153613;9.595961;-0.21068975
11:01:41:343;-0.2681506;9.557653;-0.22984336
11:01:41:343;-0.2681506;9.557653;-0.22984336
11:01:41:343;-0.2681506;9.557653;-0.22984336
11:01:41:343;-0.2681506;9.557653;-0.22984336
11:01:41:343;-0.2681506;9.557653;-0.22984336
11:01:41:343;-0.2681506;9.557653;-0.22984336
11:01:41:343;-0.2681506;9.557653;-0.22984336
11:01:41:343;-0.2681506;9.557653;-0.22984336
11:01:41:343;-0.2681506;9.557653;-0.22984336
11:01:41:343;-0.2681506;9.557653;-0.22984336
11:01:41:343;-0.2681506;9.557653;-0.22984336
11:01:41:343;-0.2681506;9.557653;-0.22984336
11:01:41:343;-0.2681506;9.557653;-0.22984336
11:01:41:343;-0.2681506;9.557653;-0.22984336
11:01:41:343;-0.2681506;9.557653;-0.22984336
11:01:41:343;-0.2681506;9.557653;-0.22984336
11:01:41:463;0.038307227;9.9790325;0.21068975
11:01:41:463;0.038307227;9.9790325;0.21068975
11:01:41:463;0.038307227;9.9790325;0.21068975
11:01:41:463;0.038307227;9.9790325;0.21068975
11:01:41:463;0.038307227;9.9790325;0.21068975
11:01:41:463;0.038307227;9.9790325;0.21068975
11:01:41:463;0.038307227;9.9790325;0.21068975
11:01:41:463;0.038307227;9.9790325;0.21068975
11:01:41:463;0.038307227;9.9790325;0.21068975
11:01:41:463;0.038307227;9.9790325;0.21068975
11:01:41:463;0.038307227;9.9790325;0.21068975
11:01:41:463;0.038307227;9.9790325;0.21068975
11:01:41:463;0.038307227;9.9790325;0.21068975
11:01:41:567;-0.17238252;9.959879;0.038307227
11:01:41:567;-0.17238252;9.959879;0.038307227
11:01:41:567;-0.17238252;9.959879;0.038307227
11:01:41:567;-0.17238252;9.959879;0.038307227
11:01:41:567;-0.17238252;9.959879;0.038307227
11:01:41:567;-0.17238252;9.959879;0.038307227
11:01:41:567;-0.17238252;9.959879;0.038307227
11:01:41:567;-0.17238252;9.959879;0.038307227
11:01:41:567;-0.17238252;9.959879;0.038307227
11:01:41:567;-0.17238252;9.959879;0.038307227
11:01:41:567;-0.17238252;9.959879;0.038307227
11:01:41:567;-0.17238252;9.959879;0.038307227
11:01:41:567;-0.17238252;9.959879;0.038307227
11:01:41:567;-0.17238252;9.959879;0.038307227
11:01:41:675;-0.5363012;10.132261;-0.24899697
11:01:41:675;-0.5363012;10.132261;-0.24899697
11:01:41:675;-0.5363012;10.132261;-0.24899697
11:01:41:675;-0.5363012;10.132261;-0.24899697
11:01:41:675;-0.5363012;10.132261;-0.24899697
11:01:41:675;-0.5363012;10.132261;-0.24899697
11:01:41:675;-0.5363012;10.132261;-0.24899697
11:01:41:675;-0.5363012;10.132261;-0.24899697
11:01:41:675;-0.5363012;10.132261;-0.24899697
11:01:41:675;-0.5363012;10.132261;-0.24899697
11:01:41:675;-0.5363012;10.132261;-0.24899697
11:01:41:675;-0.5363012;10.132261;-0.24899697
11:01:41:675;-0.5363012;10.132261;-0.24899697
11:01:41:675;-0.5363012;10.132261;-0.24899697
11:01:41:675;-0.5363012;10.132261;-0.24899697
11:01:41:793;-0.38307226;9.825804;0.038307227
11:01:41:793;-0.38307226;9.825804;0.038307227
11:01:41:793;-0.38307226;9.825804;0.038307227
11:01:41:793;-0.38307226;9.825804;0.038307227
11:01:41:793;-0.38307226;9.825804;0.038307227
11:01:41:793;-0.38307226;9.825804;0.038307227
11:01:41:793;-0.38307226;9.825804;0.038307227
11:01:41:793;-0.38307226;9.825804;0.038307227
11:01:41:793;-0.38307226;9.825804;0.038307227
11:01:41:793;-0.38307226;9.825804;0.038307227
11:01:41:793;-0.38307226;9.825804;0.038307227
11:01:41:793;-0.38307226;9.825804;0.038307227
11:01:41:793;-0.38307226;9.825804;0.038307227
11:01:41:793;-0.38307226;9.825804;0.038307227
11:01:41:793;-0.38307226;9.825804;0.038307227
11:01:41:910;-0.21068975;10.093954;-0.095768064
11:01:41:910;-0.21068975;10.093954;-0.095768064
11:01:41:910;-0.21068975;10.093954;-0.095768064
11:01:41:910;-0.21068975;10.093954;-0.095768064
11:01:41:910;-0.21068975;10.093954;-0.095768064
11:01:41:910;-0.21068975;10.093954;-0.095768064
11:01:41:910;-0.21068975;10.093954;-0.095768064
11:01:41:910;-0.21068975;10.093954;-0.095768064
11:01:41:910;-0.21068975;10.093954;-0.095768064
11:01:41:910;-0.21068975;10.093954;-0.095768064
11:01:41:910;-0.21068975;10.093954;-0.095768064
11:01:41:910;-0.21068975;10.093954;-0.095768064
11:01:41:910;-0.21068975;10.093954;-0.095768064
11:01:41:910;-0.21068975;10.093954;-0.095768064
11:01:41:910;-0.21068975;10.093954;-0.095768064
11:01:42:031;-0.2681506;9.9790325;0.05746084
11:01:42:031;-0.2681506;9.9790325;0.05746084
11:01:42:031;-0.2681506;9.9790325;0.05746084
11:01:42:031;-0.2681506;9.9790325;0.05746084
11:01:42:031;-0.2681506;9.9790325;0.05746084
11:01:42:031;-0.2681506;9.9790325;0.05746084
11:01:42:031;-0.2681506;9.9790325;0.05746084
11:01:42:031;-0.2681506;9.9790325;0.05746084
11:01:42:031;-0.2681506;9.9790325;0.05746084
11:01:42:031;-0.2681506;9.9790325;0.05746084
11:01:42:031;-0.2681506;9.9790325;0.05746084
11:01:42:031;-0.2681506;9.9790325;0.05746084
11:01:42:031;-0.2681506;9.9790325;0.05746084
11:01:42:031;-0.2681506;9.9790325;0.05746084
11:01:42:031;-0.2681506;9.9790325;0.05746084
11:01:42:144;-0.4405331;9.768343;0.1340753
11:01:42:144;-0.4405331;9.768343;0.1340753
11:01:42:144;-0.4405331;9.768343;0.1340753
11:01:42:144;-0.4405331;9.768343;0.1340753
11:01:42:144;-0.4405331;9.768343;0.1340753
11:01:42:144;-0.4405331;9.768343;0.1340753
11:01:42:144;-0.4405331;9.768343;0.1340753
11:01:42:144;-0.4405331;9.768343;0.1340753
11:01:42:144;-0.4405331;9.768343;0.1340753
11:01:42:144;-0.4405331;9.768343;0.1340753
11:01:42:144;-0.4405331;9.768343;0.1340753
11:01:42:144;-0.4405331;9.768343;0.1340753
11:01:42:144;-0.4405331;9.768343;0.1340753
11:01:42:249;-1.0726024;9.998186;0.15322891
11:01:42:249;-1.0726024;9.998186;0.15322891
11:01:42:249;-1.0726024;9.998186;0.15322891
11:01:42:249;-1.0726024;9.998186;0.15322891
11:01:42:249;-1.0726024;9.998186;0.15322891
11:01:42:249;-1.0726024;9.998186;0.15322891
11:01:42:249;-1.0726024;9.998186;0.15322891
11:01:42:249;-1.0726024;9.998186;0.15322891
11:01:42:249;-1.0726024;9.998186;0.15322891
11:01:42:249;-1.0726024;9.998186;0.15322891
11:01:42:249;-1.0726024;9.998186;0.15322891
11:01:42:249;-1.0726024;9.998186;0.15322891
11:01:42:249;-1.0726024;9.998186;0.15322891
11:01:42:249;-1.0726024;9.998186;0.15322891
11:01:42:249;-1.0726024;9.998186;0.15322891
11:01:42:367;-0.63206923;10.323798;-0.22984336
11:01:42:367;-0.63206923;10.323798;-0.22984336
11:01:42:367;-0.63206923;10.323798;-0.22984336
11:01:42:367;-0.63206923;10.323798;-0.22984336
11:01:42:367;-0.63206923;10.323798;-0.22984336
11:01:42:367;-0.63206923;10.323798;-0.22984336
11:01:42:367;-0.63206923;10.323798;-0.22984336
11:01:42:367;-0.63206923;10.323798;-0.22984336
11:01:42:367;-0.63206923;10.323798;-0.22984336
11:01:42:367;-0.63206923;10.323798;-0.22984336
11:01:42:367;-0.63206923;10.323798;-0.22984336
11:01:42:367;-0.63206923;10.323798;-0.22984336
11:01:42:367;-0.63206923;10.323798;-0.22984336
11:01:42:367;-0.63206923;10.323798;-0.22984336
11:01:42:367;-0.63206923;10.323798;-0.22984336
11:01:42:481;-0.38307226;9.844957;-0.095768064
11:01:42:481;-0.38307226;9.844957;-0.095768064
11:01:42:481;-0.38307226;9.844957;-0.095768064
11:01:42:481;-0.38307226;9.844957;-0.095768064
11:01:42:481;-0.38307226;9.844957;-0.095768064
11:01:42:481;-0.38307226;9.844957;-0.095768064
11:01:42:481;-0.38307226;9.844957;-0.095768064
11:01:42:481;-0.38307226;9.844957;-0.095768064
11:01:42:481;-0.38307226;9.844957;-0.095768064
11:01:42:481;-0.38307226;9.844957;-0.095768064
11:01:42:481;-0.38307226;9.844957;-0.095768064
11:01:42:481;-0.38307226;9.844957;-0.095768064
11:01:42:481;-0.38307226;9.844957;-0.095768064
11:01:42:481;-0.38307226;9.844957;-0.095768064
11:01:42:588;-0.842759;9.959879;-0.78529817
11:01:42:588;-0.842759;9.959879;-0.78529817
11:01:42:588;-0.842759;9.959879;-0.78529817
11:01:42:588;-0.842759;9.959879;-0.78529817
11:01:42:588;-0.842759;9.959879;-0.78529817
11:01:42:588;-0.842759;9.959879;-0.78529817
11:01:42:588;-0.842759;9.959879;-0.78529817
11:01:42:588;-0.842759;9.959879;-0.78529817
11:01:42:588;-0.842759;9.959879;-0.78529817
11:01:42:588;-0.842759;9.959879;-0.78529817
11:01:42:588;-0.842759;9.959879;-0.78529817
11:01:42:588;-0.842759;9.959879;-0.78529817
11:01:42:588;-0.842759;9.959879;-0.78529817
11:01:42:588;-0.842759;9.959879;-0.78529817
11:01:42:698;-1.283292;9.902418;-0.19153613
11:01:42:698;-1.283292;9.902418;-0.19153613
11:01:42:698;-1.283292;9.902418;-0.19153613
11:01:42:698;-1.283292;9.902418;-0.19153613
11:01:42:698;-1.283292;9.902418;-0.19153613
11:01:42:698;-1.283292;9.902418;-0.19153613
11:01:42:698;-1.283292;9.902418;-0.19153613
11:01:42:698;-1.283292;9.902418;-0.19153613
11:01:42:698;-1.283292;9.902418;-0.19153613
11:01:42:698;-1.283292;9.902418;-0.19153613
11:01:42:698;-1.283292;9.902418;-0.19153613
11:01:42:698;-1.283292;9.902418;-0.19153613
11:01:42:698;-1.283292;9.902418;-0.19153613
11:01:42:698;-1.283292;9.902418;-0.19153613
11:01:42:698;-1.283292;9.902418;-0.19153613
11:01:42:815;-1.4173675;10.151415;-0.4213795
11:01:42:815;-1.4173675;10.151415;-0.4213795
11:01:42:815;-1.4173675;10.151415;-0.4213795
11:01:42:815;-1.4173675;10.151415;-0.4213795
11:01:42:815;-1.4173675;10.151415;-0.4213795
11:01:42:815;-1.4173675;10.151415;-0.4213795
11:01:42:815;-1.4173675;10.151415;-0.4213795
11:01:42:815;-1.4173675;10.151415;-0.4213795
11:01:42:815;-1.4173675;10.151415;-0.4213795
11:01:42:815;-1.4173675;10.151415;-0.4213795
11:01:42:815;-1.4173675;10.151415;-0.4213795
11:01:42:815;-1.4173675;10.151415;-0.4213795
11:01:42:815;-1.4173675;10.151415;-0.4213795
11:01:42:815;-1.4173675;10.151415;-0.4213795
11:01:42:815;-1.4173675;10.151415;-0.4213795
11:01:42:934;-1.2449849;10.01734;-0.38307226
11:01:42:934;-1.2449849;10.01734;-0.38307226
11:01:42:934;-1.2449849;10.01734;-0.38307226
11:01:42:934;-1.2449849;10.01734;-0.38307226
11:01:42:934;-1.2449849;10.01734;-0.38307226
11:01:42:934;-1.2449849;10.01734;-0.38307226
11:01:42:934;-1.2449849;10.01734;-0.38307226
11:01:42:934;-1.2449849;10.01734;-0.38307226
11:01:42:934;-1.2449849;10.01734;-0.38307226
11:01:42:934;-1.2449849;10.01734;-0.38307226
11:01:42:934;-1.2449849;10.01734;-0.38307226
11:01:42:934;-1.2449849;10.01734;-0.38307226
11:01:42:934;-1.2449849;10.01734;-0.38307226
11:01:42:934;-1.2449849;10.01734;-0.38307226
11:01:42:934;-1.2449849;10.01734;-0.38307226
11:01:43:052;-1.1300632;10.362105;-0.40222588
11:01:43:052;-1.1300632;10.362105;-0.40222588
11:01:43:052;-1.1300632;10.362105;-0.40222588
11:01:43:052;-1.1300632;10.362105;-0.40222588
11:01:43:052;-1.1300632;10.362105;-0.40222588
11:01:43:052;-1.1300632;10.362105;-0.40222588
11:01:43:052;-1.1300632;10.362105;-0.40222588
11:01:43:052;-1.1300632;10.362105;-0.40222588
11:01:43:052;-1.1300632;10.362105;-0.40222588
11:01:43:052;-1.1300632;10.362105;-0.40222588
11:01:43:052;-1.1300632;10.362105;-0.40222588
11:01:43:052;-1.1300632;10.362105;-0.40222588
11:01:43:052;-1.1300632;10.362105;-0.40222588
11:01:43:052;-1.1300632;10.362105;-0.40222588
11:01:43:052;-1.1300632;10.362105;-0.40222588
11:01:43:167;-1.4748282;10.208876;-0.076614454
11:01:43:167;-1.4748282;10.208876;-0.076614454
11:01:43:167;-1.4748282;10.208876;-0.076614454
11:01:43:167;-1.4748282;10.208876;-0.076614454
11:01:43:167;-1.4748282;10.208876;-0.076614454
11:01:43:167;-1.4748282;10.208876;-0.076614454
11:01:43:167;-1.4748282;10.208876;-0.076614454
11:01:43:167;-1.4748282;10.208876;-0.076614454
11:01:43:167;-1.4748282;10.208876;-0.076614454
11:01:43:167;-1.4748282;10.208876;-0.076614454
11:01:43:167;-1.4748282;10.208876;-0.076614454
11:01:43:167;-1.4748282;10.208876;-0.076614454
11:01:43:167;-1.4748282;10.208876;-0.076614454
11:01:43:167;-1.4748282;10.208876;-0.076614454
11:01:43:167;-1.4748282;10.208876;-0.076614454
11:01:43:286;-1.1492168;10.170568;-0.4213795
11:01:43:286;-1.1492168;10.170568;-0.4213795
11:01:43:286;-1.1492168;10.170568;-0.4213795
11:01:43:286;-1.1492168;10.170568;-0.4213795
11:01:43:286;-1.1492168;10.170568;-0.4213795
11:01:43:286;-1.1492168;10.170568;-0.4213795
11:01:43:286;-1.1492168;10.170568;-0.4213795
11:01:43:286;-1.1492168;10.170568;-0.4213795
11:01:43:286;-1.1492168;10.170568;-0.4213795
11:01:43:286;-1.1492168;10.170568;-0.4213795
11:01:43:286;-1.1492168;10.170568;-0.4213795
11:01:43:286;-1.1492168;10.170568;-0.4213795
11:01:43:286;-1.1492168;10.170568;-0.4213795
11:01:43:286;-1.1492168;10.170568;-0.4213795
11:01:43:286;-1.1492168;10.170568;-0.4213795
11:01:43:286;-1.1492168;10.170568;-0.4213795
11:01:43:286;-1.1492168;10.170568;-0.4213795
11:01:43:286;-1.1492168;10.170568;-0.4213795
11:01:43:286;-1.1492168;10.170568;-0.4213795
11:01:43:286;-1.1492168;10.170568;-0.4213795
11:01:43:286;-1.1492168;10.170568;-0.4213795
11:01:43:286;-1.1492168;10.170568;-0.4213795
11:01:43:286;-1.1492168;10.170568;-0.4213795
11:01:43:286;-1.1492168;10.170568;-0.4213795
11:01:43:474;-1.9919758;10.726024;0.019153614
11:01:43:474;-1.9919758;10.726024;0.019153614
11:01:43:474;-1.9919758;10.726024;0.019153614
11:01:43:474;-1.9919758;10.726024;0.019153614
11:01:43:474;-1.9919758;10.726024;0.019153614
11:01:43:474;-1.9919758;10.726024;0.019153614
11:01:43:474;-1.9919758;10.726024;0.019153614
11:01:43:474;-1.9919758;10.726024;0.019153614
11:01:43:474;-1.9919758;10.726024;0.019153614
11:01:43:474;-1.9919758;10.726024;0.019153614
11:01:43:474;-1.9919758;10.726024;0.019153614
11:01:43:474;-1.9919758;10.726024;0.019153614
11:01:43:474;-1.9919758;10.726024;0.019153614
11:01:43:474;-1.9919758;10.726024;0.019153614
11:01:43:585;-1.1300632;8.925584;-0.51714754
11:01:43:585;-1.1300632;8.925584;-0.51714754
11:01:43:585;-1.1300632;8.925584;-0.51714754
11:01:43:585;-1.1300632;8.925584;-0.51714754
11:01:43:585;-1.1300632;8.925584;-0.51714754
11:01:43:585;-1.1300632;8.925584;-0.51714754
11:01:43:585;-1.1300632;8.925584;-0.51714754
11:01:43:585;-1.1300632;8.925584;-0.51714754
11:01:43:585;-1.1300632;8.925584;-0.51714754
11:01:43:585;-1.1300632;8.925584;-0.51714754
11:01:43:585;-1.1300632;8.925584;-0.51714754
11:01:43:585;-1.1300632;8.925584;-0.51714754
11:01:43:585;-1.1300632;8.925584;-0.51714754
11:01:43:585;-1.1300632;8.925584;-0.51714754
11:01:43:585;-1.1300632;8.925584;-0.51714754
11:01:43:702;-1.2449849;9.825804;-0.51714754
11:01:43:702;-1.2449849;9.825804;-0.51714754
11:01:43:702;-1.2449849;9.825804;-0.51714754
11:01:43:702;-1.2449849;9.825804;-0.51714754
11:01:43:702;-1.2449849;9.825804;-0.51714754
11:01:43:702;-1.2449849;9.825804;-0.51714754
11:01:43:702;-1.2449849;9.825804;-0.51714754
11:01:43:702;-1.2449849;9.825804;-0.51714754
11:01:43:702;-1.2449849;9.825804;-0.51714754
11:01:43:702;-1.2449849;9.825804;-0.51714754
11:01:43:702;-1.2449849;9.825804;-0.51714754
11:01:43:702;-1.2449849;9.825804;-0.51714754
11:01:43:702;-1.2449849;9.825804;-0.51714754
11:01:43:702;-1.2449849;9.825804;-0.51714754
11:01:43:702;-1.2449849;9.825804;-0.51714754
11:01:43:820;-1.3215994;10.43872;-0.038307227
11:01:43:820;-1.3215994;10.43872;-0.038307227
11:01:43:820;-1.3215994;10.43872;-0.038307227
11:01:43:820;-1.3215994;10.43872;-0.038307227
11:01:43:820;-1.3215994;10.43872;-0.038307227
11:01:43:820;-1.3215994;10.43872;-0.038307227
11:01:43:820;-1.3215994;10.43872;-0.038307227
11:01:43:820;-1.3215994;10.43872;-0.038307227
11:01:43:820;-1.3215994;10.43872;-0.038307227
11:01:43:820;-1.3215994;10.43872;-0.038307227
11:01:43:820;-1.3215994;10.43872;-0.038307227
11:01:43:820;-1.3215994;10.43872;-0.038307227
11:01:43:820;-1.3215994;10.43872;-0.038307227
11:01:43:820;-1.3215994;10.43872;-0.038307227
11:01:43:928;-1.0342951;10.630256;-0.5363012
11:01:43:928;-1.0342951;10.630256;-0.5363012
11:01:43:928;-1.0342951;10.630256;-0.5363012
11:01:43:928;-1.0342951;10.630256;-0.5363012
11:01:43:928;-1.0342951;10.630256;-0.5363012
11:01:43:928;-1.0342951;10.630256;-0.5363012
11:01:43:928;-1.0342951;10.630256;-0.5363012
11:01:43:928;-1.0342951;10.630256;-0.5363012
11:01:43:928;-1.0342951;10.630256;-0.5363012
11:01:43:928;-1.0342951;10.630256;-0.5363012
11:01:43:928;-1.0342951;10.630256;-0.5363012
11:01:43:928;-1.0342951;10.630256;-0.5363012
11:01:43:928;-1.0342951;10.630256;-0.5363012
11:01:43:928;-1.0342951;10.630256;-0.5363012
11:01:44:035;-0.9768343;9.80665;-0.4213795
11:01:44:035;-0.9768343;9.80665;-0.4213795
11:01:44:035;-0.9768343;9.80665;-0.4213795
11:01:44:035;-0.9768343;9.80665;-0.4213795
11:01:44:035;-0.9768343;9.80665;-0.4213795
11:01:44:035;-0.9768343;9.80665;-0.4213795
11:01:44:035;-0.9768343;9.80665;-0.4213795
11:01:44:035;-0.9768343;9.80665;-0.4213795
11:01:44:035;-0.9768343;9.80665;-0.4213795
11:01:44:035;-0.9768343;9.80665;-0.4213795
11:01:44:035;-0.9768343;9.80665;-0.4213795
11:01:44:035;-0.9768343;9.80665;-0.4213795
11:01:44:035;-0.9768343;9.80665;-0.4213795
11:01:44:035;-0.9768343;9.80665;-0.4213795
11:01:44:035;-0.9768343;9.80665;-0.4213795
11:01:44:035;-0.9768343;9.80665;-0.4213795
11:01:44:035;-0.9768343;9.80665;-0.4213795
11:01:44:170;-0.8619126;9.289502;-0.22984336
11:01:44:170;-0.8619126;9.289502;-0.22984336
11:01:44:170;-0.8619126;9.289502;-0.22984336
11:01:44:170;-0.8619126;9.289502;-0.22984336
11:01:44:170;-0.8619126;9.289502;-0.22984336
11:01:44:170;-0.8619126;9.289502;-0.22984336
11:01:44:170;-0.8619126;9.289502;-0.22984336
11:01:44:170;-0.8619126;9.289502;-0.22984336
11:01:44:170;-0.8619126;9.289502;-0.22984336
11:01:44:170;-0.8619126;9.289502;-0.22984336
11:01:44:170;-0.8619126;9.289502;-0.22984336
11:01:44:170;-0.8619126;9.289502;-0.22984336
11:01:44:170;-0.8619126;9.289502;-0.22984336
11:01:44:272;-2.2409728;10.266336;-0.36391866
11:01:44:272;-2.2409728;10.266336;-0.36391866
11:01:44:272;-2.2409728;10.266336;-0.36391866
11:01:44:272;-2.2409728;10.266336;-0.36391866
11:01:44:272;-2.2409728;10.266336;-0.36391866
11:01:44:272;-2.2409728;10.266336;-0.36391866
11:01:44:272;-2.2409728;10.266336;-0.36391866
11:01:44:272;-2.2409728;10.266336;-0.36391866
11:01:44:272;-2.2409728;10.266336;-0.36391866
11:01:44:272;-2.2409728;10.266336;-0.36391866
11:01:44:272;-2.2409728;10.266336;-0.36391866
11:01:44:272;-2.2409728;10.266336;-0.36391866
11:01:44:272;-2.2409728;10.266336;-0.36391866
11:01:44:272;-2.2409728;10.266336;-0.36391866
11:01:44:272;-2.2409728;10.266336;-0.36391866
11:01:44:272;-2.2409728;10.266336;-0.36391866
11:01:44:272;-2.2409728;10.266336;-0.36391866
11:01:44:272;-2.2409728;10.266336;-0.36391866
11:01:44:272;-2.2409728;10.266336;-0.36391866
11:01:44:419;-1.532289;10.457873;-1.1109096
11:01:44:419;-1.532289;10.457873;-1.1109096
11:01:44:419;-1.532289;10.457873;-1.1109096
11:01:44:419;-1.532289;10.457873;-1.1109096
11:01:44:419;-1.532289;10.457873;-1.1109096
11:01:44:419;-1.532289;10.457873;-1.1109096
11:01:44:419;-1.532289;10.457873;-1.1109096
11:01:44:419;-1.532289;10.457873;-1.1109096
11:01:44:419;-1.532289;10.457873;-1.1109096
11:01:44:419;-1.532289;10.457873;-1.1109096
11:01:44:419;-1.532289;10.457873;-1.1109096
11:01:44:419;-1.532289;10.457873;-1.1109096
11:01:44:419;-1.532289;10.457873;-1.1109096
11:01:44:419;-1.532289;10.457873;-1.1109096
11:01:44:525;-1.1875241;9.672575;0.019153614
11:01:44:525;-1.1875241;9.672575;0.019153614
11:01:44:525;-1.1875241;9.672575;0.019153614
11:01:44:525;-1.1875241;9.672575;0.019153614
11:01:44:525;-1.1875241;9.672575;0.019153614
11:01:44:525;-1.1875241;9.672575;0.019153614
11:01:44:525;-1.1875241;9.672575;0.019153614
11:01:44:525;-1.1875241;9.672575;0.019153614
11:01:44:525;-1.1875241;9.672575;0.019153614
11:01:44:525;-1.1875241;9.672575;0.019153614
11:01:44:525;-1.1875241;9.672575;0.019153614
11:01:44:525;-1.1875241;9.672575;0.019153614
11:01:44:525;-1.1875241;9.672575;0.019153614
11:01:44:525;-1.1875241;9.672575;0.019153614
11:01:44:525;-1.1875241;9.672575;0.019153614
11:01:44:525;-1.1875241;9.672575;0.019153614
11:01:44:525;-1.1875241;9.672575;0.019153614
11:01:44:657;-0.93852705;9.825804;-0.5746084
11:01:44:657;-0.93852705;9.825804;-0.5746084
11:01:44:657;-0.93852705;9.825804;-0.5746084
11:01:44:657;-0.93852705;9.825804;-0.5746084
11:01:44:657;-0.93852705;9.825804;-0.5746084
11:01:44:657;-0.93852705;9.825804;-0.5746084
11:01:44:657;-0.93852705;9.825804;-0.5746084
11:01:44:657;-0.93852705;9.825804;-0.5746084
11:01:44:657;-0.93852705;9.825804;-0.5746084
11:01:44:657;-0.93852705;9.825804;-0.5746084
11:01:44:657;-0.93852705;9.825804;-0.5746084
11:01:44:657;-0.93852705;9.825804;-0.5746084
11:01:44:657;-0.93852705;9.825804;-0.5746084
11:01:44:763;-1.0342951;10.266336;-0.61291564
11:01:44:763;-1.0342951;10.266336;-0.61291564
11:01:44:763;-1.0342951;10.266336;-0.61291564
11:01:44:763;-1.0342951;10.266336;-0.61291564
11:01:44:763;-1.0342951;10.266336;-0.61291564
11:01:44:763;-1.0342951;10.266336;-0.61291564
11:01:44:763;-1.0342951;10.266336;-0.61291564
11:01:44:763;-1.0342951;10.266336;-0.61291564
11:01:44:763;-1.0342951;10.266336;-0.61291564
11:01:44:763;-1.0342951;10.266336;-0.61291564
11:01:44:763;-1.0342951;10.266336;-0.61291564
11:01:44:763;-1.0342951;10.266336;-0.61291564
11:01:44:763;-1.0342951;10.266336;-0.61291564
11:01:44:867;-0.6895301;9.959879;-0.4405331
11:01:44:867;-0.6895301;9.959879;-0.4405331
11:01:44:867;-0.6895301;9.959879;-0.4405331
11:01:44:867;-0.6895301;9.959879;-0.4405331
11:01:44:867;-0.6895301;9.959879;-0.4405331
11:01:44:867;-0.6895301;9.959879;-0.4405331
11:01:44:867;-0.6895301;9.959879;-0.4405331
11:01:44:867;-0.6895301;9.959879;-0.4405331
11:01:44:867;-0.6895301;9.959879;-0.4405331
11:01:44:867;-0.6895301;9.959879;-0.4405331
11:01:44:867;-0.6895301;9.959879;-0.4405331
11:01:44:867;-0.6895301;9.959879;-0.4405331
11:01:44:867;-0.6895301;9.959879;-0.4405331
11:01:44:867;-0.6895301;9.959879;-0.4405331
11:01:44:867;-0.6895301;9.959879;-0.4405331
11:01:44:867;-0.6895301;9.959879;-0.4405331
11:01:44:867;-0.6895301;9.959879;-0.4405331
11:01:44:999;-0.5746084;9.883265;-0.7278373
11:01:44:999;-0.5746084;9.883265;-0.7278373
11:01:44:999;-0.5746084;9.883265;-0.7278373
11:01:44:999;-0.5746084;9.883265;-0.7278373
11:01:44:999;-0.5746084;9.883265;-0.7278373
11:01:44:999;-0.5746084;9.883265;-0.7278373
11:01:44:999;-0.5746084;9.883265;-0.7278373
11:01:44:999;-0.5746084;9.883265;-0.7278373
11:01:44:999;-0.5746084;9.883265;-0.7278373
11:01:44:999;-0.5746084;9.883265;-0.7278373
11:01:44:999;-0.5746084;9.883265;-0.7278373
11:01:44:999;-0.5746084;9.883265;-0.7278373
11:01:44:999;-0.5746084;9.883265;-0.7278373
11:01:44:999;-0.5746084;9.883265;-0.7278373
11:01:44:999;-0.5746084;9.883265;-0.7278373
11:01:45:117;-0.7278373;10.247183;-0.5363012
11:01:45:117;-0.7278373;10.247183;-0.5363012
11:01:45:117;-0.7278373;10.247183;-0.5363012
11:01:45:117;-0.7278373;10.247183;-0.5363012
11:01:45:117;-0.7278373;10.247183;-0.5363012
11:01:45:117;-0.7278373;10.247183;-0.5363012
11:01:45:117;-0.7278373;10.247183;-0.5363012
11:01:45:117;-0.7278373;10.247183;-0.5363012
11:01:45:117;-0.7278373;10.247183;-0.5363012
11:01:45:117;-0.7278373;10.247183;-0.5363012
11:01:45:117;-0.7278373;10.247183;-0.5363012
11:01:45:117;-0.7278373;10.247183;-0.5363012
11:01:45:117;-0.7278373;10.247183;-0.5363012
11:01:45:117;-0.7278373;10.247183;-0.5363012
11:01:45:117;-0.7278373;10.247183;-0.5363012
11:01:45:117;-0.7278373;10.247183;-0.5363012
11:01:45:117;-0.7278373;10.247183;-0.5363012
11:01:45:117;-0.7278373;10.247183;-0.5363012
11:01:45:117;-0.7278373;10.247183;-0.5363012
11:01:45:260;-0.7086837;9.959879;-0.90021986
11:01:45:260;-0.7086837;9.959879;-0.90021986
11:01:45:260;-0.7086837;9.959879;-0.90021986
11:01:45:260;-0.7086837;9.959879;-0.90021986
11:01:45:260;-0.7086837;9.959879;-0.90021986
11:01:45:260;-0.7086837;9.959879;-0.90021986
11:01:45:260;-0.7086837;9.959879;-0.90021986
11:01:45:260;-0.7086837;9.959879;-0.90021986
11:01:45:260;-0.7086837;9.959879;-0.90021986
11:01:45:260;-0.7086837;9.959879;-0.90021986
11:01:45:260;-0.7086837;9.959879;-0.90021986
11:01:45:260;-0.7086837;9.959879;-0.90021986
11:01:45:260;-0.7086837;9.959879;-0.90021986
11:01:45:260;-0.7086837;9.959879;-0.90021986
11:01:45:373;-0.7661445;10.151415;-0.59376204
11:01:45:373;-0.7661445;10.151415;-0.59376204
11:01:45:373;-0.7661445;10.151415;-0.59376204
11:01:45:373;-0.7661445;10.151415;-0.59376204
11:01:45:373;-0.7661445;10.151415;-0.59376204
11:01:45:373;-0.7661445;10.151415;-0.59376204
11:01:45:373;-0.7661445;10.151415;-0.59376204
11:01:45:373;-0.7661445;10.151415;-0.59376204
11:01:45:373;-0.7661445;10.151415;-0.59376204
11:01:45:373;-0.7661445;10.151415;-0.59376204
11:01:45:373;-0.7661445;10.151415;-0.59376204
11:01:45:373;-0.7661445;10.151415;-0.59376204
11:01:45:373;-0.7661445;10.151415;-0.59376204
11:01:45:373;-0.7661445;10.151415;-0.59376204
11:01:45:481;-0.6703765;10.553641;-0.47884035
11:01:45:481;-0.6703765;10.553641;-0.47884035
11:01:45:481;-0.6703765;10.553641;-0.47884035
11:01:45:481;-0.6703765;10.553641;-0.47884035
11:01:45:481;-0.6703765;10.553641;-0.47884035
11:01:45:481;-0.6703765;10.553641;-0.47884035
11:01:45:481;-0.6703765;10.553641;-0.47884035
11:01:45:481;-0.6703765;10.553641;-0.47884035
11:01:45:481;-0.6703765;10.553641;-0.47884035
11:01:45:481;-0.6703765;10.553641;-0.47884035
11:01:45:481;-0.6703765;10.553641;-0.47884035
11:01:45:481;-0.6703765;10.553641;-0.47884035
11:01:45:481;-0.6703765;10.553641;-0.47884035
11:01:45:481;-0.6703765;10.553641;-0.47884035
11:01:45:588;-0.32561144;9.921572;0.22984336
11:01:45:588;-0.32561144;9.921572;0.22984336
11:01:45:588;-0.32561144;9.921572;0.22984336
11:01:45:588;-0.32561144;9.921572;0.22984336
11:01:45:588;-0.32561144;9.921572;0.22984336
11:01:45:588;-0.32561144;9.921572;0.22984336
11:01:45:588;-0.32561144;9.921572;0.22984336
11:01:45:588;-0.32561144;9.921572;0.22984336
11:01:45:588;-0.32561144;9.921572;0.22984336
11:01:45:588;-0.32561144;9.921572;0.22984336
11:01:45:588;-0.32561144;9.921572;0.22984336
11:01:45:588;-0.32561144;9.921572;0.22984336
11:01:45:588;-0.32561144;9.921572;0.22984336
11:01:45:588;-0.32561144;9.921572;0.22984336
11:01:45:588;-0.32561144;9.921572;0.22984336
11:01:45:588;-0.32561144;9.921572;0.22984336
11:01:45:713;-0.47884035;10.0748005;0.7661445
11:01:45:713;-0.47884035;10.0748005;0.7661445
11:01:45:713;-0.47884035;10.0748005;0.7661445
11:01:45:713;-0.47884035;10.0748005;0.7661445
11:01:45:713;-0.47884035;10.0748005;0.7661445
11:01:45:713;-0.47884035;10.0748005;0.7661445
11:01:45:713;-0.47884035;10.0748005;0.7661445
11:01:45:713;-0.47884035;10.0748005;0.7661445
11:01:45:713;-0.47884035;10.0748005;0.7661445
11:01:45:713;-0.47884035;10.0748005;0.7661445
11:01:45:713;-0.47884035;10.0748005;0.7661445
11:01:45:713;-0.47884035;10.0748005;0.7661445
11:01:45:713;-0.47884035;10.0748005;0.7661445
11:01:45:713;-0.47884035;10.0748005;0.7661445
11:01:45:823;0.24899697;9.844957;0.1340753
11:01:45:823;0.24899697;9.844957;0.1340753
11:01:45:823;0.24899697;9.844957;0.1340753
11:01:45:823;0.24899697;9.844957;0.1340753
11:01:45:823;0.24899697;9.844957;0.1340753
11:01:45:823;0.24899697;9.844957;0.1340753
11:01:45:823;0.24899697;9.844957;0.1340753
11:01:45:823;0.24899697;9.844957;0.1340753
11:01:45:823;0.24899697;9.844957;0.1340753
11:01:45:823;0.24899697;9.844957;0.1340753
11:01:45:823;0.24899697;9.844957;0.1340753
11:01:45:823;0.24899697;9.844957;0.1340753
11:01:45:823;0.24899697;9.844957;0.1340753
11:01:45:823;0.24899697;9.844957;0.1340753
11:01:45:823;0.24899697;9.844957;0.1340753
11:01:45:941;-0.2873042;10.611102;0.51714754
11:01:45:941;-0.2873042;10.611102;0.51714754
11:01:45:941;-0.2873042;10.611102;0.51714754
11:01:45:941;-0.2873042;10.611102;0.51714754
11:01:45:941;-0.2873042;10.611102;0.51714754
11:01:45:941;-0.2873042;10.611102;0.51714754
11:01:45:941;-0.2873042;10.611102;0.51714754
11:01:45:941;-0.2873042;10.611102;0.51714754
11:01:45:941;-0.2873042;10.611102;0.51714754
11:01:45:941;-0.2873042;10.611102;0.51714754
11:01:45:941;-0.2873042;10.611102;0.51714754
11:01:45:941;-0.2873042;10.611102;0.51714754
11:01:45:941;-0.2873042;10.611102;0.51714754
11:01:45:941;-0.2873042;10.611102;0.51714754
11:01:45:941;-0.2873042;10.611102;0.51714754
11:01:46:059;-0.19153613;10.113108;0.59376204
11:01:46:059;-0.19153613;10.113108;0.59376204
11:01:46:059;-0.19153613;10.113108;0.59376204
11:01:46:059;-0.19153613;10.113108;0.59376204
11:01:46:059;-0.19153613;10.113108;0.59376204
11:01:46:059;-0.19153613;10.113108;0.59376204
11:01:46:059;-0.19153613;10.113108;0.59376204
11:01:46:059;-0.19153613;10.113108;0.59376204
11:01:46:059;-0.19153613;10.113108;0.59376204
11:01:46:059;-0.19153613;10.113108;0.59376204
11:01:46:059;-0.19153613;10.113108;0.59376204
11:01:46:059;-0.19153613;10.113108;0.59376204
11:01:46:059;-0.19153613;10.113108;0.59376204
11:01:46:059;-0.19153613;10.113108;0.59376204
11:01:46:059;-0.19153613;10.113108;0.59376204
11:01:46:177;-0.34476504;10.055647;0.22984336
11:01:46:177;-0.34476504;10.055647;0.22984336
11:01:46:177;-0.34476504;10.055647;0.22984336
11:01:46:177;-0.34476504;10.055647;0.22984336
11:01:46:177;-0.34476504;10.055647;0.22984336
11:01:46:177;-0.34476504;10.055647;0.22984336
11:01:46:177;-0.34476504;10.055647;0.22984336
11:01:46:177;-0.34476504;10.055647;0.22984336
11:01:46:177;-0.34476504;10.055647;0.22984336
11:01:46:177;-0.34476504;10.055647;0.22984336
11:01:46:177;-0.34476504;10.055647;0.22984336
11:01:46:177;-0.34476504;10.055647;0.22984336
11:01:46:177;-0.34476504;10.055647;0.22984336
11:01:46:177;-0.34476504;10.055647;0.22984336
11:01:46:177;-0.34476504;10.055647;0.22984336
11:01:46:295;0.076614454;10.726024;-1.5131354
11:01:46:295;0.076614454;10.726024;-1.5131354
11:01:46:295;0.076614454;10.726024;-1.5131354
11:01:46:295;0.076614454;10.726024;-1.5131354
11:01:46:295;0.076614454;10.726024;-1.5131354
11:01:46:295;0.076614454;10.726024;-1.5131354
11:01:46:295;0.076614454;10.726024;-1.5131354
11:01:46:295;0.076614454;10.726024;-1.5131354
11:01:46:295;0.076614454;10.726024;-1.5131354
11:01:46:295;0.076614454;10.726024;-1.5131354
11:01:46:295;0.076614454;10.726024;-1.5131354
11:01:46:295;0.076614454;10.726024;-1.5131354
11:01:46:295;0.076614454;10.726024;-1.5131354
11:01:46:295;0.076614454;10.726024;-1.5131354
11:01:46:295;0.076614454;10.726024;-1.5131354
11:01:46:413;0.15322891;10.381259;-1.7812861
11:01:46:413;0.15322891;10.381259;-1.7812861
11:01:46:413;0.15322891;10.381259;-1.7812861
11:01:46:413;0.15322891;10.381259;-1.7812861
11:01:46:413;0.15322891;10.381259;-1.7812861
11:01:46:413;0.15322891;10.381259;-1.7812861
11:01:46:413;0.15322891;10.381259;-1.7812861
11:01:46:413;0.15322891;10.381259;-1.7812861
11:01:46:413;0.15322891;10.381259;-1.7812861
11:01:46:413;0.15322891;10.381259;-1.7812861
11:01:46:413;0.15322891;10.381259;-1.7812861
11:01:46:413;0.15322891;10.381259;-1.7812861
11:01:46:413;0.15322891;10.381259;-1.7812861
11:01:46:413;0.15322891;10.381259;-1.7812861
11:01:46:413;0.15322891;10.381259;-1.7812861
11:01:46:413;0.15322891;10.381259;-1.7812861
11:01:46:532;-0.038307227;10.151415;-1.1300632
11:01:46:532;-0.038307227;10.151415;-1.1300632
11:01:46:532;-0.038307227;10.151415;-1.1300632
11:01:46:532;-0.038307227;10.151415;-1.1300632
11:01:46:532;-0.038307227;10.151415;-1.1300632
11:01:46:532;-0.038307227;10.151415;-1.1300632
11:01:46:532;-0.038307227;10.151415;-1.1300632
11:01:46:532;-0.038307227;10.151415;-1.1300632
11:01:46:532;-0.038307227;10.151415;-1.1300632
11:01:46:532;-0.038307227;10.151415;-1.1300632
11:01:46:532;-0.038307227;10.151415;-1.1300632
11:01:46:532;-0.038307227;10.151415;-1.1300632
11:01:46:532;-0.038307227;10.151415;-1.1300632
11:01:46:532;-0.038307227;10.151415;-1.1300632
11:01:46:648;-0.30645782;9.730036;-0.2873042
11:01:46:648;-0.30645782;9.730036;-0.2873042
11:01:46:648;-0.30645782;9.730036;-0.2873042
11:01:46:648;-0.30645782;9.730036;-0.2873042
11:01:46:648;-0.30645782;9.730036;-0.2873042
11:01:46:648;-0.30645782;9.730036;-0.2873042
11:01:46:648;-0.30645782;9.730036;-0.2873042
11:01:46:648;-0.30645782;9.730036;-0.2873042
11:01:46:648;-0.30645782;9.730036;-0.2873042
11:01:46:648;-0.30645782;9.730036;-0.2873042
11:01:46:648;-0.30645782;9.730036;-0.2873042
11:01:46:648;-0.30645782;9.730036;-0.2873042
11:01:46:648;-0.30645782;9.730036;-0.2873042
11:01:46:648;-0.30645782;9.730036;-0.2873042
11:01:46:648;-0.30645782;9.730036;-0.2873042
11:01:46:648;-0.30645782;9.730036;-0.2873042
11:01:46:766;-0.21068975;9.998186;-0.36391866
11:01:46:766;-0.21068975;9.998186;-0.36391866
11:01:46:766;-0.21068975;9.998186;-0.36391866
11:01:46:766;-0.21068975;9.998186;-0.36391866
11:01:46:766;-0.21068975;9.998186;-0.36391866
11:01:46:766;-0.21068975;9.998186;-0.36391866
11:01:46:766;-0.21068975;9.998186;-0.36391866
11:01:46:766;-0.21068975;9.998186;-0.36391866
11:01:46:766;-0.21068975;9.998186;-0.36391866
11:01:46:766;-0.21068975;9.998186;-0.36391866
11:01:46:766;-0.21068975;9.998186;-0.36391866
11:01:46:766;-0.21068975;9.998186;-0.36391866
11:01:46:766;-0.21068975;9.998186;-0.36391866
11:01:46:766;-0.21068975;9.998186;-0.36391866
11:01:46:766;-0.21068975;9.998186;-0.36391866
11:01:46:883;-0.038307227;10.323798;-0.4405331
11:01:46:883;-0.038307227;10.323798;-0.4405331
11:01:46:883;-0.038307227;10.323798;-0.4405331
11:01:46:883;-0.038307227;10.323798;-0.4405331
11:01:46:883;-0.038307227;10.323798;-0.4405331
11:01:46:883;-0.038307227;10.323798;-0.4405331
11:01:46:883;-0.038307227;10.323798;-0.4405331
11:01:46:883;-0.038307227;10.323798;-0.4405331
11:01:46:883;-0.038307227;10.323798;-0.4405331
11:01:46:883;-0.038307227;10.323798;-0.4405331
11:01:46:883;-0.038307227;10.323798;-0.4405331
11:01:46:883;-0.038307227;10.323798;-0.4405331
11:01:46:883;-0.038307227;10.323798;-0.4405331
11:01:46:883;-0.038307227;10.323798;-0.4405331
11:01:46:883;-0.038307227;10.323798;-0.4405331
11:01:47:002;-0.36391866;10.323798;-0.6703765
11:01:47:002;-0.36391866;10.323798;-0.6703765
11:01:47:002;-0.36391866;10.323798;-0.6703765
11:01:47:002;-0.36391866;10.323798;-0.6703765
11:01:47:002;-0.36391866;10.323798;-0.6703765
11:01:47:002;-0.36391866;10.323798;-0.6703765
11:01:47:002;-0.36391866;10.323798;-0.6703765
11:01:47:002;-0.36391866;10.323798;-0.6703765
11:01:47:002;-0.36391866;10.323798;-0.6703765
11:01:47:002;-0.36391866;10.323798;-0.6703765
11:01:47:002;-0.36391866;10.323798;-0.6703765
11:01:47:002;-0.36391866;10.323798;-0.6703765
11:01:47:002;-0.36391866;10.323798;-0.6703765
11:01:47:002;-0.36391866;10.323798;-0.6703765
11:01:47:117;-0.24899697;10.189722;-0.7469909
11:01:47:117;-0.24899697;10.189722;-0.7469909
11:01:47:117;-0.24899697;10.189722;-0.7469909
11:01:47:117;-0.24899697;10.189722;-0.7469909
11:01:47:117;-0.24899697;10.189722;-0.7469909
11:01:47:117;-0.24899697;10.189722;-0.7469909
11:01:47:117;-0.24899697;10.189722;-0.7469909
11:01:47:117;-0.24899697;10.189722;-0.7469909
11:01:47:117;-0.24899697;10.189722;-0.7469909
11:01:47:117;-0.24899697;10.189722;-0.7469909
11:01:47:117;-0.24899697;10.189722;-0.7469909
11:01:47:117;-0.24899697;10.189722;-0.7469909
11:01:47:117;-0.24899697;10.189722;-0.7469909
11:01:47:117;-0.24899697;10.189722;-0.7469909
11:01:47:117;-0.24899697;10.189722;-0.7469909
11:01:47:117;-0.24899697;10.189722;-0.7469909
11:01:47:235;-0.1340753;10.132261;-0.5554548
11:01:47:235;-0.1340753;10.132261;-0.5554548
11:01:47:235;-0.1340753;10.132261;-0.5554548
11:01:47:235;-0.1340753;10.132261;-0.5554548
11:01:47:235;-0.1340753;10.132261;-0.5554548
11:01:47:235;-0.1340753;10.132261;-0.5554548
11:01:47:235;-0.1340753;10.132261;-0.5554548
11:01:47:235;-0.1340753;10.132261;-0.5554548
11:01:47:235;-0.1340753;10.132261;-0.5554548
11:01:47:235;-0.1340753;10.132261;-0.5554548
11:01:47:235;-0.1340753;10.132261;-0.5554548
11:01:47:235;-0.1340753;10.132261;-0.5554548
11:01:47:235;-0.1340753;10.132261;-0.5554548
11:01:47:235;-0.1340753;10.132261;-0.5554548
11:01:47:345;-0.038307227;9.80665;-0.49799395
11:01:47:345;-0.038307227;9.80665;-0.49799395
11:01:47:345;-0.038307227;9.80665;-0.49799395
11:01:47:345;-0.038307227;9.80665;-0.49799395
11:01:47:345;-0.038307227;9.80665;-0.49799395
11:01:47:345;-0.038307227;9.80665;-0.49799395
11:01:47:345;-0.038307227;9.80665;-0.49799395
11:01:47:345;-0.038307227;9.80665;-0.49799395
11:01:47:345;-0.038307227;9.80665;-0.49799395
11:01:47:345;-0.038307227;9.80665;-0.49799395
11:01:47:345;-0.038307227;9.80665;-0.49799395
11:01:47:345;-0.038307227;9.80665;-0.49799395
11:01:47:345;-0.038307227;9.80665;-0.49799395
11:01:47:450;-0.19153613;9.80665;-0.1340753
11:01:47:450;-0.19153613;9.80665;-0.1340753
11:01:47:450;-0.19153613;9.80665;-0.1340753
11:01:47:450;-0.19153613;9.80665;-0.1340753
11:01:47:450;-0.19153613;9.80665;-0.1340753
11:01:47:450;-0.19153613;9.80665;-0.1340753
11:01:47:450;-0.19153613;9.80665;-0.1340753
11:01:47:450;-0.19153613;9.80665;-0.1340753
11:01:47:450;-0.19153613;9.80665;-0.1340753
11:01:47:450;-0.19153613;9.80665;-0.1340753
11:01:47:450;-0.19153613;9.80665;-0.1340753
11:01:47:450;-0.19153613;9.80665;-0.1340753
11:01:47:450;-0.19153613;9.80665;-0.1340753
11:01:47:450;-0.19153613;9.80665;-0.1340753
11:01:47:450;-0.19153613;9.80665;-0.1340753
11:01:47:450;-0.19153613;9.80665;-0.1340753
11:01:47:450;-0.19153613;9.80665;-0.1340753
11:01:47:450;-0.19153613;9.80665;-0.1340753
11:01:47:587;-0.095768064;9.844957;-0.40222588
11:01:47:587;-0.095768064;9.844957;-0.40222588
11:01:47:587;-0.095768064;9.844957;-0.40222588
11:01:47:587;-0.095768064;9.844957;-0.40222588
11:01:47:587;-0.095768064;9.844957;-0.40222588
11:01:47:587;-0.095768064;9.844957;-0.40222588
11:01:47:587;-0.095768064;9.844957;-0.40222588
11:01:47:587;-0.095768064;9.844957;-0.40222588
11:01:47:587;-0.095768064;9.844957;-0.40222588
11:01:47:587;-0.095768064;9.844957;-0.40222588
11:01:47:587;-0.095768064;9.844957;-0.40222588
11:01:47:587;-0.095768064;9.844957;-0.40222588
11:01:47:587;-0.095768064;9.844957;-0.40222588
11:01:47:587;-0.095768064;9.844957;-0.40222588
11:01:47:703;-0.2681506;10.419566;-0.63206923
11:01:47:703;-0.2681506;10.419566;-0.63206923
11:01:47:703;-0.2681506;10.419566;-0.63206923
11:01:47:703;-0.2681506;10.419566;-0.63206923
11:01:47:703;-0.2681506;10.419566;-0.63206923
11:01:47:703;-0.2681506;10.419566;-0.63206923
11:01:47:703;-0.2681506;10.419566;-0.63206923
11:01:47:703;-0.2681506;10.419566;-0.63206923
11:01:47:703;-0.2681506;10.419566;-0.63206923
11:01:47:703;-0.2681506;10.419566;-0.63206923
11:01:47:703;-0.2681506;10.419566;-0.63206923
11:01:47:703;-0.2681506;10.419566;-0.63206923
11:01:47:703;-0.2681506;10.419566;-0.63206923
11:01:47:703;-0.2681506;10.419566;-0.63206923
11:01:47:703;-0.2681506;10.419566;-0.63206923
11:01:47:820;-0.5554548;9.959879;-0.34476504
11:01:47:820;-0.5554548;9.959879;-0.34476504
11:01:47:820;-0.5554548;9.959879;-0.34476504
11:01:47:820;-0.5554548;9.959879;-0.34476504
11:01:47:820;-0.5554548;9.959879;-0.34476504
11:01:47:820;-0.5554548;9.959879;-0.34476504
11:01:47:820;-0.5554548;9.959879;-0.34476504
11:01:47:820;-0.5554548;9.959879;-0.34476504
11:01:47:820;-0.5554548;9.959879;-0.34476504
11:01:47:820;-0.5554548;9.959879;-0.34476504
11:01:47:820;-0.5554548;9.959879;-0.34476504
11:01:47:820;-0.5554548;9.959879;-0.34476504
11:01:47:820;-0.5554548;9.959879;-0.34476504
11:01:47:820;-0.5554548;9.959879;-0.34476504
11:01:47:820;-0.5554548;9.959879;-0.34476504
11:01:47:820;-0.5554548;9.959879;-0.34476504
11:01:47:939;-0.49799395;10.189722;-0.36391866
11:01:47:939;-0.49799395;10.189722;-0.36391866
11:01:47:939;-0.49799395;10.189722;-0.36391866
11:01:47:939;-0.49799395;10.189722;-0.36391866
11:01:47:939;-0.49799395;10.189722;-0.36391866
11:01:47:939;-0.49799395;10.189722;-0.36391866
11:01:47:939;-0.49799395;10.189722;-0.36391866
11:01:47:939;-0.49799395;10.189722;-0.36391866
11:01:47:939;-0.49799395;10.189722;-0.36391866
11:01:47:939;-0.49799395;10.189722;-0.36391866
11:01:47:939;-0.49799395;10.189722;-0.36391866
11:01:47:939;-0.49799395;10.189722;-0.36391866
11:01:47:939;-0.49799395;10.189722;-0.36391866
11:01:47:939;-0.49799395;10.189722;-0.36391866
11:01:47:939;-0.49799395;10.189722;-0.36391866
11:01:48:057;-0.34476504;10.036493;-0.47884035
11:01:48:057;-0.34476504;10.036493;-0.47884035
11:01:48:057;-0.34476504;10.036493;-0.47884035
11:01:48:057;-0.34476504;10.036493;-0.47884035
11:01:48:057;-0.34476504;10.036493;-0.47884035
11:01:48:057;-0.34476504;10.036493;-0.47884035
11:01:48:057;-0.34476504;10.036493;-0.47884035
11:01:48:057;-0.34476504;10.036493;-0.47884035
11:01:48:057;-0.34476504;10.036493;-0.47884035
11:01:48:057;-0.34476504;10.036493;-0.47884035
11:01:48:057;-0.34476504;10.036493;-0.47884035
11:01:48:057;-0.34476504;10.036493;-0.47884035
11:01:48:057;-0.34476504;10.036493;-0.47884035
11:01:48:057;-0.34476504;10.036493;-0.47884035
11:01:48:057;-0.34476504;10.036493;-0.47884035
11:01:48:172;-0.076614454;10.362105;-0.19153613
11:01:48:172;-0.076614454;10.362105;-0.19153613
11:01:48:172;-0.076614454;10.362105;-0.19153613
11:01:48:172;-0.076614454;10.362105;-0.19153613
11:01:48:172;-0.076614454;10.362105;-0.19153613
11:01:48:172;-0.076614454;10.362105;-0.19153613
11:01:48:172;-0.076614454;10.362105;-0.19153613
11:01:48:172;-0.076614454;10.362105;-0.19153613
11:01:48:172;-0.076614454;10.362105;-0.19153613
11:01:48:172;-0.076614454;10.362105;-0.19153613
11:01:48:172;-0.076614454;10.362105;-0.19153613
11:01:48:172;-0.076614454;10.362105;-0.19153613
11:01:48:172;-0.076614454;10.362105;-0.19153613
11:01:48:172;-0.076614454;10.362105;-0.19153613
11:01:48:172;-0.076614454;10.362105;-0.19153613
11:01:48:290;-0.38307226;10.323798;0.2681506
11:01:48:290;-0.38307226;10.323798;0.2681506
11:01:48:290;-0.38307226;10.323798;0.2681506
11:01:48:290;-0.38307226;10.323798;0.2681506
11:01:48:290;-0.38307226;10.323798;0.2681506
11:01:48:290;-0.38307226;10.323798;0.2681506
11:01:48:290;-0.38307226;10.323798;0.2681506
11:01:48:290;-0.38307226;10.323798;0.2681506
11:01:48:290;-0.38307226;10.323798;0.2681506
11:01:48:290;-0.38307226;10.323798;0.2681506
11:01:48:290;-0.38307226;10.323798;0.2681506
11:01:48:290;-0.38307226;10.323798;0.2681506
11:01:48:290;-0.38307226;10.323798;0.2681506
11:01:48:290;-0.38307226;10.323798;0.2681506
11:01:48:290;-0.38307226;10.323798;0.2681506
11:01:48:409;-0.24899697;9.940725;-0.2681506
11:01:48:409;-0.24899697;9.940725;-0.2681506
11:01:48:409;-0.24899697;9.940725;-0.2681506
11:01:48:409;-0.24899697;9.940725;-0.2681506
11:01:48:409;-0.24899697;9.940725;-0.2681506
11:01:48:409;-0.24899697;9.940725;-0.2681506
11:01:48:409;-0.24899697;9.940725;-0.2681506
11:01:48:409;-0.24899697;9.940725;-0.2681506
11:01:48:409;-0.24899697;9.940725;-0.2681506
11:01:48:409;-0.24899697;9.940725;-0.2681506
11:01:48:409;-0.24899697;9.940725;-0.2681506
11:01:48:409;-0.24899697;9.940725;-0.2681506
11:01:48:409;-0.24899697;9.940725;-0.2681506
11:01:48:511;-0.61291564;10.572795;0.15322891
11:01:48:511;-0.61291564;10.572795;0.15322891
11:01:48:511;-0.61291564;10.572795;0.15322891
11:01:48:511;-0.61291564;10.572795;0.15322891
11:01:48:511;-0.61291564;10.572795;0.15322891
11:01:48:511;-0.61291564;10.572795;0.15322891
11:01:48:511;-0.61291564;10.572795;0.15322891
11:01:48:511;-0.61291564;10.572795;0.15322891
11:01:48:511;-0.61291564;10.572795;0.15322891
11:01:48:511;-0.61291564;10.572795;0.15322891
11:01:48:511;-0.61291564;10.572795;0.15322891
11:01:48:511;-0.61291564;10.572795;0.15322891
11:01:48:511;-0.61291564;10.572795;0.15322891
11:01:48:511;-0.61291564;10.572795;0.15322891
11:01:48:624;-0.4405331;10.036493;0.47884035
11:01:48:624;-0.4405331;10.036493;0.47884035
11:01:48:624;-0.4405331;10.036493;0.47884035
11:01:48:624;-0.4405331;10.036493;0.47884035
11:01:48:624;-0.4405331;10.036493;0.47884035
11:01:48:624;-0.4405331;10.036493;0.47884035
11:01:48:624;-0.4405331;10.036493;0.47884035
11:01:48:624;-0.4405331;10.036493;0.47884035
11:01:48:624;-0.4405331;10.036493;0.47884035
11:01:48:624;-0.4405331;10.036493;0.47884035
11:01:48:624;-0.4405331;10.036493;0.47884035
11:01:48:624;-0.4405331;10.036493;0.47884035
11:01:48:624;-0.4405331;10.036493;0.47884035
11:01:48:624;-0.4405331;10.036493;0.47884035
11:01:48:624;-0.4405331;10.036493;0.47884035
11:01:48:741;-0.17238252;9.768343;0.21068975
11:01:48:741;-0.17238252;9.768343;0.21068975
11:01:48:741;-0.17238252;9.768343;0.21068975
11:01:48:741;-0.17238252;9.768343;0.21068975
11:01:48:741;-0.17238252;9.768343;0.21068975
11:01:48:741;-0.17238252;9.768343;0.21068975
11:01:48:741;-0.17238252;9.768343;0.21068975
11:01:48:741;-0.17238252;9.768343;0.21068975
11:01:48:741;-0.17238252;9.768343;0.21068975
11:01:48:741;-0.17238252;9.768343;0.21068975
11:01:48:741;-0.17238252;9.768343;0.21068975
11:01:48:741;-0.17238252;9.768343;0.21068975
11:01:48:741;-0.17238252;9.768343;0.21068975
11:01:48:741;-0.17238252;9.768343;0.21068975
11:01:48:741;-0.17238252;9.768343;0.21068975
11:01:48:741;-0.17238252;9.768343;0.21068975
11:01:48:860;-0.4213795;10.208876;0.32561144
11:01:48:860;-0.4213795;10.208876;0.32561144
11:01:48:860;-0.4213795;10.208876;0.32561144
11:01:48:860;-0.4213795;10.208876;0.32561144
11:01:48:860;-0.4213795;10.208876;0.32561144
11:01:48:860;-0.4213795;10.208876;0.32561144
11:01:48:860;-0.4213795;10.208876;0.32561144
11:01:48:860;-0.4213795;10.208876;0.32561144
11:01:48:860;-0.4213795;10.208876;0.32561144
11:01:48:860;-0.4213795;10.208876;0.32561144
11:01:48:860;-0.4213795;10.208876;0.32561144
11:01:48:860;-0.4213795;10.208876;0.32561144
11:01:48:860;-0.4213795;10.208876;0.32561144
11:01:48:961;-0.7278373;9.998186;0.7661445
11:01:48:961;-0.7278373;9.998186;0.7661445
11:01:48:961;-0.7278373;9.998186;0.7661445
11:01:48:961;-0.7278373;9.998186;0.7661445
11:01:48:961;-0.7278373;9.998186;0.7661445
11:01:48:961;-0.7278373;9.998186;0.7661445
11:01:48:961;-0.7278373;9.998186;0.7661445
11:01:48:961;-0.7278373;9.998186;0.7661445
11:01:48:961;-0.7278373;9.998186;0.7661445
11:01:48:961;-0.7278373;9.998186;0.7661445
11:01:48:961;-0.7278373;9.998186;0.7661445
11:01:48:961;-0.7278373;9.998186;0.7661445
11:01:48:961;-0.7278373;9.998186;0.7661445
11:01:48:961;-0.7278373;9.998186;0.7661445
11:01:49:076;-0.40222588;9.404425;0.9576807
11:01:49:076;-0.40222588;9.404425;0.9576807
11:01:49:076;-0.40222588;9.404425;0.9576807
11:01:49:076;-0.40222588;9.404425;0.9576807
11:01:49:076;-0.40222588;9.404425;0.9576807
11:01:49:076;-0.40222588;9.404425;0.9576807
11:01:49:076;-0.40222588;9.404425;0.9576807
11:01:49:076;-0.40222588;9.404425;0.9576807
11:01:49:076;-0.40222588;9.404425;0.9576807
11:01:49:076;-0.40222588;9.404425;0.9576807
11:01:49:076;-0.40222588;9.404425;0.9576807
11:01:49:076;-0.40222588;9.404425;0.9576807
11:01:49:076;-0.40222588;9.404425;0.9576807
11:01:49:076;-0.40222588;9.404425;0.9576807
11:01:49:184;-0.61291564;10.0748005;1.3790601
11:01:49:184;-0.61291564;10.0748005;1.3790601
11:01:49:184;-0.61291564;10.0748005;1.3790601
11:01:49:184;-0.61291564;10.0748005;1.3790601
11:01:49:184;-0.61291564;10.0748005;1.3790601
11:01:49:184;-0.61291564;10.0748005;1.3790601
11:01:49:184;-0.61291564;10.0748005;1.3790601
11:01:49:184;-0.61291564;10.0748005;1.3790601
11:01:49:184;-0.61291564;10.0748005;1.3790601
11:01:49:184;-0.61291564;10.0748005;1.3790601
11:01:49:184;-0.61291564;10.0748005;1.3790601
11:01:49:184;-0.61291564;10.0748005;1.3790601
11:01:49:184;-0.61291564;10.0748005;1.3790601
11:01:49:184;-0.61291564;10.0748005;1.3790601
11:01:49:291;-0.2681506;9.710882;1.091756
11:01:49:291;-0.2681506;9.710882;1.091756
11:01:49:291;-0.2681506;9.710882;1.091756
11:01:49:291;-0.2681506;9.710882;1.091756
11:01:49:291;-0.2681506;9.710882;1.091756
11:01:49:291;-0.2681506;9.710882;1.091756
11:01:49:291;-0.2681506;9.710882;1.091756
11:01:49:291;-0.2681506;9.710882;1.091756
11:01:49:291;-0.2681506;9.710882;1.091756
11:01:49:291;-0.2681506;9.710882;1.091756
11:01:49:291;-0.2681506;9.710882;1.091756
11:01:49:291;-0.2681506;9.710882;1.091756
11:01:49:291;-0.2681506;9.710882;1.091756
11:01:49:291;-0.2681506;9.710882;1.091756
11:01:49:291;-0.2681506;9.710882;1.091756
11:01:49:408;-0.49799395;10.189722;0.36391866
11:01:49:408;-0.49799395;10.189722;0.36391866
11:01:49:408;-0.49799395;10.189722;0.36391866
11:01:49:408;-0.49799395;10.189722;0.36391866
11:01:49:408;-0.49799395;10.189722;0.36391866
11:01:49:408;-0.49799395;10.189722;0.36391866
11:01:49:408;-0.49799395;10.189722;0.36391866
11:01:49:408;-0.49799395;10.189722;0.36391866
11:01:49:408;-0.49799395;10.189722;0.36391866
11:01:49:408;-0.49799395;10.189722;0.36391866
11:01:49:408;-0.49799395;10.189722;0.36391866
11:01:49:408;-0.49799395;10.189722;0.36391866
11:01:49:408;-0.49799395;10.189722;0.36391866
11:01:49:408;-0.49799395;10.189722;0.36391866
11:01:49:408;-0.49799395;10.189722;0.36391866
11:01:49:528;-0.9576807;10.247183;1.0726024
11:01:49:528;-0.9576807;10.247183;1.0726024
11:01:49:528;-0.9576807;10.247183;1.0726024
11:01:49:528;-0.9576807;10.247183;1.0726024
11:01:49:528;-0.9576807;10.247183;1.0726024
11:01:49:528;-0.9576807;10.247183;1.0726024
11:01:49:528;-0.9576807;10.247183;1.0726024
11:01:49:528;-0.9576807;10.247183;1.0726024
11:01:49:528;-0.9576807;10.247183;1.0726024
11:01:49:528;-0.9576807;10.247183;1.0726024
11:01:49:528;-0.9576807;10.247183;1.0726024
11:01:49:528;-0.9576807;10.247183;1.0726024
11:01:49:528;-0.9576807;10.247183;1.0726024
11:01:49:528;-0.9576807;10.247183;1.0726024
11:01:49:528;-0.9576807;10.247183;1.0726024
11:01:49:645;-0.7086837;10.381259;-0.019153614
11:01:49:645;-0.7086837;10.381259;-0.019153614
11:01:49:645;-0.7086837;10.381259;-0.019153614
11:01:49:645;-0.7086837;10.381259;-0.019153614
11:01:49:645;-0.7086837;10.381259;-0.019153614
11:01:49:645;-0.7086837;10.381259;-0.019153614
11:01:49:645;-0.7086837;10.381259;-0.019153614
11:01:49:645;-0.7086837;10.381259;-0.019153614
11:01:49:645;-0.7086837;10.381259;-0.019153614
11:01:49:645;-0.7086837;10.381259;-0.019153614
11:01:49:645;-0.7086837;10.381259;-0.019153614
11:01:49:645;-0.7086837;10.381259;-0.019153614
11:01:49:645;-0.7086837;10.381259;-0.019153614
11:01:49:645;-0.7086837;10.381259;-0.019153614
11:01:49:645;-0.7086837;10.381259;-0.019153614
11:01:49:762;-0.30645782;9.385271;0.6703765
11:01:49:762;-0.30645782;9.385271;0.6703765
11:01:49:762;-0.30645782;9.385271;0.6703765
11:01:49:762;-0.30645782;9.385271;0.6703765
11:01:49:762;-0.30645782;9.385271;0.6703765
11:01:49:762;-0.30645782;9.385271;0.6703765
11:01:49:762;-0.30645782;9.385271;0.6703765
11:01:49:762;-0.30645782;9.385271;0.6703765
11:01:49:762;-0.30645782;9.385271;0.6703765
11:01:49:762;-0.30645782;9.385271;0.6703765
11:01:49:762;-0.30645782;9.385271;0.6703765
11:01:49:762;-0.30645782;9.385271;0.6703765
11:01:49:762;-0.30645782;9.385271;0.6703765
11:01:49:762;-0.30645782;9.385271;0.6703765
11:01:49:762;-0.30645782;9.385271;0.6703765
11:01:49:881;-0.4213795;10.055647;0.038307227
11:01:49:881;-0.4213795;10.055647;0.038307227
11:01:49:881;-0.4213795;10.055647;0.038307227
11:01:49:881;-0.4213795;10.055647;0.038307227
11:01:49:881;-0.4213795;10.055647;0.038307227
11:01:49:881;-0.4213795;10.055647;0.038307227
11:01:49:881;-0.4213795;10.055647;0.038307227
11:01:49:881;-0.4213795;10.055647;0.038307227
11:01:49:881;-0.4213795;10.055647;0.038307227
11:01:49:881;-0.4213795;10.055647;0.038307227
11:01:49:881;-0.4213795;10.055647;0.038307227
11:01:49:881;-0.4213795;10.055647;0.038307227
11:01:49:881;-0.4213795;10.055647;0.038307227
11:01:49:881;-0.4213795;10.055647;0.038307227
11:01:49:881;-0.4213795;10.055647;0.038307227
11:01:49:996;-0.59376204;10.113108;0.5363012
11:01:49:996;-0.59376204;10.113108;0.5363012
11:01:49:996;-0.59376204;10.113108;0.5363012
11:01:49:996;-0.59376204;10.113108;0.5363012
11:01:49:996;-0.59376204;10.113108;0.5363012
11:01:49:996;-0.59376204;10.113108;0.5363012
11:01:49:996;-0.59376204;10.113108;0.5363012
11:01:49:996;-0.59376204;10.113108;0.5363012
11:01:49:996;-0.59376204;10.113108;0.5363012
11:01:49:996;-0.59376204;10.113108;0.5363012
11:01:49:996;-0.59376204;10.113108;0.5363012
11:01:49:996;-0.59376204;10.113108;0.5363012
11:01:49:996;-0.59376204;10.113108;0.5363012
11:01:49:996;-0.59376204;10.113108;0.5363012
11:01:49:996;-0.59376204;10.113108;0.5363012
11:01:50:114;-0.32561144;9.634268;0.7086837
11:01:50:114;-0.32561144;9.634268;0.7086837
11:01:50:114;-0.32561144;9.634268;0.7086837
11:01:50:114;-0.32561144;9.634268;0.7086837
11:01:50:114;-0.32561144;9.634268;0.7086837
11:01:50:114;-0.32561144;9.634268;0.7086837
11:01:50:114;-0.32561144;9.634268;0.7086837
11:01:50:114;-0.32561144;9.634268;0.7086837
11:01:50:114;-0.32561144;9.634268;0.7086837
11:01:50:114;-0.32561144;9.634268;0.7086837
11:01:50:114;-0.32561144;9.634268;0.7086837
11:01:50:114;-0.32561144;9.634268;0.7086837
11:01:50:114;-0.32561144;9.634268;0.7086837
11:01:50:114;-0.32561144;9.634268;0.7086837
11:01:50:114;-0.32561144;9.634268;0.7086837
11:01:50:231;-0.32561144;9.9790325;0.095768064
11:01:50:231;-0.32561144;9.9790325;0.095768064
11:01:50:231;-0.32561144;9.9790325;0.095768064
11:01:50:231;-0.32561144;9.9790325;0.095768064
11:01:50:231;-0.32561144;9.9790325;0.095768064
11:01:50:231;-0.32561144;9.9790325;0.095768064
11:01:50:231;-0.32561144;9.9790325;0.095768064
11:01:50:231;-0.32561144;9.9790325;0.095768064
11:01:50:231;-0.32561144;9.9790325;0.095768064
11:01:50:231;-0.32561144;9.9790325;0.095768064
11:01:50:231;-0.32561144;9.9790325;0.095768064
11:01:50:231;-0.32561144;9.9790325;0.095768064
11:01:50:231;-0.32561144;9.9790325;0.095768064
11:01:50:231;-0.32561144;9.9790325;0.095768064
11:01:50:231;-0.32561144;9.9790325;0.095768064
11:01:50:348;-0.22984336;9.749189;1.3024458
11:01:50:348;-0.22984336;9.749189;1.3024458
11:01:50:348;-0.22984336;9.749189;1.3024458
11:01:50:348;-0.22984336;9.749189;1.3024458
11:01:50:348;-0.22984336;9.749189;1.3024458
11:01:50:348;-0.22984336;9.749189;1.3024458
11:01:50:348;-0.22984336;9.749189;1.3024458
11:01:50:348;-0.22984336;9.749189;1.3024458
11:01:50:348;-0.22984336;9.749189;1.3024458
11:01:50:348;-0.22984336;9.749189;1.3024458
11:01:50:348;-0.22984336;9.749189;1.3024458
11:01:50:348;-0.22984336;9.749189;1.3024458
11:01:50:348;-0.22984336;9.749189;1.3024458
11:01:50:348;-0.22984336;9.749189;1.3024458
11:01:50:348;-0.22984336;9.749189;1.3024458
11:01:50:348;-0.22984336;9.749189;1.3024458
11:01:50:469;-0.8619126;10.630256;0.7086837
11:01:50:469;-0.8619126;10.630256;0.7086837
11:01:50:469;-0.8619126;10.630256;0.7086837
11:01:50:469;-0.8619126;10.630256;0.7086837
11:01:50:469;-0.8619126;10.630256;0.7086837
11:01:50:469;-0.8619126;10.630256;0.7086837
11:01:50:469;-0.8619126;10.630256;0.7086837
11:01:50:469;-0.8619126;10.630256;0.7086837
11:01:50:469;-0.8619126;10.630256;0.7086837
11:01:50:469;-0.8619126;10.630256;0.7086837
11:01:50:469;-0.8619126;10.630256;0.7086837
11:01:50:469;-0.8619126;10.630256;0.7086837
11:01:50:469;-0.8619126;10.630256;0.7086837
11:01:50:469;-0.8619126;10.630256;0.7086837
11:01:50:582;-0.45968673;9.615114;1.1492168
11:01:50:582;-0.45968673;9.615114;1.1492168
11:01:50:582;-0.45968673;9.615114;1.1492168
11:01:50:582;-0.45968673;9.615114;1.1492168
11:01:50:582;-0.45968673;9.615114;1.1492168
11:01:50:582;-0.45968673;9.615114;1.1492168
11:01:50:582;-0.45968673;9.615114;1.1492168
11:01:50:582;-0.45968673;9.615114;1.1492168
11:01:50:582;-0.45968673;9.615114;1.1492168
11:01:50:582;-0.45968673;9.615114;1.1492168
11:01:50:582;-0.45968673;9.615114;1.1492168
11:01:50:582;-0.45968673;9.615114;1.1492168
11:01:50:582;-0.45968673;9.615114;1.1492168
11:01:50:582;-0.45968673;9.615114;1.1492168
11:01:50:582;-0.45968673;9.615114;1.1492168
11:01:50:700;-0.11492168;9.481039;0.80445176
11:01:50:700;-0.11492168;9.481039;0.80445176
11:01:50:700;-0.11492168;9.481039;0.80445176
11:01:50:700;-0.11492168;9.481039;0.80445176
11:01:50:700;-0.11492168;9.481039;0.80445176
11:01:50:700;-0.11492168;9.481039;0.80445176
11:01:50:700;-0.11492168;9.481039;0.80445176
11:01:50:700;-0.11492168;9.481039;0.80445176
11:01:50:700;-0.11492168;9.481039;0.80445176
11:01:50:700;-0.11492168;9.481039;0.80445176
11:01:50:700;-0.11492168;9.481039;0.80445176
11:01:50:700;-0.11492168;9.481039;0.80445176
11:01:50:700;-0.11492168;9.481039;0.80445176
11:01:50:700;-0.11492168;9.481039;0.80445176
11:01:50:700;-0.11492168;9.481039;0.80445176
11:01:50:819;-0.51714754;10.132261;0.842759
11:01:50:819;-0.51714754;10.132261;0.842759
11:01:50:819;-0.51714754;10.132261;0.842759
11:01:50:819;-0.51714754;10.132261;0.842759
11:01:50:819;-0.51714754;10.132261;0.842759
11:01:50:819;-0.51714754;10.132261;0.842759
11:01:50:819;-0.51714754;10.132261;0.842759
11:01:50:819;-0.51714754;10.132261;0.842759
11:01:50:819;-0.51714754;10.132261;0.842759
11:01:50:819;-0.51714754;10.132261;0.842759
11:01:50:819;-0.51714754;10.132261;0.842759
11:01:50:819;-0.51714754;10.132261;0.842759
11:01:50:819;-0.51714754;10.132261;0.842759
11:01:50:819;-0.51714754;10.132261;0.842759
11:01:50:819;-0.51714754;10.132261;0.842759
11:01:50:936;-0.34476504;10.055647;0.90021986
11:01:50:936;-0.34476504;10.055647;0.90021986
11:01:50:936;-0.34476504;10.055647;0.90021986
11:01:50:936;-0.34476504;10.055647;0.90021986
11:01:50:936;-0.34476504;10.055647;0.90021986
11:01:50:936;-0.34476504;10.055647;0.90021986
11:01:50:936;-0.34476504;10.055647;0.90021986
11:01:50:936;-0.34476504;10.055647;0.90021986
11:01:50:936;-0.34476504;10.055647;0.90021986
11:01:50:936;-0.34476504;10.055647;0.90021986
11:01:50:936;-0.34476504;10.055647;0.90021986
11:01:50:936;-0.34476504;10.055647;0.90021986
11:01:50:936;-0.34476504;10.055647;0.90021986
11:01:51:037;-0.36391866;9.921572;0.91937345
11:01:51:037;-0.36391866;9.921572;0.91937345
11:01:51:037;-0.36391866;9.921572;0.91937345
11:01:51:037;-0.36391866;9.921572;0.91937345
11:01:51:037;-0.36391866;9.921572;0.91937345
11:01:51:037;-0.36391866;9.921572;0.91937345
11:01:51:037;-0.36391866;9.921572;0.91937345
11:01:51:037;-0.36391866;9.921572;0.91937345
11:01:51:037;-0.36391866;9.921572;0.91937345
11:01:51:037;-0.36391866;9.921572;0.91937345
11:01:51:037;-0.36391866;9.921572;0.91937345
11:01:51:037;-0.36391866;9.921572;0.91937345
11:01:51:037;-0.36391866;9.921572;0.91937345
11:01:51:037;-0.36391866;9.921572;0.91937345
11:01:51:037;-0.36391866;9.921572;0.91937345
11:01:51:156;-0.17238252;9.883265;0.8619126
11:01:51:156;-0.17238252;9.883265;0.8619126
11:01:51:156;-0.17238252;9.883265;0.8619126
11:01:51:156;-0.17238252;9.883265;0.8619126
11:01:51:156;-0.17238252;9.883265;0.8619126
11:01:51:156;-0.17238252;9.883265;0.8619126
11:01:51:156;-0.17238252;9.883265;0.8619126
11:01:51:156;-0.17238252;9.883265;0.8619126
11:01:51:156;-0.17238252;9.883265;0.8619126
11:01:51:156;-0.17238252;9.883265;0.8619126
11:01:51:156;-0.17238252;9.883265;0.8619126
11:01:51:156;-0.17238252;9.883265;0.8619126
11:01:51:156;-0.17238252;9.883265;0.8619126
11:01:51:156;-0.17238252;9.883265;0.8619126
11:01:51:156;-0.17238252;9.883265;0.8619126
11:01:51:271;-0.2873042;9.998186;1.3790601
11:01:51:271;-0.2873042;9.998186;1.3790601
11:01:51:271;-0.2873042;9.998186;1.3790601
11:01:51:271;-0.2873042;9.998186;1.3790601
11:01:51:271;-0.2873042;9.998186;1.3790601
11:01:51:271;-0.2873042;9.998186;1.3790601
11:01:51:271;-0.2873042;9.998186;1.3790601
11:01:51:271;-0.2873042;9.998186;1.3790601
11:01:51:271;-0.2873042;9.998186;1.3790601
11:01:51:271;-0.2873042;9.998186;1.3790601
11:01:51:271;-0.2873042;9.998186;1.3790601
11:01:51:271;-0.2873042;9.998186;1.3790601
11:01:51:271;-0.2873042;9.998186;1.3790601
11:01:51:372;-0.7469909;10.381259;1.2066777
11:01:51:372;-0.7469909;10.381259;1.2066777
11:01:51:372;-0.7469909;10.381259;1.2066777
11:01:51:372;-0.7469909;10.381259;1.2066777
11:01:51:372;-0.7469909;10.381259;1.2066777
11:01:51:372;-0.7469909;10.381259;1.2066777
11:01:51:372;-0.7469909;10.381259;1.2066777
11:01:51:372;-0.7469909;10.381259;1.2066777
11:01:51:372;-0.7469909;10.381259;1.2066777
11:01:51:372;-0.7469909;10.381259;1.2066777
11:01:51:372;-0.7469909;10.381259;1.2066777
11:01:51:372;-0.7469909;10.381259;1.2066777
11:01:51:372;-0.7469909;10.381259;1.2066777
11:01:51:372;-0.7469909;10.381259;1.2066777
11:01:51:372;-0.7469909;10.381259;1.2066777
11:01:51:486;-0.9768343;11.18571;1.1300632
11:01:51:486;-0.9768343;11.18571;1.1300632
11:01:51:486;-0.9768343;11.18571;1.1300632
11:01:51:486;-0.9768343;11.18571;1.1300632
11:01:51:486;-0.9768343;11.18571;1.1300632
11:01:51:486;-0.9768343;11.18571;1.1300632
11:01:51:486;-0.9768343;11.18571;1.1300632
11:01:51:486;-0.9768343;11.18571;1.1300632
11:01:51:486;-0.9768343;11.18571;1.1300632
11:01:51:486;-0.9768343;11.18571;1.1300632
11:01:51:486;-0.9768343;11.18571;1.1300632
11:01:51:486;-0.9768343;11.18571;1.1300632
11:01:51:486;-0.9768343;11.18571;1.1300632
11:01:51:486;-0.9768343;11.18571;1.1300632
11:01:51:486;-0.9768343;11.18571;1.1300632
11:01:51:605;0.63206923;9.059659;2.030283
11:01:51:605;0.63206923;9.059659;2.030283
11:01:51:605;0.63206923;9.059659;2.030283
11:01:51:605;0.63206923;9.059659;2.030283
11:01:51:605;0.63206923;9.059659;2.030283
11:01:51:605;0.63206923;9.059659;2.030283
11:01:51:605;0.63206923;9.059659;2.030283
11:01:51:605;0.63206923;9.059659;2.030283
11:01:51:605;0.63206923;9.059659;2.030283
11:01:51:605;0.63206923;9.059659;2.030283
11:01:51:605;0.63206923;9.059659;2.030283
11:01:51:605;0.63206923;9.059659;2.030283
11:01:51:605;0.63206923;9.059659;2.030283
11:01:51:605;0.63206923;9.059659;2.030283
11:01:51:605;0.63206923;9.059659;2.030283
11:01:51:720;0.61291564;9.653421;1.5514427
11:01:51:720;0.61291564;9.653421;1.5514427
11:01:51:720;0.61291564;9.653421;1.5514427
11:01:51:720;0.61291564;9.653421;1.5514427
11:01:51:720;0.61291564;9.653421;1.5514427
11:01:51:720;0.61291564;9.653421;1.5514427
11:01:51:720;0.61291564;9.653421;1.5514427
11:01:51:720;0.61291564;9.653421;1.5514427
11:01:51:720;0.61291564;9.653421;1.5514427
11:01:51:720;0.61291564;9.653421;1.5514427
11:01:51:720;0.61291564;9.653421;1.5514427
11:01:51:720;0.61291564;9.653421;1.5514427
11:01:51:720;0.61291564;9.653421;1.5514427
11:01:51:720;0.61291564;9.653421;1.5514427
11:01:51:720;0.61291564;9.653421;1.5514427
11:01:51:838;-0.2873042;10.170568;1.8387469
11:01:51:838;-0.2873042;10.170568;1.8387469
11:01:51:838;-0.2873042;10.170568;1.8387469
11:01:51:838;-0.2873042;10.170568;1.8387469
11:01:51:838;-0.2873042;10.170568;1.8387469
11:01:51:838;-0.2873042;10.170568;1.8387469
11:01:51:838;-0.2873042;10.170568;1.8387469
11:01:51:838;-0.2873042;10.170568;1.8387469
11:01:51:838;-0.2873042;10.170568;1.8387469
11:01:51:838;-0.2873042;10.170568;1.8387469
11:01:51:838;-0.2873042;10.170568;1.8387469
11:01:51:838;-0.2873042;10.170568;1.8387469
11:01:51:838;-0.2873042;10.170568;1.8387469
11:01:51:838;-0.2873042;10.170568;1.8387469
11:01:51:838;-0.2873042;10.170568;1.8387469
11:01:51:957;-0.6703765;10.994174;1.9919758
11:01:51:957;-0.6703765;10.994174;1.9919758
11:01:51:957;-0.6703765;10.994174;1.9919758
11:01:51:957;-0.6703765;10.994174;1.9919758
11:01:51:957;-0.6703765;10.994174;1.9919758
11:01:51:957;-0.6703765;10.994174;1.9919758
11:01:51:957;-0.6703765;10.994174;1.9919758
11:01:51:957;-0.6703765;10.994174;1.9919758
11:01:51:957;-0.6703765;10.994174;1.9919758
11:01:51:957;-0.6703765;10.994174;1.9919758
11:01:51:957;-0.6703765;10.994174;1.9919758
11:01:51:957;-0.6703765;10.994174;1.9919758
11:01:51:957;-0.6703765;10.994174;1.9919758
11:01:51:957;-0.6703765;10.994174;1.9919758
11:01:51:957;-0.6703765;10.994174;1.9919758
11:01:52:072;0.34476504;10.036493;1.9919758
11:01:52:072;0.34476504;10.036493;1.9919758
11:01:52:072;0.34476504;10.036493;1.9919758
11:01:52:072;0.34476504;10.036493;1.9919758
11:01:52:072;0.34476504;10.036493;1.9919758
11:01:52:072;0.34476504;10.036493;1.9919758
11:01:52:072;0.34476504;10.036493;1.9919758
11:01:52:072;0.34476504;10.036493;1.9919758
11:01:52:072;0.34476504;10.036493;1.9919758
11:01:52:072;0.34476504;10.036493;1.9919758
11:01:52:072;0.34476504;10.036493;1.9919758
11:01:52:072;0.34476504;10.036493;1.9919758
11:01:52:072;0.34476504;10.036493;1.9919758
11:01:52:072;0.34476504;10.036493;1.9919758
11:01:52:072;0.34476504;10.036493;1.9919758
11:01:52:190;1.091756;9.768343;1.8770541
11:01:52:190;1.091756;9.768343;1.8770541
11:01:52:190;1.091756;9.768343;1.8770541
11:01:52:190;1.091756;9.768343;1.8770541
11:01:52:190;1.091756;9.768343;1.8770541
11:01:52:190;1.091756;9.768343;1.8770541
11:01:52:190;1.091756;9.768343;1.8770541
11:01:52:190;1.091756;9.768343;1.8770541
11:01:52:190;1.091756;9.768343;1.8770541
11:01:52:190;1.091756;9.768343;1.8770541
11:01:52:190;1.091756;9.768343;1.8770541
11:01:52:190;1.091756;9.768343;1.8770541
11:01:52:190;1.091756;9.768343;1.8770541
11:01:52:190;1.091756;9.768343;1.8770541
11:01:52:190;1.091756;9.768343;1.8770541
11:01:52:307;0.7661445;9.634268;1.8962077
11:01:52:307;0.7661445;9.634268;1.8962077
11:01:52:307;0.7661445;9.634268;1.8962077
11:01:52:307;0.7661445;9.634268;1.8962077
11:01:52:307;0.7661445;9.634268;1.8962077
11:01:52:307;0.7661445;9.634268;1.8962077
11:01:52:307;0.7661445;9.634268;1.8962077
11:01:52:307;0.7661445;9.634268;1.8962077
11:01:52:307;0.7661445;9.634268;1.8962077
11:01:52:307;0.7661445;9.634268;1.8962077
11:01:52:307;0.7661445;9.634268;1.8962077
11:01:52:307;0.7661445;9.634268;1.8962077
11:01:52:307;0.7661445;9.634268;1.8962077
11:01:52:408;0.32561144;10.055647;1.9728222
11:01:52:408;0.32561144;10.055647;1.9728222
11:01:52:408;0.32561144;10.055647;1.9728222
11:01:52:408;0.32561144;10.055647;1.9728222
11:01:52:408;0.32561144;10.055647;1.9728222
11:01:52:408;0.32561144;10.055647;1.9728222
11:01:52:408;0.32561144;10.055647;1.9728222
11:01:52:408;0.32561144;10.055647;1.9728222
11:01:52:408;0.32561144;10.055647;1.9728222
11:01:52:408;0.32561144;10.055647;1.9728222
11:01:52:408;0.32561144;10.055647;1.9728222
11:01:52:408;0.32561144;10.055647;1.9728222
11:01:52:408;0.32561144;10.055647;1.9728222
11:01:52:408;0.32561144;10.055647;1.9728222
11:01:52:519;0.2873042;10.43872;1.5514427
11:01:52:519;0.2873042;10.43872;1.5514427
11:01:52:519;0.2873042;10.43872;1.5514427
11:01:52:519;0.2873042;10.43872;1.5514427
11:01:52:519;0.2873042;10.43872;1.5514427
11:01:52:519;0.2873042;10.43872;1.5514427
11:01:52:519;0.2873042;10.43872;1.5514427
11:01:52:519;0.2873042;10.43872;1.5514427
11:01:52:519;0.2873042;10.43872;1.5514427
11:01:52:519;0.2873042;10.43872;1.5514427
11:01:52:519;0.2873042;10.43872;1.5514427
11:01:52:519;0.2873042;10.43872;1.5514427
11:01:52:519;0.2873042;10.43872;1.5514427
11:01:52:519;0.2873042;10.43872;1.5514427
11:01:52:519;0.2873042;10.43872;1.5514427
11:01:52:639;0.36391866;9.710882;2.1068976
11:01:52:639;0.36391866;9.710882;2.1068976
11:01:52:639;0.36391866;9.710882;2.1068976
11:01:52:639;0.36391866;9.710882;2.1068976
11:01:52:639;0.36391866;9.710882;2.1068976
11:01:52:639;0.36391866;9.710882;2.1068976
11:01:52:639;0.36391866;9.710882;2.1068976
11:01:52:639;0.36391866;9.710882;2.1068976
11:01:52:639;0.36391866;9.710882;2.1068976
11:01:52:639;0.36391866;9.710882;2.1068976
11:01:52:639;0.36391866;9.710882;2.1068976
11:01:52:639;0.36391866;9.710882;2.1068976
11:01:52:639;0.36391866;9.710882;2.1068976
11:01:52:639;0.36391866;9.710882;2.1068976
11:01:52:639;0.36391866;9.710882;2.1068976
11:01:52:756;0.78529817;9.672575;1.8004397
11:01:52:756;0.78529817;9.672575;1.8004397
11:01:52:756;0.78529817;9.672575;1.8004397
11:01:52:756;0.78529817;9.672575;1.8004397
11:01:52:756;0.78529817;9.672575;1.8004397
11:01:52:756;0.78529817;9.672575;1.8004397
11:01:52:756;0.78529817;9.672575;1.8004397
11:01:52:756;0.78529817;9.672575;1.8004397
11:01:52:756;0.78529817;9.672575;1.8004397
11:01:52:756;0.78529817;9.672575;1.8004397
11:01:52:756;0.78529817;9.672575;1.8004397
11:01:52:756;0.78529817;9.672575;1.8004397
11:01:52:756;0.78529817;9.672575;1.8004397
11:01:52:756;0.78529817;9.672575;1.8004397
11:01:52:865;0.2873042;9.768343;1.8387469
11:01:52:865;0.2873042;9.768343;1.8387469
11:01:52:865;0.2873042;9.768343;1.8387469
11:01:52:865;0.2873042;9.768343;1.8387469
11:01:52:865;0.2873042;9.768343;1.8387469
11:01:52:865;0.2873042;9.768343;1.8387469
11:01:52:865;0.2873042;9.768343;1.8387469
11:01:52:865;0.2873042;9.768343;1.8387469
11:01:52:865;0.2873042;9.768343;1.8387469
11:01:52:865;0.2873042;9.768343;1.8387469
11:01:52:865;0.2873042;9.768343;1.8387469
11:01:52:865;0.2873042;9.768343;1.8387469
11:01:52:865;0.2873042;9.768343;1.8387469
11:01:52:865;0.2873042;9.768343;1.8387469
11:01:52:865;0.2873042;9.768343;1.8387469
11:01:52:865;0.2873042;9.768343;1.8387469
11:01:52:865;0.2873042;9.768343;1.8387469
11:01:52:999;0.5746084;10.247183;1.8579005
11:01:52:999;0.5746084;10.247183;1.8579005
11:01:52:999;0.5746084;10.247183;1.8579005
11:01:52:999;0.5746084;10.247183;1.8579005
11:01:52:999;0.5746084;10.247183;1.8579005
11:01:52:999;0.5746084;10.247183;1.8579005
11:01:52:999;0.5746084;10.247183;1.8579005
11:01:52:999;0.5746084;10.247183;1.8579005
11:01:52:999;0.5746084;10.247183;1.8579005
11:01:52:999;0.5746084;10.247183;1.8579005
11:01:52:999;0.5746084;10.247183;1.8579005
11:01:52:999;0.5746084;10.247183;1.8579005
11:01:52:999;0.5746084;10.247183;1.8579005
11:01:52:999;0.5746084;10.247183;1.8579005
11:01:52:999;0.5746084;10.247183;1.8579005
11:01:53:113;0.82360536;9.787497;1.4556746
11:01:53:113;0.82360536;9.787497;1.4556746
11:01:53:113;0.82360536;9.787497;1.4556746
11:01:53:113;0.82360536;9.787497;1.4556746
11:01:53:113;0.82360536;9.787497;1.4556746
11:01:53:113;0.82360536;9.787497;1.4556746
11:01:53:113;0.82360536;9.787497;1.4556746
11:01:53:113;0.82360536;9.787497;1.4556746
11:01:53:113;0.82360536;9.787497;1.4556746
11:01:53:113;0.82360536;9.787497;1.4556746
11:01:53:113;0.82360536;9.787497;1.4556746
11:01:53:113;0.82360536;9.787497;1.4556746
11:01:53:113;0.82360536;9.787497;1.4556746
11:01:53:113;0.82360536;9.787497;1.4556746
11:01:53:113;0.82360536;9.787497;1.4556746
11:01:53:113;0.82360536;9.787497;1.4556746
11:01:53:241;0.019153614;9.634268;1.1109096
11:01:53:241;0.019153614;9.634268;1.1109096
11:01:53:241;0.019153614;9.634268;1.1109096
11:01:53:241;0.019153614;9.634268;1.1109096
11:01:53:241;0.019153614;9.634268;1.1109096
11:01:53:241;0.019153614;9.634268;1.1109096
11:01:53:241;0.019153614;9.634268;1.1109096
11:01:53:241;0.019153614;9.634268;1.1109096
11:01:53:241;0.019153614;9.634268;1.1109096
11:01:53:241;0.019153614;9.634268;1.1109096
11:01:53:241;0.019153614;9.634268;1.1109096
11:01:53:241;0.019153614;9.634268;1.1109096
11:01:53:241;0.019153614;9.634268;1.1109096
11:01:53:241;0.019153614;9.634268;1.1109096
11:01:53:241;0.019153614;9.634268;1.1109096
11:01:53:241;0.019153614;9.634268;1.1109096
11:01:53:241;0.019153614;9.634268;1.1109096
11:01:53:372;-0.076614454;10.28549;1.9728222
11:01:53:372;-0.076614454;10.28549;1.9728222
11:01:53:372;-0.076614454;10.28549;1.9728222
11:01:53:372;-0.076614454;10.28549;1.9728222
11:01:53:372;-0.076614454;10.28549;1.9728222
11:01:53:372;-0.076614454;10.28549;1.9728222
11:01:53:372;-0.076614454;10.28549;1.9728222
11:01:53:372;-0.076614454;10.28549;1.9728222
11:01:53:372;-0.076614454;10.28549;1.9728222
11:01:53:372;-0.076614454;10.28549;1.9728222
11:01:53:372;-0.076614454;10.28549;1.9728222
11:01:53:372;-0.076614454;10.28549;1.9728222
11:01:53:372;-0.076614454;10.28549;1.9728222
11:01:53:372;-0.076614454;10.28549;1.9728222
11:01:53:484;-0.1340753;9.481039;3.4284968
11:01:53:484;-0.1340753;9.481039;3.4284968
11:01:53:484;-0.1340753;9.481039;3.4284968
11:01:53:484;-0.1340753;9.481039;3.4284968
11:01:53:484;-0.1340753;9.481039;3.4284968
11:01:53:484;-0.1340753;9.481039;3.4284968
11:01:53:484;-0.1340753;9.481039;3.4284968
11:01:53:484;-0.1340753;9.481039;3.4284968
11:01:53:484;-0.1340753;9.481039;3.4284968
11:01:53:484;-0.1340753;9.481039;3.4284968
11:01:53:484;-0.1340753;9.481039;3.4284968
11:01:53:484;-0.1340753;9.481039;3.4284968
11:01:53:484;-0.1340753;9.481039;3.4284968
11:01:53:484;-0.1340753;9.481039;3.4284968
11:01:53:484;-0.1340753;9.481039;3.4284968
11:01:53:601;-0.076614454;8.963891;3.217807
11:01:53:601;-0.076614454;8.963891;3.217807
11:01:53:601;-0.076614454;8.963891;3.217807
11:01:53:601;-0.076614454;8.963891;3.217807
11:01:53:601;-0.076614454;8.963891;3.217807
11:01:53:601;-0.076614454;8.963891;3.217807
11:01:53:601;-0.076614454;8.963891;3.217807
11:01:53:601;-0.076614454;8.963891;3.217807
11:01:53:601;-0.076614454;8.963891;3.217807
11:01:53:601;-0.076614454;8.963891;3.217807
11:01:53:601;-0.076614454;8.963891;3.217807
11:01:53:601;-0.076614454;8.963891;3.217807
11:01:53:601;-0.076614454;8.963891;3.217807
11:01:53:701;0.21068975;9.289502;2.3942018
11:01:53:701;0.21068975;9.289502;2.3942018
11:01:53:701;0.21068975;9.289502;2.3942018
11:01:53:701;0.21068975;9.289502;2.3942018
11:01:53:701;0.21068975;9.289502;2.3942018
11:01:53:701;0.21068975;9.289502;2.3942018
11:01:53:701;0.21068975;9.289502;2.3942018
11:01:53:701;0.21068975;9.289502;2.3942018
11:01:53:701;0.21068975;9.289502;2.3942018
11:01:53:701;0.21068975;9.289502;2.3942018
11:01:53:701;0.21068975;9.289502;2.3942018
11:01:53:701;0.21068975;9.289502;2.3942018
11:01:53:701;0.21068975;9.289502;2.3942018
11:01:53:701;0.21068975;9.289502;2.3942018
11:01:53:701;0.21068975;9.289502;2.3942018
11:01:53:820;0.36391866;10.534488;1.0534488
11:01:53:820;0.36391866;10.534488;1.0534488
11:01:53:820;0.36391866;10.534488;1.0534488
11:01:53:820;0.36391866;10.534488;1.0534488
11:01:53:820;0.36391866;10.534488;1.0534488
11:01:53:820;0.36391866;10.534488;1.0534488
11:01:53:820;0.36391866;10.534488;1.0534488
11:01:53:820;0.36391866;10.534488;1.0534488
11:01:53:820;0.36391866;10.534488;1.0534488
11:01:53:820;0.36391866;10.534488;1.0534488
11:01:53:820;0.36391866;10.534488;1.0534488
11:01:53:820;0.36391866;10.534488;1.0534488
11:01:53:820;0.36391866;10.534488;1.0534488
11:01:53:820;0.36391866;10.534488;1.0534488
11:01:53:820;0.36391866;10.534488;1.0534488
11:01:53:820;0.36391866;10.534488;1.0534488
11:01:53:943;0.38307226;9.672575;2.27928
11:01:53:943;0.38307226;9.672575;2.27928
11:01:53:943;0.38307226;9.672575;2.27928
11:01:53:943;0.38307226;9.672575;2.27928
11:01:53:943;0.38307226;9.672575;2.27928
11:01:53:943;0.38307226;9.672575;2.27928
11:01:53:943;0.38307226;9.672575;2.27928
11:01:53:943;0.38307226;9.672575;2.27928
11:01:53:943;0.38307226;9.672575;2.27928
11:01:53:943;0.38307226;9.672575;2.27928
11:01:53:943;0.38307226;9.672575;2.27928
11:01:53:943;0.38307226;9.672575;2.27928
11:01:53:943;0.38307226;9.672575;2.27928
11:01:53:943;0.38307226;9.672575;2.27928
11:01:54:051;0.61291564;9.212888;2.4708161
11:01:54:051;0.61291564;9.212888;2.4708161
11:01:54:051;0.61291564;9.212888;2.4708161
11:01:54:051;0.61291564;9.212888;2.4708161
11:01:54:051;0.61291564;9.212888;2.4708161
11:01:54:051;0.61291564;9.212888;2.4708161
11:01:54:051;0.61291564;9.212888;2.4708161
11:01:54:051;0.61291564;9.212888;2.4708161
11:01:54:051;0.61291564;9.212888;2.4708161
11:01:54:051;0.61291564;9.212888;2.4708161
11:01:54:051;0.61291564;9.212888;2.4708161
11:01:54:051;0.61291564;9.212888;2.4708161
11:01:54:051;0.61291564;9.212888;2.4708161
11:01:54:051;0.61291564;9.212888;2.4708161
11:01:54:051;0.61291564;9.212888;2.4708161
11:01:54:051;0.61291564;9.212888;2.4708161
11:01:54:051;0.61291564;9.212888;2.4708161
11:01:54:051;0.61291564;9.212888;2.4708161
11:01:54:051;0.61291564;9.212888;2.4708161
11:01:54:051;0.61291564;9.212888;2.4708161
11:01:54:051;0.61291564;9.212888;2.4708161
11:01:54:051;0.61291564;9.212888;2.4708161
11:01:54:220;-0.038307227;9.864111;2.3942018
11:01:54:220;-0.038307227;9.864111;2.3942018
11:01:54:220;-0.038307227;9.864111;2.3942018
11:01:54:220;-0.038307227;9.864111;2.3942018
11:01:54:220;-0.038307227;9.864111;2.3942018
11:01:54:220;-0.038307227;9.864111;2.3942018
11:01:54:220;-0.038307227;9.864111;2.3942018
11:01:54:220;-0.038307227;9.864111;2.3942018
11:01:54:220;-0.038307227;9.864111;2.3942018
11:01:54:220;-0.038307227;9.864111;2.3942018
11:01:54:220;-0.038307227;9.864111;2.3942018
11:01:54:220;-0.038307227;9.864111;2.3942018
11:01:54:220;-0.038307227;9.864111;2.3942018
11:01:54:324;-0.38307226;10.093954;2.6431987
11:01:54:324;-0.38307226;10.093954;2.6431987
11:01:54:324;-0.38307226;10.093954;2.6431987
11:01:54:324;-0.38307226;10.093954;2.6431987
11:01:54:324;-0.38307226;10.093954;2.6431987
11:01:54:324;-0.38307226;10.093954;2.6431987
11:01:54:324;-0.38307226;10.093954;2.6431987
11:01:54:324;-0.38307226;10.093954;2.6431987
11:01:54:324;-0.38307226;10.093954;2.6431987
11:01:54:324;-0.38307226;10.093954;2.6431987
11:01:54:324;-0.38307226;10.093954;2.6431987
11:01:54:324;-0.38307226;10.093954;2.6431987
11:01:54:324;-0.38307226;10.093954;2.6431987
11:01:54:324;-0.38307226;10.093954;2.6431987
11:01:54:324;-0.38307226;10.093954;2.6431987
11:01:54:442;0.15322891;9.500193;2.7389667
11:01:54:442;0.15322891;9.500193;2.7389667
11:01:54:442;0.15322891;9.500193;2.7389667
11:01:54:442;0.15322891;9.500193;2.7389667
11:01:54:442;0.15322891;9.500193;2.7389667
11:01:54:442;0.15322891;9.500193;2.7389667
11:01:54:442;0.15322891;9.500193;2.7389667
11:01:54:442;0.15322891;9.500193;2.7389667
11:01:54:442;0.15322891;9.500193;2.7389667
11:01:54:442;0.15322891;9.500193;2.7389667
11:01:54:442;0.15322891;9.500193;2.7389667
11:01:54:442;0.15322891;9.500193;2.7389667
11:01:54:442;0.15322891;9.500193;2.7389667
11:01:54:442;0.15322891;9.500193;2.7389667
11:01:54:442;0.15322891;9.500193;2.7389667
11:01:54:442;0.15322891;9.500193;2.7389667
11:01:54:563;0.32561144;10.496181;0.32561144
11:01:54:563;0.32561144;10.496181;0.32561144
11:01:54:563;0.32561144;10.496181;0.32561144
11:01:54:563;0.32561144;10.496181;0.32561144
11:01:54:563;0.32561144;10.496181;0.32561144
11:01:54:563;0.32561144;10.496181;0.32561144
11:01:54:563;0.32561144;10.496181;0.32561144
11:01:54:563;0.32561144;10.496181;0.32561144
11:01:54:563;0.32561144;10.496181;0.32561144
11:01:54:563;0.32561144;10.496181;0.32561144
11:01:54:563;0.32561144;10.496181;0.32561144
11:01:54:563;0.32561144;10.496181;0.32561144
11:01:54:563;0.32561144;10.496181;0.32561144
11:01:54:563;0.32561144;10.496181;0.32561144
11:01:54:679;0.095768064;9.193734;1.5514427
11:01:54:679;0.095768064;9.193734;1.5514427
11:01:54:679;0.095768064;9.193734;1.5514427
11:01:54:679;0.095768064;9.193734;1.5514427
11:01:54:679;0.095768064;9.193734;1.5514427
11:01:54:679;0.095768064;9.193734;1.5514427
11:01:54:679;0.095768064;9.193734;1.5514427
11:01:54:679;0.095768064;9.193734;1.5514427
11:01:54:679;0.095768064;9.193734;1.5514427
11:01:54:679;0.095768064;9.193734;1.5514427
11:01:54:679;0.095768064;9.193734;1.5514427
11:01:54:679;0.095768064;9.193734;1.5514427
11:01:54:679;0.095768064;9.193734;1.5514427
11:01:54:679;0.095768064;9.193734;1.5514427
11:01:54:679;0.095768064;9.193734;1.5514427
11:01:54:796;-0.19153613;10.036493;1.3024458
11:01:54:796;-0.19153613;10.036493;1.3024458
11:01:54:796;-0.19153613;10.036493;1.3024458
11:01:54:796;-0.19153613;10.036493;1.3024458
11:01:54:796;-0.19153613;10.036493;1.3024458
11:01:54:796;-0.19153613;10.036493;1.3024458
11:01:54:796;-0.19153613;10.036493;1.3024458
11:01:54:796;-0.19153613;10.036493;1.3024458
11:01:54:796;-0.19153613;10.036493;1.3024458
11:01:54:796;-0.19153613;10.036493;1.3024458
11:01:54:796;-0.19153613;10.036493;1.3024458
11:01:54:796;-0.19153613;10.036493;1.3024458
11:01:54:796;-0.19153613;10.036493;1.3024458
11:01:54:796;-0.19153613;10.036493;1.3024458
11:01:54:796;-0.19153613;10.036493;1.3024458
11:01:54:796;-0.19153613;10.036493;1.3024458
11:01:54:796;-0.19153613;10.036493;1.3024458
11:01:54:924;-0.2681506;9.32781;2.1643584
11:01:54:924;-0.2681506;9.32781;2.1643584
11:01:54:924;-0.2681506;9.32781;2.1643584
11:01:54:924;-0.2681506;9.32781;2.1643584
11:01:54:924;-0.2681506;9.32781;2.1643584
11:01:54:924;-0.2681506;9.32781;2.1643584
11:01:54:924;-0.2681506;9.32781;2.1643584
11:01:54:924;-0.2681506;9.32781;2.1643584
