Time_Accel;AccelX;AccelY;AccelZ
11:25:30:717;0.5746084;9.921572;0.61291564
11:25:30:717;0.5746084;9.921572;0.61291564
11:25:30:717;0.5746084;9.921572;0.61291564
11:25:30:717;0.5746084;9.921572;0.61291564
11:25:30:717;0.5746084;9.921572;0.61291564
11:25:30:831;1.2258313;9.787497;-0.22984336
11:25:30:831;1.2258313;9.787497;-0.22984336
11:25:30:831;1.2258313;9.787497;-0.22984336
11:25:30:831;1.2258313;9.787497;-0.22984336
11:25:30:831;1.2258313;9.787497;-0.22984336
11:25:30:831;1.2258313;9.787497;-0.22984336
11:25:30:831;1.2258313;9.787497;-0.22984336
11:25:30:831;1.2258313;9.787497;-0.22984336
11:25:30:831;1.2258313;9.787497;-0.22984336
11:25:30:831;1.2258313;9.787497;-0.22984336
11:25:30:831;1.2258313;9.787497;-0.22984336
11:25:30:831;1.2258313;9.787497;-0.22984336
11:25:30:831;1.2258313;9.787497;-0.22984336
11:25:30:831;1.2258313;9.787497;-0.22984336
11:25:30:831;1.2258313;9.787497;-0.22984336
11:25:30:949;0.82360536;9.80665;-0.38307226
11:25:30:949;0.82360536;9.80665;-0.38307226
11:25:30:949;0.82360536;9.80665;-0.38307226
11:25:30:949;0.82360536;9.80665;-0.38307226
11:25:30:949;0.82360536;9.80665;-0.38307226
11:25:30:949;0.82360536;9.80665;-0.38307226
11:25:30:949;0.82360536;9.80665;-0.38307226
11:25:30:949;0.82360536;9.80665;-0.38307226
11:25:30:949;0.82360536;9.80665;-0.38307226
11:25:30:949;0.82360536;9.80665;-0.38307226
11:25:30:949;0.82360536;9.80665;-0.38307226
11:25:30:949;0.82360536;9.80665;-0.38307226
11:25:30:949;0.82360536;9.80665;-0.38307226
11:25:30:949;0.82360536;9.80665;-0.38307226
11:25:30:949;0.82360536;9.80665;-0.38307226
11:25:31:066;0.8619126;9.768343;0.076614454
11:25:31:066;0.8619126;9.768343;0.076614454
11:25:31:066;0.8619126;9.768343;0.076614454
11:25:31:066;0.8619126;9.768343;0.076614454
11:25:31:066;0.8619126;9.768343;0.076614454
11:25:31:066;0.8619126;9.768343;0.076614454
11:25:31:066;0.8619126;9.768343;0.076614454
11:25:31:066;0.8619126;9.768343;0.076614454
11:25:31:066;0.8619126;9.768343;0.076614454
11:25:31:066;0.8619126;9.768343;0.076614454
11:25:31:066;0.8619126;9.768343;0.076614454
11:25:31:066;0.8619126;9.768343;0.076614454
11:25:31:066;0.8619126;9.768343;0.076614454
11:25:31:167;0.38307226;10.840945;0.90021986
11:25:31:167;0.38307226;10.840945;0.90021986
11:25:31:167;0.38307226;10.840945;0.90021986
11:25:31:167;0.38307226;10.840945;0.90021986
11:25:31:167;0.38307226;10.840945;0.90021986
11:25:31:167;0.38307226;10.840945;0.90021986
11:25:31:167;0.38307226;10.840945;0.90021986
11:25:31:167;0.38307226;10.840945;0.90021986
11:25:31:167;0.38307226;10.840945;0.90021986
11:25:31:167;0.38307226;10.840945;0.90021986
11:25:31:167;0.38307226;10.840945;0.90021986
11:25:31:167;0.38307226;10.840945;0.90021986
11:25:31:167;0.38307226;10.840945;0.90021986
11:25:31:167;0.38307226;10.840945;0.90021986
11:25:31:167;0.38307226;10.840945;0.90021986
11:25:31:283;0.8810662;10.362105;-0.5363012
11:25:31:283;0.8810662;10.362105;-0.5363012
11:25:31:283;0.8810662;10.362105;-0.5363012
11:25:31:283;0.8810662;10.362105;-0.5363012
11:25:31:283;0.8810662;10.362105;-0.5363012
11:25:31:283;0.8810662;10.362105;-0.5363012
11:25:31:283;0.8810662;10.362105;-0.5363012
11:25:31:283;0.8810662;10.362105;-0.5363012
11:25:31:283;0.8810662;10.362105;-0.5363012
11:25:31:283;0.8810662;10.362105;-0.5363012
11:25:31:283;0.8810662;10.362105;-0.5363012
11:25:31:283;0.8810662;10.362105;-0.5363012
11:25:31:283;0.8810662;10.362105;-0.5363012
11:25:31:387;0.93852705;10.0748005;0.21068975
11:25:31:387;0.93852705;10.0748005;0.21068975
11:25:31:387;0.93852705;10.0748005;0.21068975
11:25:31:387;0.93852705;10.0748005;0.21068975
11:25:31:387;0.93852705;10.0748005;0.21068975
11:25:31:387;0.93852705;10.0748005;0.21068975
11:25:31:387;0.93852705;10.0748005;0.21068975
11:25:31:387;0.93852705;10.0748005;0.21068975
11:25:31:387;0.93852705;10.0748005;0.21068975
11:25:31:387;0.93852705;10.0748005;0.21068975
11:25:31:387;0.93852705;10.0748005;0.21068975
11:25:31:387;0.93852705;10.0748005;0.21068975
11:25:31:387;0.93852705;10.0748005;0.21068975
11:25:31:387;0.93852705;10.0748005;0.21068975
11:25:31:493;0.6512229;8.944737;0.17238252
11:25:31:493;0.6512229;8.944737;0.17238252
11:25:31:493;0.6512229;8.944737;0.17238252
11:25:31:493;0.6512229;8.944737;0.17238252
11:25:31:493;0.6512229;8.944737;0.17238252
11:25:31:493;0.6512229;8.944737;0.17238252
11:25:31:493;0.6512229;8.944737;0.17238252
11:25:31:493;0.6512229;8.944737;0.17238252
11:25:31:493;0.6512229;8.944737;0.17238252
11:25:31:493;0.6512229;8.944737;0.17238252
11:25:31:493;0.6512229;8.944737;0.17238252
11:25:31:493;0.6512229;8.944737;0.17238252
11:25:31:493;0.6512229;8.944737;0.17238252
11:25:31:599;1.1875241;9.940725;0.82360536
11:25:31:599;1.1875241;9.940725;0.82360536
11:25:31:599;1.1875241;9.940725;0.82360536
11:25:31:599;1.1875241;9.940725;0.82360536
11:25:31:599;1.1875241;9.940725;0.82360536
11:25:31:599;1.1875241;9.940725;0.82360536
11:25:31:599;1.1875241;9.940725;0.82360536
11:25:31:599;1.1875241;9.940725;0.82360536
11:25:31:599;1.1875241;9.940725;0.82360536
11:25:31:599;1.1875241;9.940725;0.82360536
11:25:31:599;1.1875241;9.940725;0.82360536
11:25:31:599;1.1875241;9.940725;0.82360536
11:25:31:599;1.1875241;9.940725;0.82360536
11:25:31:702;0.47884035;10.572795;0.30645782
11:25:31:702;0.47884035;10.572795;0.30645782
11:25:31:702;0.47884035;10.572795;0.30645782
11:25:31:702;0.47884035;10.572795;0.30645782
11:25:31:702;0.47884035;10.572795;0.30645782
11:25:31:702;0.47884035;10.572795;0.30645782
11:25:31:702;0.47884035;10.572795;0.30645782
11:25:31:702;0.47884035;10.572795;0.30645782
11:25:31:702;0.47884035;10.572795;0.30645782
11:25:31:702;0.47884035;10.572795;0.30645782
11:25:31:702;0.47884035;10.572795;0.30645782
11:25:31:702;0.47884035;10.572795;0.30645782
11:25:31:702;0.47884035;10.572795;0.30645782
11:25:31:702;0.47884035;10.572795;0.30645782
11:25:31:702;0.47884035;10.572795;0.30645782
11:25:31:820;0.9768343;10.611102;0.6895301
11:25:31:820;0.9768343;10.611102;0.6895301
11:25:31:820;0.9768343;10.611102;0.6895301
11:25:31:820;0.9768343;10.611102;0.6895301
11:25:31:820;0.9768343;10.611102;0.6895301
11:25:31:820;0.9768343;10.611102;0.6895301
11:25:31:820;0.9768343;10.611102;0.6895301
11:25:31:820;0.9768343;10.611102;0.6895301
11:25:31:820;0.9768343;10.611102;0.6895301
11:25:31:820;0.9768343;10.611102;0.6895301
11:25:31:820;0.9768343;10.611102;0.6895301
11:25:31:820;0.9768343;10.611102;0.6895301
11:25:31:820;0.9768343;10.611102;0.6895301
11:25:31:820;0.9768343;10.611102;0.6895301
11:25:31:820;0.9768343;10.611102;0.6895301
11:25:31:930;1.1492168;9.136273;-0.5554548
11:25:31:930;1.1492168;9.136273;-0.5554548
11:25:31:930;1.1492168;9.136273;-0.5554548
11:25:31:930;1.1492168;9.136273;-0.5554548
11:25:31:930;1.1492168;9.136273;-0.5554548
11:25:31:930;1.1492168;9.136273;-0.5554548
11:25:31:930;1.1492168;9.136273;-0.5554548
11:25:31:930;1.1492168;9.136273;-0.5554548
11:25:31:930;1.1492168;9.136273;-0.5554548
11:25:31:930;1.1492168;9.136273;-0.5554548
11:25:31:930;1.1492168;9.136273;-0.5554548
11:25:31:930;1.1492168;9.136273;-0.5554548
11:25:31:930;1.1492168;9.136273;-0.5554548
11:25:32:035;1.1875241;8.983045;-1.3215994
11:25:32:035;1.1875241;8.983045;-1.3215994
11:25:32:035;1.1875241;8.983045;-1.3215994
11:25:32:035;1.1875241;8.983045;-1.3215994
11:25:32:035;1.1875241;8.983045;-1.3215994
11:25:32:035;1.1875241;8.983045;-1.3215994
11:25:32:035;1.1875241;8.983045;-1.3215994
11:25:32:035;1.1875241;8.983045;-1.3215994
11:25:32:035;1.1875241;8.983045;-1.3215994
11:25:32:035;1.1875241;8.983045;-1.3215994
11:25:32:035;1.1875241;8.983045;-1.3215994
11:25:32:035;1.1875241;8.983045;-1.3215994
11:25:32:035;1.1875241;8.983045;-1.3215994
11:25:32:139;-0.38307226;10.323798;0.45968673
11:25:32:139;-0.38307226;10.323798;0.45968673
11:25:32:139;-0.38307226;10.323798;0.45968673
11:25:32:139;-0.38307226;10.323798;0.45968673
11:25:32:139;-0.38307226;10.323798;0.45968673
11:25:32:139;-0.38307226;10.323798;0.45968673
11:25:32:139;-0.38307226;10.323798;0.45968673
11:25:32:139;-0.38307226;10.323798;0.45968673
11:25:32:139;-0.38307226;10.323798;0.45968673
11:25:32:139;-0.38307226;10.323798;0.45968673
11:25:32:139;-0.38307226;10.323798;0.45968673
11:25:32:139;-0.38307226;10.323798;0.45968673
11:25:32:139;-0.38307226;10.323798;0.45968673
11:25:32:139;-0.38307226;10.323798;0.45968673
11:25:32:250;0.7661445;10.515334;0.6895301
11:25:32:250;0.7661445;10.515334;0.6895301
11:25:32:250;0.7661445;10.515334;0.6895301
11:25:32:250;0.7661445;10.515334;0.6895301
11:25:32:250;0.7661445;10.515334;0.6895301
11:25:32:250;0.7661445;10.515334;0.6895301
11:25:32:250;0.7661445;10.515334;0.6895301
11:25:32:250;0.7661445;10.515334;0.6895301
11:25:32:250;0.7661445;10.515334;0.6895301
11:25:32:250;0.7661445;10.515334;0.6895301
11:25:32:250;0.7661445;10.515334;0.6895301
11:25:32:250;0.7661445;10.515334;0.6895301
11:25:32:250;0.7661445;10.515334;0.6895301
11:25:32:250;0.7661445;10.515334;0.6895301
11:25:32:250;0.7661445;10.515334;0.6895301
11:25:32:361;0.40222588;10.323798;0.7469909
11:25:32:361;0.40222588;10.323798;0.7469909
11:25:32:361;0.40222588;10.323798;0.7469909
11:25:32:361;0.40222588;10.323798;0.7469909
11:25:32:361;0.40222588;10.323798;0.7469909
11:25:32:361;0.40222588;10.323798;0.7469909
11:25:32:361;0.40222588;10.323798;0.7469909
11:25:32:361;0.40222588;10.323798;0.7469909
11:25:32:361;0.40222588;10.323798;0.7469909
11:25:32:361;0.40222588;10.323798;0.7469909
11:25:32:361;0.40222588;10.323798;0.7469909
11:25:32:361;0.40222588;10.323798;0.7469909
11:25:32:361;0.40222588;10.323798;0.7469909
11:25:32:464;0.30645782;9.730036;-0.4405331
11:25:32:464;0.30645782;9.730036;-0.4405331
11:25:32:464;0.30645782;9.730036;-0.4405331
11:25:32:464;0.30645782;9.730036;-0.4405331
11:25:32:464;0.30645782;9.730036;-0.4405331
11:25:32:464;0.30645782;9.730036;-0.4405331
11:25:32:464;0.30645782;9.730036;-0.4405331
11:25:32:464;0.30645782;9.730036;-0.4405331
11:25:32:464;0.30645782;9.730036;-0.4405331
11:25:32:464;0.30645782;9.730036;-0.4405331
11:25:32:464;0.30645782;9.730036;-0.4405331
11:25:32:464;0.30645782;9.730036;-0.4405331
11:25:32:464;0.30645782;9.730036;-0.4405331
11:25:32:464;0.30645782;9.730036;-0.4405331
11:25:32:464;0.30645782;9.730036;-0.4405331
11:25:32:582;-0.17238252;8.944737;0.7278373
11:25:32:582;-0.17238252;8.944737;0.7278373
11:25:32:582;-0.17238252;8.944737;0.7278373
11:25:32:582;-0.17238252;8.944737;0.7278373
11:25:32:582;-0.17238252;8.944737;0.7278373
11:25:32:582;-0.17238252;8.944737;0.7278373
11:25:32:582;-0.17238252;8.944737;0.7278373
11:25:32:582;-0.17238252;8.944737;0.7278373
11:25:32:582;-0.17238252;8.944737;0.7278373
11:25:32:582;-0.17238252;8.944737;0.7278373
11:25:32:582;-0.17238252;8.944737;0.7278373
11:25:32:582;-0.17238252;8.944737;0.7278373
11:25:32:582;-0.17238252;8.944737;0.7278373
11:25:32:582;-0.17238252;8.944737;0.7278373
11:25:32:582;-0.17238252;8.944737;0.7278373
11:25:32:699;0.15322891;10.936713;1.2258313
11:25:32:699;0.15322891;10.936713;1.2258313
11:25:32:699;0.15322891;10.936713;1.2258313
11:25:32:699;0.15322891;10.936713;1.2258313
11:25:32:699;0.15322891;10.936713;1.2258313
11:25:32:699;0.15322891;10.936713;1.2258313
11:25:32:699;0.15322891;10.936713;1.2258313
11:25:32:699;0.15322891;10.936713;1.2258313
11:25:32:699;0.15322891;10.936713;1.2258313
11:25:32:699;0.15322891;10.936713;1.2258313
11:25:32:699;0.15322891;10.936713;1.2258313
11:25:32:699;0.15322891;10.936713;1.2258313
11:25:32:699;0.15322891;10.936713;1.2258313
11:25:32:699;0.15322891;10.936713;1.2258313
11:25:32:699;0.15322891;10.936713;1.2258313
11:25:32:816;0.6512229;9.940725;-0.19153613
11:25:32:816;0.6512229;9.940725;-0.19153613
11:25:32:816;0.6512229;9.940725;-0.19153613
11:25:32:816;0.6512229;9.940725;-0.19153613
11:25:32:816;0.6512229;9.940725;-0.19153613
11:25:32:816;0.6512229;9.940725;-0.19153613
11:25:32:816;0.6512229;9.940725;-0.19153613
11:25:32:816;0.6512229;9.940725;-0.19153613
11:25:32:816;0.6512229;9.940725;-0.19153613
11:25:32:816;0.6512229;9.940725;-0.19153613
11:25:32:816;0.6512229;9.940725;-0.19153613
11:25:32:816;0.6512229;9.940725;-0.19153613
11:25:32:816;0.6512229;9.940725;-0.19153613
11:25:32:816;0.6512229;9.940725;-0.19153613
11:25:32:816;0.6512229;9.940725;-0.19153613
11:25:32:934;0.5554548;10.840945;-0.19153613
11:25:32:934;0.5554548;10.840945;-0.19153613
11:25:32:934;0.5554548;10.840945;-0.19153613
11:25:32:934;0.5554548;10.840945;-0.19153613
11:25:32:934;0.5554548;10.840945;-0.19153613
11:25:32:934;0.5554548;10.840945;-0.19153613
11:25:32:934;0.5554548;10.840945;-0.19153613
11:25:32:934;0.5554548;10.840945;-0.19153613
11:25:32:934;0.5554548;10.840945;-0.19153613
11:25:32:934;0.5554548;10.840945;-0.19153613
11:25:32:934;0.5554548;10.840945;-0.19153613
11:25:32:934;0.5554548;10.840945;-0.19153613
11:25:32:934;0.5554548;10.840945;-0.19153613
11:25:32:934;0.5554548;10.840945;-0.19153613
11:25:32:934;0.5554548;10.840945;-0.19153613
11:25:33:050;0.7086837;10.266336;-0.095768064
11:25:33:050;0.7086837;10.266336;-0.095768064
11:25:33:050;0.7086837;10.266336;-0.095768064
11:25:33:050;0.7086837;10.266336;-0.095768064
11:25:33:050;0.7086837;10.266336;-0.095768064
11:25:33:050;0.7086837;10.266336;-0.095768064
11:25:33:050;0.7086837;10.266336;-0.095768064
11:25:33:050;0.7086837;10.266336;-0.095768064
11:25:33:050;0.7086837;10.266336;-0.095768064
11:25:33:050;0.7086837;10.266336;-0.095768064
11:25:33:050;0.7086837;10.266336;-0.095768064
11:25:33:050;0.7086837;10.266336;-0.095768064
11:25:33:050;0.7086837;10.266336;-0.095768064
11:25:33:050;0.7086837;10.266336;-0.095768064
11:25:33:050;0.7086837;10.266336;-0.095768064
11:25:33:169;0.90021986;8.734048;0.6895301
11:25:33:169;0.90021986;8.734048;0.6895301
11:25:33:169;0.90021986;8.734048;0.6895301
11:25:33:169;0.90021986;8.734048;0.6895301
11:25:33:169;0.90021986;8.734048;0.6895301
11:25:33:169;0.90021986;8.734048;0.6895301
11:25:33:169;0.90021986;8.734048;0.6895301
11:25:33:169;0.90021986;8.734048;0.6895301
11:25:33:169;0.90021986;8.734048;0.6895301
11:25:33:169;0.90021986;8.734048;0.6895301
11:25:33:169;0.90021986;8.734048;0.6895301
11:25:33:169;0.90021986;8.734048;0.6895301
11:25:33:169;0.90021986;8.734048;0.6895301
11:25:33:169;0.90021986;8.734048;0.6895301
11:25:33:169;0.90021986;8.734048;0.6895301
11:25:33:284;0.5554548;10.649409;-0.019153614
11:25:33:284;0.5554548;10.649409;-0.019153614
11:25:33:284;0.5554548;10.649409;-0.019153614
11:25:33:284;0.5554548;10.649409;-0.019153614
11:25:33:284;0.5554548;10.649409;-0.019153614
11:25:33:284;0.5554548;10.649409;-0.019153614
11:25:33:284;0.5554548;10.649409;-0.019153614
11:25:33:284;0.5554548;10.649409;-0.019153614
11:25:33:284;0.5554548;10.649409;-0.019153614
11:25:33:284;0.5554548;10.649409;-0.019153614
11:25:33:284;0.5554548;10.649409;-0.019153614
11:25:33:284;0.5554548;10.649409;-0.019153614
11:25:33:284;0.5554548;10.649409;-0.019153614
11:25:33:284;0.5554548;10.649409;-0.019153614
11:25:33:284;0.5554548;10.649409;-0.019153614
11:25:33:402;1.0726024;10.01734;0.78529817
11:25:33:402;1.0726024;10.01734;0.78529817
11:25:33:402;1.0726024;10.01734;0.78529817
11:25:33:402;1.0726024;10.01734;0.78529817
11:25:33:402;1.0726024;10.01734;0.78529817
11:25:33:402;1.0726024;10.01734;0.78529817
11:25:33:402;1.0726024;10.01734;0.78529817
11:25:33:402;1.0726024;10.01734;0.78529817
11:25:33:402;1.0726024;10.01734;0.78529817
11:25:33:402;1.0726024;10.01734;0.78529817
11:25:33:402;1.0726024;10.01734;0.78529817
11:25:33:402;1.0726024;10.01734;0.78529817
11:25:33:402;1.0726024;10.01734;0.78529817
11:25:33:402;1.0726024;10.01734;0.78529817
11:25:33:402;1.0726024;10.01734;0.78529817
11:25:33:521;0.45968673;10.534488;0.1340753
11:25:33:521;0.45968673;10.534488;0.1340753
11:25:33:521;0.45968673;10.534488;0.1340753
11:25:33:521;0.45968673;10.534488;0.1340753
11:25:33:521;0.45968673;10.534488;0.1340753
11:25:33:521;0.45968673;10.534488;0.1340753
11:25:33:521;0.45968673;10.534488;0.1340753
11:25:33:521;0.45968673;10.534488;0.1340753
11:25:33:521;0.45968673;10.534488;0.1340753
11:25:33:521;0.45968673;10.534488;0.1340753
11:25:33:521;0.45968673;10.534488;0.1340753
11:25:33:521;0.45968673;10.534488;0.1340753
11:25:33:521;0.45968673;10.534488;0.1340753
11:25:33:521;0.45968673;10.534488;0.1340753
11:25:33:521;0.45968673;10.534488;0.1340753
11:25:33:636;0.2681506;9.998186;-1.2066777
11:25:33:636;0.2681506;9.998186;-1.2066777
11:25:33:636;0.2681506;9.998186;-1.2066777
11:25:33:636;0.2681506;9.998186;-1.2066777
11:25:33:636;0.2681506;9.998186;-1.2066777
11:25:33:636;0.2681506;9.998186;-1.2066777
11:25:33:636;0.2681506;9.998186;-1.2066777
11:25:33:636;0.2681506;9.998186;-1.2066777
11:25:33:636;0.2681506;9.998186;-1.2066777
11:25:33:636;0.2681506;9.998186;-1.2066777
11:25:33:636;0.2681506;9.998186;-1.2066777
11:25:33:636;0.2681506;9.998186;-1.2066777
11:25:33:636;0.2681506;9.998186;-1.2066777
11:25:33:636;0.2681506;9.998186;-1.2066777
11:25:33:636;0.2681506;9.998186;-1.2066777
11:25:33:753;0.47884035;10.726024;0.38307226
11:25:33:753;0.47884035;10.726024;0.38307226
11:25:33:753;0.47884035;10.726024;0.38307226
11:25:33:753;0.47884035;10.726024;0.38307226
11:25:33:753;0.47884035;10.726024;0.38307226
11:25:33:753;0.47884035;10.726024;0.38307226
11:25:33:753;0.47884035;10.726024;0.38307226
11:25:33:753;0.47884035;10.726024;0.38307226
11:25:33:753;0.47884035;10.726024;0.38307226
11:25:33:753;0.47884035;10.726024;0.38307226
11:25:33:753;0.47884035;10.726024;0.38307226
11:25:33:753;0.47884035;10.726024;0.38307226
11:25:33:753;0.47884035;10.726024;0.38307226
11:25:33:855;0.21068975;9.500193;0.5363012
11:25:33:855;0.21068975;9.500193;0.5363012
11:25:33:855;0.21068975;9.500193;0.5363012
11:25:33:855;0.21068975;9.500193;0.5363012
11:25:33:855;0.21068975;9.500193;0.5363012
11:25:33:855;0.21068975;9.500193;0.5363012
11:25:33:855;0.21068975;9.500193;0.5363012
11:25:33:855;0.21068975;9.500193;0.5363012
11:25:33:855;0.21068975;9.500193;0.5363012
11:25:33:855;0.21068975;9.500193;0.5363012
11:25:33:855;0.21068975;9.500193;0.5363012
11:25:33:855;0.21068975;9.500193;0.5363012
11:25:33:855;0.21068975;9.500193;0.5363012
11:25:33:855;0.21068975;9.500193;0.5363012
11:25:33:968;-0.095768064;10.70687;0.7278373
11:25:33:968;-0.095768064;10.70687;0.7278373
11:25:33:968;-0.095768064;10.70687;0.7278373
11:25:33:968;-0.095768064;10.70687;0.7278373
11:25:33:968;-0.095768064;10.70687;0.7278373
11:25:33:968;-0.095768064;10.70687;0.7278373
11:25:33:968;-0.095768064;10.70687;0.7278373
11:25:33:968;-0.095768064;10.70687;0.7278373
11:25:33:968;-0.095768064;10.70687;0.7278373
11:25:33:968;-0.095768064;10.70687;0.7278373
11:25:33:968;-0.095768064;10.70687;0.7278373
11:25:33:968;-0.095768064;10.70687;0.7278373
11:25:33:968;-0.095768064;10.70687;0.7278373
11:25:33:968;-0.095768064;10.70687;0.7278373
11:25:33:968;-0.095768064;10.70687;0.7278373
11:25:33:968;-0.095768064;10.70687;0.7278373
11:25:34:087;0.59376204;9.346964;0.6895301
11:25:34:087;0.59376204;9.346964;0.6895301
11:25:34:087;0.59376204;9.346964;0.6895301
11:25:34:087;0.59376204;9.346964;0.6895301
11:25:34:087;0.59376204;9.346964;0.6895301
11:25:34:087;0.59376204;9.346964;0.6895301
11:25:34:087;0.59376204;9.346964;0.6895301
11:25:34:087;0.59376204;9.346964;0.6895301
11:25:34:087;0.59376204;9.346964;0.6895301
11:25:34:087;0.59376204;9.346964;0.6895301
11:25:34:087;0.59376204;9.346964;0.6895301
11:25:34:087;0.59376204;9.346964;0.6895301
11:25:34:087;0.59376204;9.346964;0.6895301
11:25:34:087;0.59376204;9.346964;0.6895301
11:25:34:087;0.59376204;9.346964;0.6895301
11:25:34:205;0.2681506;10.97502;1.1875241
11:25:34:205;0.2681506;10.97502;1.1875241
11:25:34:205;0.2681506;10.97502;1.1875241
11:25:34:205;0.2681506;10.97502;1.1875241
11:25:34:205;0.2681506;10.97502;1.1875241
11:25:34:205;0.2681506;10.97502;1.1875241
11:25:34:205;0.2681506;10.97502;1.1875241
11:25:34:205;0.2681506;10.97502;1.1875241
11:25:34:205;0.2681506;10.97502;1.1875241
11:25:34:205;0.2681506;10.97502;1.1875241
11:25:34:205;0.2681506;10.97502;1.1875241
11:25:34:205;0.2681506;10.97502;1.1875241
11:25:34:205;0.2681506;10.97502;1.1875241
11:25:34:205;0.2681506;10.97502;1.1875241
11:25:34:205;0.2681506;10.97502;1.1875241
11:25:34:322;-0.05746084;10.5919485;0.7469909
11:25:34:322;-0.05746084;10.5919485;0.7469909
11:25:34:322;-0.05746084;10.5919485;0.7469909
11:25:34:322;-0.05746084;10.5919485;0.7469909
11:25:34:322;-0.05746084;10.5919485;0.7469909
11:25:34:322;-0.05746084;10.5919485;0.7469909
11:25:34:322;-0.05746084;10.5919485;0.7469909
11:25:34:322;-0.05746084;10.5919485;0.7469909
11:25:34:322;-0.05746084;10.5919485;0.7469909
11:25:34:322;-0.05746084;10.5919485;0.7469909
11:25:34:322;-0.05746084;10.5919485;0.7469909
11:25:34:322;-0.05746084;10.5919485;0.7469909
11:25:34:322;-0.05746084;10.5919485;0.7469909
11:25:34:429;-0.038307227;10.01734;1.8962077
11:25:34:429;-0.038307227;10.01734;1.8962077
11:25:34:429;-0.038307227;10.01734;1.8962077
11:25:34:429;-0.038307227;10.01734;1.8962077
11:25:34:429;-0.038307227;10.01734;1.8962077
11:25:34:429;-0.038307227;10.01734;1.8962077
11:25:34:429;-0.038307227;10.01734;1.8962077
11:25:34:429;-0.038307227;10.01734;1.8962077
11:25:34:429;-0.038307227;10.01734;1.8962077
11:25:34:429;-0.038307227;10.01734;1.8962077
11:25:34:429;-0.038307227;10.01734;1.8962077
11:25:34:429;-0.038307227;10.01734;1.8962077
11:25:34:429;-0.038307227;10.01734;1.8962077
11:25:34:429;-0.038307227;10.01734;1.8962077
11:25:34:539;0.4405331;10.572795;0.9959879
11:25:34:539;0.4405331;10.572795;0.9959879
11:25:34:539;0.4405331;10.572795;0.9959879
11:25:34:539;0.4405331;10.572795;0.9959879
11:25:34:539;0.4405331;10.572795;0.9959879
11:25:34:539;0.4405331;10.572795;0.9959879
11:25:34:539;0.4405331;10.572795;0.9959879
11:25:34:539;0.4405331;10.572795;0.9959879
11:25:34:539;0.4405331;10.572795;0.9959879
11:25:34:539;0.4405331;10.572795;0.9959879
11:25:34:539;0.4405331;10.572795;0.9959879
11:25:34:539;0.4405331;10.572795;0.9959879
11:25:34:539;0.4405331;10.572795;0.9959879
11:25:34:539;0.4405331;10.572795;0.9959879
11:25:34:539;0.4405331;10.572795;0.9959879
11:25:34:539;0.4405331;10.572795;0.9959879
11:25:34:657;0.5363012;9.461885;-0.2681506
11:25:34:657;0.5363012;9.461885;-0.2681506
11:25:34:657;0.5363012;9.461885;-0.2681506
11:25:34:657;0.5363012;9.461885;-0.2681506
11:25:34:657;0.5363012;9.461885;-0.2681506
11:25:34:657;0.5363012;9.461885;-0.2681506
11:25:34:657;0.5363012;9.461885;-0.2681506
11:25:34:657;0.5363012;9.461885;-0.2681506
11:25:34:657;0.5363012;9.461885;-0.2681506
11:25:34:657;0.5363012;9.461885;-0.2681506
11:25:34:657;0.5363012;9.461885;-0.2681506
11:25:34:657;0.5363012;9.461885;-0.2681506
11:25:34:657;0.5363012;9.461885;-0.2681506
11:25:34:657;0.5363012;9.461885;-0.2681506
11:25:34:773;0.15322891;9.749189;0.8619126
11:25:34:773;0.15322891;9.749189;0.8619126
11:25:34:773;0.15322891;9.749189;0.8619126
11:25:34:773;0.15322891;9.749189;0.8619126
11:25:34:773;0.15322891;9.749189;0.8619126
11:25:34:773;0.15322891;9.749189;0.8619126
11:25:34:773;0.15322891;9.749189;0.8619126
11:25:34:773;0.15322891;9.749189;0.8619126
11:25:34:773;0.15322891;9.749189;0.8619126
11:25:34:773;0.15322891;9.749189;0.8619126
11:25:34:773;0.15322891;9.749189;0.8619126
11:25:34:773;0.15322891;9.749189;0.8619126
11:25:34:773;0.15322891;9.749189;0.8619126
11:25:34:773;0.15322891;9.749189;0.8619126
11:25:34:773;0.15322891;9.749189;0.8619126
11:25:34:773;0.15322891;9.749189;0.8619126
11:25:34:892;0.30645782;11.051635;0.90021986
11:25:34:892;0.30645782;11.051635;0.90021986
11:25:34:892;0.30645782;11.051635;0.90021986
11:25:34:892;0.30645782;11.051635;0.90021986
11:25:34:892;0.30645782;11.051635;0.90021986
11:25:34:892;0.30645782;11.051635;0.90021986
11:25:34:892;0.30645782;11.051635;0.90021986
11:25:34:892;0.30645782;11.051635;0.90021986
11:25:34:892;0.30645782;11.051635;0.90021986
11:25:34:892;0.30645782;11.051635;0.90021986
11:25:34:892;0.30645782;11.051635;0.90021986
11:25:34:892;0.30645782;11.051635;0.90021986
11:25:34:892;0.30645782;11.051635;0.90021986
11:25:34:892;0.30645782;11.051635;0.90021986
11:25:34:892;0.30645782;11.051635;0.90021986
11:25:35:008;0.7086837;8.331821;0.038307227
11:25:35:008;0.7086837;8.331821;0.038307227
11:25:35:008;0.7086837;8.331821;0.038307227
11:25:35:008;0.7086837;8.331821;0.038307227
11:25:35:008;0.7086837;8.331821;0.038307227
11:25:35:008;0.7086837;8.331821;0.038307227
11:25:35:008;0.7086837;8.331821;0.038307227
11:25:35:008;0.7086837;8.331821;0.038307227
11:25:35:008;0.7086837;8.331821;0.038307227
11:25:35:008;0.7086837;8.331821;0.038307227
11:25:35:008;0.7086837;8.331821;0.038307227
11:25:35:008;0.7086837;8.331821;0.038307227
11:25:35:008;0.7086837;8.331821;0.038307227
11:25:35:008;0.7086837;8.331821;0.038307227
11:25:35:125;0.076614454;9.32781;-0.2681506
11:25:35:125;0.076614454;9.32781;-0.2681506
11:25:35:125;0.076614454;9.32781;-0.2681506
11:25:35:125;0.076614454;9.32781;-0.2681506
11:25:35:125;0.076614454;9.32781;-0.2681506
11:25:35:125;0.076614454;9.32781;-0.2681506
11:25:35:125;0.076614454;9.32781;-0.2681506
11:25:35:125;0.076614454;9.32781;-0.2681506
11:25:35:125;0.076614454;9.32781;-0.2681506
11:25:35:125;0.076614454;9.32781;-0.2681506
11:25:35:125;0.076614454;9.32781;-0.2681506
11:25:35:125;0.076614454;9.32781;-0.2681506
11:25:35:125;0.076614454;9.32781;-0.2681506
11:25:35:125;0.076614454;9.32781;-0.2681506
11:25:35:125;0.076614454;9.32781;-0.2681506
11:25:35:125;0.076614454;9.32781;-0.2681506
11:25:35:244;0.51714754;9.921572;1.0151415
11:25:35:244;0.51714754;9.921572;1.0151415
11:25:35:244;0.51714754;9.921572;1.0151415
11:25:35:244;0.51714754;9.921572;1.0151415
11:25:35:244;0.51714754;9.921572;1.0151415
11:25:35:244;0.51714754;9.921572;1.0151415
11:25:35:244;0.51714754;9.921572;1.0151415
11:25:35:244;0.51714754;9.921572;1.0151415
11:25:35:244;0.51714754;9.921572;1.0151415
11:25:35:244;0.51714754;9.921572;1.0151415
11:25:35:244;0.51714754;9.921572;1.0151415
11:25:35:244;0.51714754;9.921572;1.0151415
11:25:35:244;0.51714754;9.921572;1.0151415
11:25:35:244;0.51714754;9.921572;1.0151415
11:25:35:359;0.9768343;11.013328;-0.05746084
11:25:35:359;0.9768343;11.013328;-0.05746084
11:25:35:359;0.9768343;11.013328;-0.05746084
11:25:35:359;0.9768343;11.013328;-0.05746084
11:25:35:359;0.9768343;11.013328;-0.05746084
11:25:35:359;0.9768343;11.013328;-0.05746084
11:25:35:359;0.9768343;11.013328;-0.05746084
11:25:35:359;0.9768343;11.013328;-0.05746084
11:25:35:359;0.9768343;11.013328;-0.05746084
11:25:35:359;0.9768343;11.013328;-0.05746084
11:25:35:359;0.9768343;11.013328;-0.05746084
11:25:35:359;0.9768343;11.013328;-0.05746084
11:25:35:359;0.9768343;11.013328;-0.05746084
11:25:35:359;0.9768343;11.013328;-0.05746084
11:25:35:359;0.9768343;11.013328;-0.05746084
11:25:35:359;0.9768343;11.013328;-0.05746084
11:25:35:477;0.5554548;9.883265;0.17238252
11:25:35:477;0.5554548;9.883265;0.17238252
11:25:35:477;0.5554548;9.883265;0.17238252
11:25:35:477;0.5554548;9.883265;0.17238252
11:25:35:477;0.5554548;9.883265;0.17238252
11:25:35:477;0.5554548;9.883265;0.17238252
11:25:35:477;0.5554548;9.883265;0.17238252
11:25:35:477;0.5554548;9.883265;0.17238252
11:25:35:477;0.5554548;9.883265;0.17238252
11:25:35:477;0.5554548;9.883265;0.17238252
11:25:35:477;0.5554548;9.883265;0.17238252
11:25:35:477;0.5554548;9.883265;0.17238252
11:25:35:477;0.5554548;9.883265;0.17238252
11:25:35:477;0.5554548;9.883265;0.17238252
11:25:35:593;0.4213795;9.481039;0.2873042
11:25:35:593;0.4213795;9.481039;0.2873042
11:25:35:593;0.4213795;9.481039;0.2873042
11:25:35:593;0.4213795;9.481039;0.2873042
11:25:35:593;0.4213795;9.481039;0.2873042
11:25:35:593;0.4213795;9.481039;0.2873042
11:25:35:593;0.4213795;9.481039;0.2873042
11:25:35:593;0.4213795;9.481039;0.2873042
11:25:35:593;0.4213795;9.481039;0.2873042
11:25:35:593;0.4213795;9.481039;0.2873042
11:25:35:593;0.4213795;9.481039;0.2873042
11:25:35:593;0.4213795;9.481039;0.2873042
11:25:35:593;0.4213795;9.481039;0.2873042
11:25:35:593;0.4213795;9.481039;0.2873042
11:25:35:593;0.4213795;9.481039;0.2873042
11:25:35:593;0.4213795;9.481039;0.2873042
11:25:35:711;-0.019153614;9.959879;0.038307227
11:25:35:711;-0.019153614;9.959879;0.038307227
11:25:35:711;-0.019153614;9.959879;0.038307227
11:25:35:711;-0.019153614;9.959879;0.038307227
11:25:35:711;-0.019153614;9.959879;0.038307227
11:25:35:711;-0.019153614;9.959879;0.038307227
11:25:35:711;-0.019153614;9.959879;0.038307227
11:25:35:711;-0.019153614;9.959879;0.038307227
11:25:35:711;-0.019153614;9.959879;0.038307227
11:25:35:711;-0.019153614;9.959879;0.038307227
11:25:35:711;-0.019153614;9.959879;0.038307227
11:25:35:711;-0.019153614;9.959879;0.038307227
11:25:35:711;-0.019153614;9.959879;0.038307227
11:25:35:711;-0.019153614;9.959879;0.038307227
11:25:35:828;0.91937345;9.749189;0.7661445
11:25:35:828;0.91937345;9.749189;0.7661445
11:25:35:828;0.91937345;9.749189;0.7661445
11:25:35:828;0.91937345;9.749189;0.7661445
11:25:35:828;0.91937345;9.749189;0.7661445
11:25:35:828;0.91937345;9.749189;0.7661445
11:25:35:828;0.91937345;9.749189;0.7661445
11:25:35:828;0.91937345;9.749189;0.7661445
11:25:35:828;0.91937345;9.749189;0.7661445
11:25:35:828;0.91937345;9.749189;0.7661445
11:25:35:828;0.91937345;9.749189;0.7661445
11:25:35:828;0.91937345;9.749189;0.7661445
11:25:35:828;0.91937345;9.749189;0.7661445
11:25:35:828;0.91937345;9.749189;0.7661445
11:25:35:828;0.91937345;9.749189;0.7661445
11:25:35:945;1.0151415;11.702858;-1.1875241
11:25:35:945;1.0151415;11.702858;-1.1875241
11:25:35:945;1.0151415;11.702858;-1.1875241
11:25:35:945;1.0151415;11.702858;-1.1875241
11:25:35:945;1.0151415;11.702858;-1.1875241
11:25:35:945;1.0151415;11.702858;-1.1875241
11:25:35:945;1.0151415;11.702858;-1.1875241
11:25:35:945;1.0151415;11.702858;-1.1875241
11:25:35:945;1.0151415;11.702858;-1.1875241
11:25:35:945;1.0151415;11.702858;-1.1875241
11:25:35:945;1.0151415;11.702858;-1.1875241
11:25:35:945;1.0151415;11.702858;-1.1875241
11:25:35:945;1.0151415;11.702858;-1.1875241
11:25:35:945;1.0151415;11.702858;-1.1875241
11:25:35:945;1.0151415;11.702858;-1.1875241
11:25:36:062;0.51714754;9.615114;1.1492168
11:25:36:062;0.51714754;9.615114;1.1492168
11:25:36:062;0.51714754;9.615114;1.1492168
11:25:36:062;0.51714754;9.615114;1.1492168
11:25:36:062;0.51714754;9.615114;1.1492168
11:25:36:062;0.51714754;9.615114;1.1492168
11:25:36:062;0.51714754;9.615114;1.1492168
11:25:36:062;0.51714754;9.615114;1.1492168
11:25:36:062;0.51714754;9.615114;1.1492168
11:25:36:062;0.51714754;9.615114;1.1492168
11:25:36:062;0.51714754;9.615114;1.1492168
11:25:36:062;0.51714754;9.615114;1.1492168
11:25:36:062;0.51714754;9.615114;1.1492168
11:25:36:062;0.51714754;9.615114;1.1492168
11:25:36:062;0.51714754;9.615114;1.1492168
11:25:36:062;0.51714754;9.615114;1.1492168
11:25:36:180;0.40222588;10.400413;0.17238252
11:25:36:180;0.40222588;10.400413;0.17238252
11:25:36:180;0.40222588;10.400413;0.17238252
11:25:36:180;0.40222588;10.400413;0.17238252
11:25:36:180;0.40222588;10.400413;0.17238252
11:25:36:180;0.40222588;10.400413;0.17238252
11:25:36:180;0.40222588;10.400413;0.17238252
11:25:36:180;0.40222588;10.400413;0.17238252
11:25:36:180;0.40222588;10.400413;0.17238252
11:25:36:180;0.40222588;10.400413;0.17238252
11:25:36:180;0.40222588;10.400413;0.17238252
11:25:36:180;0.40222588;10.400413;0.17238252
11:25:36:180;0.40222588;10.400413;0.17238252
11:25:36:180;0.40222588;10.400413;0.17238252
11:25:36:296;0.19153613;10.381259;-1.3215994
11:25:36:296;0.19153613;10.381259;-1.3215994
11:25:36:296;0.19153613;10.381259;-1.3215994
11:25:36:296;0.19153613;10.381259;-1.3215994
11:25:36:296;0.19153613;10.381259;-1.3215994
11:25:36:296;0.19153613;10.381259;-1.3215994
11:25:36:296;0.19153613;10.381259;-1.3215994
11:25:36:296;0.19153613;10.381259;-1.3215994
11:25:36:296;0.19153613;10.381259;-1.3215994
11:25:36:296;0.19153613;10.381259;-1.3215994
11:25:36:296;0.19153613;10.381259;-1.3215994
11:25:36:296;0.19153613;10.381259;-1.3215994
11:25:36:296;0.19153613;10.381259;-1.3215994
11:25:36:296;0.19153613;10.381259;-1.3215994
11:25:36:296;0.19153613;10.381259;-1.3215994
11:25:36:296;0.19153613;10.381259;-1.3215994
11:25:36:417;0.45968673;10.0748005;-0.2681506
11:25:36:417;0.45968673;10.0748005;-0.2681506
11:25:36:417;0.45968673;10.0748005;-0.2681506
11:25:36:417;0.45968673;10.0748005;-0.2681506
11:25:36:417;0.45968673;10.0748005;-0.2681506
11:25:36:417;0.45968673;10.0748005;-0.2681506
11:25:36:417;0.45968673;10.0748005;-0.2681506
11:25:36:417;0.45968673;10.0748005;-0.2681506
11:25:36:417;0.45968673;10.0748005;-0.2681506
11:25:36:417;0.45968673;10.0748005;-0.2681506
11:25:36:417;0.45968673;10.0748005;-0.2681506
11:25:36:417;0.45968673;10.0748005;-0.2681506
11:25:36:417;0.45968673;10.0748005;-0.2681506
11:25:36:417;0.45968673;10.0748005;-0.2681506
11:25:36:531;-0.24899697;9.825804;0.4213795
11:25:36:531;-0.24899697;9.825804;0.4213795
11:25:36:531;-0.24899697;9.825804;0.4213795
11:25:36:531;-0.24899697;9.825804;0.4213795
11:25:36:531;-0.24899697;9.825804;0.4213795
11:25:36:531;-0.24899697;9.825804;0.4213795
11:25:36:531;-0.24899697;9.825804;0.4213795
11:25:36:531;-0.24899697;9.825804;0.4213795
11:25:36:531;-0.24899697;9.825804;0.4213795
11:25:36:531;-0.24899697;9.825804;0.4213795
11:25:36:531;-0.24899697;9.825804;0.4213795
11:25:36:531;-0.24899697;9.825804;0.4213795
11:25:36:531;-0.24899697;9.825804;0.4213795
11:25:36:531;-0.24899697;9.825804;0.4213795
11:25:36:531;-0.24899697;9.825804;0.4213795
11:25:36:531;-0.24899697;9.825804;0.4213795
11:25:36:650;0.82360536;10.553641;-0.17238252
11:25:36:650;0.82360536;10.553641;-0.17238252
11:25:36:650;0.82360536;10.553641;-0.17238252
11:25:36:650;0.82360536;10.553641;-0.17238252
11:25:36:650;0.82360536;10.553641;-0.17238252
11:25:36:650;0.82360536;10.553641;-0.17238252
11:25:36:650;0.82360536;10.553641;-0.17238252
11:25:36:650;0.82360536;10.553641;-0.17238252
11:25:36:650;0.82360536;10.553641;-0.17238252
11:25:36:650;0.82360536;10.553641;-0.17238252
11:25:36:650;0.82360536;10.553641;-0.17238252
11:25:36:650;0.82360536;10.553641;-0.17238252
11:25:36:650;0.82360536;10.553641;-0.17238252
11:25:36:650;0.82360536;10.553641;-0.17238252
11:25:36:765;0.11492168;10.994174;-0.4213795
11:25:36:765;0.11492168;10.994174;-0.4213795
11:25:36:765;0.11492168;10.994174;-0.4213795
11:25:36:765;0.11492168;10.994174;-0.4213795
11:25:36:765;0.11492168;10.994174;-0.4213795
11:25:36:765;0.11492168;10.994174;-0.4213795
11:25:36:765;0.11492168;10.994174;-0.4213795
11:25:36:765;0.11492168;10.994174;-0.4213795
11:25:36:765;0.11492168;10.994174;-0.4213795
11:25:36:765;0.11492168;10.994174;-0.4213795
11:25:36:765;0.11492168;10.994174;-0.4213795
11:25:36:765;0.11492168;10.994174;-0.4213795
11:25:36:765;0.11492168;10.994174;-0.4213795
11:25:36:765;0.11492168;10.994174;-0.4213795
11:25:36:765;0.11492168;10.994174;-0.4213795
11:25:36:765;0.11492168;10.994174;-0.4213795
11:25:36:765;0.11492168;10.994174;-0.4213795
11:25:36:891;0.34476504;9.80665;-1.0342951
11:25:36:891;0.34476504;9.80665;-1.0342951
11:25:36:891;0.34476504;9.80665;-1.0342951
11:25:36:891;0.34476504;9.80665;-1.0342951
11:25:36:891;0.34476504;9.80665;-1.0342951
11:25:36:891;0.34476504;9.80665;-1.0342951
11:25:36:891;0.34476504;9.80665;-1.0342951
11:25:36:891;0.34476504;9.80665;-1.0342951
11:25:36:891;0.34476504;9.80665;-1.0342951
11:25:36:891;0.34476504;9.80665;-1.0342951
11:25:36:891;0.34476504;9.80665;-1.0342951
11:25:36:891;0.34476504;9.80665;-1.0342951
11:25:36:891;0.34476504;9.80665;-1.0342951
11:25:36:999;0.34476504;10.553641;-0.11492168
11:25:36:999;0.34476504;10.553641;-0.11492168
11:25:36:999;0.34476504;10.553641;-0.11492168
11:25:36:999;0.34476504;10.553641;-0.11492168
11:25:36:999;0.34476504;10.553641;-0.11492168
11:25:36:999;0.34476504;10.553641;-0.11492168
11:25:36:999;0.34476504;10.553641;-0.11492168
11:25:36:999;0.34476504;10.553641;-0.11492168
11:25:36:999;0.34476504;10.553641;-0.11492168
11:25:36:999;0.34476504;10.553641;-0.11492168
11:25:36:999;0.34476504;10.553641;-0.11492168
11:25:36:999;0.34476504;10.553641;-0.11492168
11:25:36:999;0.34476504;10.553641;-0.11492168
11:25:36:999;0.34476504;10.553641;-0.11492168
11:25:36:999;0.34476504;10.553641;-0.11492168
11:25:37:115;0.2873042;11.434708;-1.0342951
11:25:37:115;0.2873042;11.434708;-1.0342951
11:25:37:115;0.2873042;11.434708;-1.0342951
11:25:37:115;0.2873042;11.434708;-1.0342951
11:25:37:115;0.2873042;11.434708;-1.0342951
11:25:37:115;0.2873042;11.434708;-1.0342951
11:25:37:115;0.2873042;11.434708;-1.0342951
11:25:37:115;0.2873042;11.434708;-1.0342951
11:25:37:115;0.2873042;11.434708;-1.0342951
11:25:37:115;0.2873042;11.434708;-1.0342951
11:25:37:115;0.2873042;11.434708;-1.0342951
11:25:37:115;0.2873042;11.434708;-1.0342951
11:25:37:115;0.2873042;11.434708;-1.0342951
11:25:37:216;0.59376204;9.174581;0.5746084
11:25:37:216;0.59376204;9.174581;0.5746084
11:25:37:216;0.59376204;9.174581;0.5746084
11:25:37:216;0.59376204;9.174581;0.5746084
11:25:37:216;0.59376204;9.174581;0.5746084
11:25:37:216;0.59376204;9.174581;0.5746084
11:25:37:216;0.59376204;9.174581;0.5746084
11:25:37:216;0.59376204;9.174581;0.5746084
11:25:37:216;0.59376204;9.174581;0.5746084
11:25:37:216;0.59376204;9.174581;0.5746084
11:25:37:216;0.59376204;9.174581;0.5746084
11:25:37:216;0.59376204;9.174581;0.5746084
11:25:37:216;0.59376204;9.174581;0.5746084
11:25:37:216;0.59376204;9.174581;0.5746084
11:25:37:216;0.59376204;9.174581;0.5746084
11:25:37:334;-0.51714754;10.515334;-0.34476504
11:25:37:334;-0.51714754;10.515334;-0.34476504
11:25:37:334;-0.51714754;10.515334;-0.34476504
11:25:37:334;-0.51714754;10.515334;-0.34476504
11:25:37:334;-0.51714754;10.515334;-0.34476504
11:25:37:334;-0.51714754;10.515334;-0.34476504
11:25:37:334;-0.51714754;10.515334;-0.34476504
11:25:37:334;-0.51714754;10.515334;-0.34476504
11:25:37:334;-0.51714754;10.515334;-0.34476504
11:25:37:334;-0.51714754;10.515334;-0.34476504
11:25:37:334;-0.51714754;10.515334;-0.34476504
11:25:37:334;-0.51714754;10.515334;-0.34476504
11:25:37:334;-0.51714754;10.515334;-0.34476504
11:25:37:334;-0.51714754;10.515334;-0.34476504
11:25:37:334;-0.51714754;10.515334;-0.34476504
11:25:37:452;-0.4405331;9.270349;0.7469909
11:25:37:452;-0.4405331;9.270349;0.7469909
11:25:37:452;-0.4405331;9.270349;0.7469909
11:25:37:452;-0.4405331;9.270349;0.7469909
11:25:37:452;-0.4405331;9.270349;0.7469909
11:25:37:452;-0.4405331;9.270349;0.7469909
11:25:37:452;-0.4405331;9.270349;0.7469909
11:25:37:452;-0.4405331;9.270349;0.7469909
11:25:37:452;-0.4405331;9.270349;0.7469909
11:25:37:452;-0.4405331;9.270349;0.7469909
11:25:37:452;-0.4405331;9.270349;0.7469909
11:25:37:452;-0.4405331;9.270349;0.7469909
11:25:37:452;-0.4405331;9.270349;0.7469909
11:25:37:452;-0.4405331;9.270349;0.7469909
11:25:37:452;-0.4405331;9.270349;0.7469909
11:25:37:452;-0.4405331;9.270349;0.7469909
11:25:37:574;0.1340753;9.80665;-0.17238252
11:25:37:574;0.1340753;9.80665;-0.17238252
11:25:37:574;0.1340753;9.80665;-0.17238252
11:25:37:574;0.1340753;9.80665;-0.17238252
11:25:37:574;0.1340753;9.80665;-0.17238252
11:25:37:574;0.1340753;9.80665;-0.17238252
11:25:37:574;0.1340753;9.80665;-0.17238252
11:25:37:574;0.1340753;9.80665;-0.17238252
11:25:37:574;0.1340753;9.80665;-0.17238252
11:25:37:574;0.1340753;9.80665;-0.17238252
11:25:37:574;0.1340753;9.80665;-0.17238252
11:25:37:574;0.1340753;9.80665;-0.17238252
11:25:37:574;0.1340753;9.80665;-0.17238252
11:25:37:574;0.1340753;9.80665;-0.17238252
11:25:37:574;0.1340753;9.80665;-0.17238252
11:25:37:688;-0.9576807;10.400413;0.82360536
11:25:37:688;-0.9576807;10.400413;0.82360536
11:25:37:688;-0.9576807;10.400413;0.82360536
11:25:37:688;-0.9576807;10.400413;0.82360536
11:25:37:688;-0.9576807;10.400413;0.82360536
11:25:37:688;-0.9576807;10.400413;0.82360536
11:25:37:688;-0.9576807;10.400413;0.82360536
11:25:37:688;-0.9576807;10.400413;0.82360536
11:25:37:688;-0.9576807;10.400413;0.82360536
11:25:37:688;-0.9576807;10.400413;0.82360536
11:25:37:688;-0.9576807;10.400413;0.82360536
11:25:37:688;-0.9576807;10.400413;0.82360536
11:25:37:688;-0.9576807;10.400413;0.82360536
11:25:37:688;-0.9576807;10.400413;0.82360536
11:25:37:688;-0.9576807;10.400413;0.82360536
11:25:37:805;0.1340753;11.204864;-0.2873042
11:25:37:805;0.1340753;11.204864;-0.2873042
11:25:37:805;0.1340753;11.204864;-0.2873042
11:25:37:805;0.1340753;11.204864;-0.2873042
11:25:37:805;0.1340753;11.204864;-0.2873042
11:25:37:805;0.1340753;11.204864;-0.2873042
11:25:37:805;0.1340753;11.204864;-0.2873042
11:25:37:805;0.1340753;11.204864;-0.2873042
11:25:37:805;0.1340753;11.204864;-0.2873042
11:25:37:805;0.1340753;11.204864;-0.2873042
11:25:37:805;0.1340753;11.204864;-0.2873042
11:25:37:805;0.1340753;11.204864;-0.2873042
11:25:37:805;0.1340753;11.204864;-0.2873042
11:25:37:805;0.1340753;11.204864;-0.2873042
11:25:37:805;0.1340753;11.204864;-0.2873042
11:25:37:924;0.47884035;8.90643;1.091756
11:25:37:924;0.47884035;8.90643;1.091756
11:25:37:924;0.47884035;8.90643;1.091756
11:25:37:924;0.47884035;8.90643;1.091756
11:25:37:924;0.47884035;8.90643;1.091756
11:25:37:924;0.47884035;8.90643;1.091756
11:25:37:924;0.47884035;8.90643;1.091756
11:25:37:924;0.47884035;8.90643;1.091756
11:25:37:924;0.47884035;8.90643;1.091756
11:25:37:924;0.47884035;8.90643;1.091756
11:25:37:924;0.47884035;8.90643;1.091756
11:25:37:924;0.47884035;8.90643;1.091756
11:25:37:924;0.47884035;8.90643;1.091756
11:25:37:924;0.47884035;8.90643;1.091756
11:25:37:924;0.47884035;8.90643;1.091756
11:25:38:042;-0.17238252;9.404425;0.05746084
11:25:38:042;-0.17238252;9.404425;0.05746084
11:25:38:042;-0.17238252;9.404425;0.05746084
11:25:38:042;-0.17238252;9.404425;0.05746084
11:25:38:042;-0.17238252;9.404425;0.05746084
11:25:38:042;-0.17238252;9.404425;0.05746084
11:25:38:042;-0.17238252;9.404425;0.05746084
11:25:38:042;-0.17238252;9.404425;0.05746084
11:25:38:042;-0.17238252;9.404425;0.05746084
11:25:38:042;-0.17238252;9.404425;0.05746084
11:25:38:042;-0.17238252;9.404425;0.05746084
11:25:38:042;-0.17238252;9.404425;0.05746084
11:25:38:042;-0.17238252;9.404425;0.05746084
11:25:38:042;-0.17238252;9.404425;0.05746084
11:25:38:042;-0.17238252;9.404425;0.05746084
11:25:38:161;-0.22984336;10.055647;0.2873042
11:25:38:161;-0.22984336;10.055647;0.2873042
11:25:38:161;-0.22984336;10.055647;0.2873042
11:25:38:161;-0.22984336;10.055647;0.2873042
11:25:38:161;-0.22984336;10.055647;0.2873042
11:25:38:161;-0.22984336;10.055647;0.2873042
11:25:38:161;-0.22984336;10.055647;0.2873042
11:25:38:161;-0.22984336;10.055647;0.2873042
11:25:38:161;-0.22984336;10.055647;0.2873042
11:25:38:161;-0.22984336;10.055647;0.2873042
11:25:38:161;-0.22984336;10.055647;0.2873042
11:25:38:161;-0.22984336;10.055647;0.2873042
11:25:38:161;-0.22984336;10.055647;0.2873042
11:25:38:161;-0.22984336;10.055647;0.2873042
11:25:38:161;-0.22984336;10.055647;0.2873042
11:25:38:161;-0.22984336;10.055647;0.2873042
11:25:38:282;0.5363012;10.323798;0.11492168
11:25:38:282;0.5363012;10.323798;0.11492168
11:25:38:282;0.5363012;10.323798;0.11492168
11:25:38:282;0.5363012;10.323798;0.11492168
11:25:38:282;0.5363012;10.323798;0.11492168
11:25:38:282;0.5363012;10.323798;0.11492168
11:25:38:282;0.5363012;10.323798;0.11492168
11:25:38:282;0.5363012;10.323798;0.11492168
11:25:38:282;0.5363012;10.323798;0.11492168
11:25:38:282;0.5363012;10.323798;0.11492168
11:25:38:282;0.5363012;10.323798;0.11492168
11:25:38:282;0.5363012;10.323798;0.11492168
11:25:38:282;0.5363012;10.323798;0.11492168
11:25:38:282;0.5363012;10.323798;0.11492168
11:25:38:282;0.5363012;10.323798;0.11492168
11:25:38:400;0.11492168;11.798626;-0.9768343
11:25:38:400;0.11492168;11.798626;-0.9768343
11:25:38:400;0.11492168;11.798626;-0.9768343
11:25:38:400;0.11492168;11.798626;-0.9768343
11:25:38:400;0.11492168;11.798626;-0.9768343
11:25:38:400;0.11492168;11.798626;-0.9768343
11:25:38:400;0.11492168;11.798626;-0.9768343
11:25:38:400;0.11492168;11.798626;-0.9768343
11:25:38:400;0.11492168;11.798626;-0.9768343
11:25:38:400;0.11492168;11.798626;-0.9768343
11:25:38:400;0.11492168;11.798626;-0.9768343
11:25:38:400;0.11492168;11.798626;-0.9768343
11:25:38:400;0.11492168;11.798626;-0.9768343
11:25:38:400;0.11492168;11.798626;-0.9768343
11:25:38:400;0.11492168;11.798626;-0.9768343
11:25:38:523;0.24899697;8.848969;0.1340753
11:25:38:523;0.24899697;8.848969;0.1340753
11:25:38:523;0.24899697;8.848969;0.1340753
11:25:38:523;0.24899697;8.848969;0.1340753
11:25:38:523;0.24899697;8.848969;0.1340753
11:25:38:523;0.24899697;8.848969;0.1340753
11:25:38:523;0.24899697;8.848969;0.1340753
11:25:38:523;0.24899697;8.848969;0.1340753
11:25:38:523;0.24899697;8.848969;0.1340753
11:25:38:523;0.24899697;8.848969;0.1340753
11:25:38:523;0.24899697;8.848969;0.1340753
11:25:38:523;0.24899697;8.848969;0.1340753
11:25:38:523;0.24899697;8.848969;0.1340753
11:25:38:523;0.24899697;8.848969;0.1340753
11:25:38:523;0.24899697;8.848969;0.1340753
11:25:38:637;0.5746084;9.3661175;-0.4405331
11:25:38:637;0.5746084;9.3661175;-0.4405331
11:25:38:637;0.5746084;9.3661175;-0.4405331
11:25:38:637;0.5746084;9.3661175;-0.4405331
11:25:38:637;0.5746084;9.3661175;-0.4405331
11:25:38:637;0.5746084;9.3661175;-0.4405331
11:25:38:637;0.5746084;9.3661175;-0.4405331
11:25:38:637;0.5746084;9.3661175;-0.4405331
11:25:38:637;0.5746084;9.3661175;-0.4405331
11:25:38:637;0.5746084;9.3661175;-0.4405331
11:25:38:637;0.5746084;9.3661175;-0.4405331
11:25:38:637;0.5746084;9.3661175;-0.4405331
11:25:38:637;0.5746084;9.3661175;-0.4405331
11:25:38:637;0.5746084;9.3661175;-0.4405331
11:25:38:637;0.5746084;9.3661175;-0.4405331
11:25:38:754;0.9576807;8.963891;0.80445176
11:25:38:754;0.9576807;8.963891;0.80445176
11:25:38:754;0.9576807;8.963891;0.80445176
11:25:38:754;0.9576807;8.963891;0.80445176
11:25:38:754;0.9576807;8.963891;0.80445176
11:25:38:754;0.9576807;8.963891;0.80445176
11:25:38:754;0.9576807;8.963891;0.80445176
11:25:38:754;0.9576807;8.963891;0.80445176
11:25:38:754;0.9576807;8.963891;0.80445176
11:25:38:754;0.9576807;8.963891;0.80445176
11:25:38:754;0.9576807;8.963891;0.80445176
11:25:38:754;0.9576807;8.963891;0.80445176
11:25:38:754;0.9576807;8.963891;0.80445176
11:25:38:754;0.9576807;8.963891;0.80445176
11:25:38:754;0.9576807;8.963891;0.80445176
11:25:38:871;-0.038307227;8.734048;-1.3024458
11:25:38:871;-0.038307227;8.734048;-1.3024458
11:25:38:871;-0.038307227;8.734048;-1.3024458
11:25:38:871;-0.038307227;8.734048;-1.3024458
11:25:38:871;-0.038307227;8.734048;-1.3024458
11:25:38:871;-0.038307227;8.734048;-1.3024458
11:25:38:871;-0.038307227;8.734048;-1.3024458
11:25:38:871;-0.038307227;8.734048;-1.3024458
11:25:38:871;-0.038307227;8.734048;-1.3024458
11:25:38:871;-0.038307227;8.734048;-1.3024458
11:25:38:871;-0.038307227;8.734048;-1.3024458
11:25:38:871;-0.038307227;8.734048;-1.3024458
11:25:38:871;-0.038307227;8.734048;-1.3024458
11:25:38:871;-0.038307227;8.734048;-1.3024458
11:25:38:871;-0.038307227;8.734048;-1.3024458
11:25:38:988;0.51714754;9.500193;0.8619126
11:25:38:988;0.51714754;9.500193;0.8619126
11:25:38:988;0.51714754;9.500193;0.8619126
11:25:38:988;0.51714754;9.500193;0.8619126
11:25:38:988;0.51714754;9.500193;0.8619126
11:25:38:988;0.51714754;9.500193;0.8619126
11:25:38:988;0.51714754;9.500193;0.8619126
11:25:38:988;0.51714754;9.500193;0.8619126
11:25:38:988;0.51714754;9.500193;0.8619126
11:25:38:988;0.51714754;9.500193;0.8619126
11:25:38:988;0.51714754;9.500193;0.8619126
11:25:38:988;0.51714754;9.500193;0.8619126
11:25:38:988;0.51714754;9.500193;0.8619126
11:25:39:090;0.7086837;10.649409;0.15322891
11:25:39:090;0.7086837;10.649409;0.15322891
11:25:39:090;0.7086837;10.649409;0.15322891
11:25:39:090;0.7086837;10.649409;0.15322891
11:25:39:090;0.7086837;10.649409;0.15322891
11:25:39:090;0.7086837;10.649409;0.15322891
11:25:39:090;0.7086837;10.649409;0.15322891
11:25:39:090;0.7086837;10.649409;0.15322891
11:25:39:090;0.7086837;10.649409;0.15322891
11:25:39:090;0.7086837;10.649409;0.15322891
11:25:39:090;0.7086837;10.649409;0.15322891
11:25:39:090;0.7086837;10.649409;0.15322891
11:25:39:090;0.7086837;10.649409;0.15322891
11:25:39:090;0.7086837;10.649409;0.15322891
11:25:39:090;0.7086837;10.649409;0.15322891
11:25:39:206;0.36391866;10.515334;0.34476504
11:25:39:206;0.36391866;10.515334;0.34476504
11:25:39:206;0.36391866;10.515334;0.34476504
11:25:39:206;0.36391866;10.515334;0.34476504
11:25:39:206;0.36391866;10.515334;0.34476504
11:25:39:206;0.36391866;10.515334;0.34476504
11:25:39:206;0.36391866;10.515334;0.34476504
11:25:39:206;0.36391866;10.515334;0.34476504
11:25:39:206;0.36391866;10.515334;0.34476504
11:25:39:206;0.36391866;10.515334;0.34476504
11:25:39:206;0.36391866;10.515334;0.34476504
11:25:39:206;0.36391866;10.515334;0.34476504
11:25:39:206;0.36391866;10.515334;0.34476504
11:25:39:206;0.36391866;10.515334;0.34476504
11:25:39:206;0.36391866;10.515334;0.34476504
11:25:39:324;0.842759;9.461885;0.45968673
11:25:39:324;0.842759;9.461885;0.45968673
11:25:39:324;0.842759;9.461885;0.45968673
11:25:39:324;0.842759;9.461885;0.45968673
11:25:39:324;0.842759;9.461885;0.45968673
11:25:39:324;0.842759;9.461885;0.45968673
11:25:39:324;0.842759;9.461885;0.45968673
11:25:39:324;0.842759;9.461885;0.45968673
11:25:39:324;0.842759;9.461885;0.45968673
11:25:39:324;0.842759;9.461885;0.45968673
11:25:39:324;0.842759;9.461885;0.45968673
11:25:39:324;0.842759;9.461885;0.45968673
11:25:39:324;0.842759;9.461885;0.45968673
11:25:39:324;0.842759;9.461885;0.45968673
11:25:39:324;0.842759;9.461885;0.45968673
11:25:39:440;0.7278373;11.798626;-0.22984336
11:25:39:440;0.7278373;11.798626;-0.22984336
11:25:39:440;0.7278373;11.798626;-0.22984336
11:25:39:440;0.7278373;11.798626;-0.22984336
11:25:39:440;0.7278373;11.798626;-0.22984336
11:25:39:440;0.7278373;11.798626;-0.22984336
11:25:39:440;0.7278373;11.798626;-0.22984336
11:25:39:440;0.7278373;11.798626;-0.22984336
11:25:39:440;0.7278373;11.798626;-0.22984336
11:25:39:440;0.7278373;11.798626;-0.22984336
11:25:39:440;0.7278373;11.798626;-0.22984336
11:25:39:440;0.7278373;11.798626;-0.22984336
11:25:39:440;0.7278373;11.798626;-0.22984336
11:25:39:440;0.7278373;11.798626;-0.22984336
11:25:39:440;0.7278373;11.798626;-0.22984336
11:25:39:559;0.038307227;9.002198;1.3982137
11:25:39:559;0.038307227;9.002198;1.3982137
11:25:39:559;0.038307227;9.002198;1.3982137
11:25:39:559;0.038307227;9.002198;1.3982137
11:25:39:559;0.038307227;9.002198;1.3982137
11:25:39:559;0.038307227;9.002198;1.3982137
11:25:39:559;0.038307227;9.002198;1.3982137
11:25:39:559;0.038307227;9.002198;1.3982137
11:25:39:559;0.038307227;9.002198;1.3982137
11:25:39:559;0.038307227;9.002198;1.3982137
11:25:39:559;0.038307227;9.002198;1.3982137
11:25:39:559;0.038307227;9.002198;1.3982137
11:25:39:559;0.038307227;9.002198;1.3982137
11:25:39:559;0.038307227;9.002198;1.3982137
11:25:39:559;0.038307227;9.002198;1.3982137
11:25:39:674;-0.22984336;12.603078;-0.4405331
11:25:39:674;-0.22984336;12.603078;-0.4405331
11:25:39:674;-0.22984336;12.603078;-0.4405331
11:25:39:674;-0.22984336;12.603078;-0.4405331
11:25:39:674;-0.22984336;12.603078;-0.4405331
11:25:39:674;-0.22984336;12.603078;-0.4405331
11:25:39:674;-0.22984336;12.603078;-0.4405331
11:25:39:674;-0.22984336;12.603078;-0.4405331
11:25:39:674;-0.22984336;12.603078;-0.4405331
11:25:39:674;-0.22984336;12.603078;-0.4405331
11:25:39:674;-0.22984336;12.603078;-0.4405331
11:25:39:674;-0.22984336;12.603078;-0.4405331
11:25:39:674;-0.22984336;12.603078;-0.4405331
11:25:39:674;-0.22984336;12.603078;-0.4405331
11:25:39:674;-0.22984336;12.603078;-0.4405331
11:25:39:792;-0.17238252;9.021352;1.7429788
11:25:39:792;-0.17238252;9.021352;1.7429788
11:25:39:792;-0.17238252;9.021352;1.7429788
11:25:39:792;-0.17238252;9.021352;1.7429788
11:25:39:792;-0.17238252;9.021352;1.7429788
11:25:39:792;-0.17238252;9.021352;1.7429788
11:25:39:792;-0.17238252;9.021352;1.7429788
11:25:39:792;-0.17238252;9.021352;1.7429788
11:25:39:792;-0.17238252;9.021352;1.7429788
11:25:39:792;-0.17238252;9.021352;1.7429788
11:25:39:792;-0.17238252;9.021352;1.7429788
11:25:39:792;-0.17238252;9.021352;1.7429788
11:25:39:792;-0.17238252;9.021352;1.7429788
11:25:39:792;-0.17238252;9.021352;1.7429788
11:25:39:792;-0.17238252;9.021352;1.7429788
11:25:39:910;0.5746084;10.151415;-0.9576807
11:25:39:910;0.5746084;10.151415;-0.9576807
11:25:39:910;0.5746084;10.151415;-0.9576807
11:25:39:910;0.5746084;10.151415;-0.9576807
11:25:39:910;0.5746084;10.151415;-0.9576807
11:25:39:910;0.5746084;10.151415;-0.9576807
11:25:39:910;0.5746084;10.151415;-0.9576807
11:25:39:910;0.5746084;10.151415;-0.9576807
11:25:39:910;0.5746084;10.151415;-0.9576807
11:25:39:910;0.5746084;10.151415;-0.9576807
11:25:39:910;0.5746084;10.151415;-0.9576807
11:25:39:910;0.5746084;10.151415;-0.9576807
11:25:39:910;0.5746084;10.151415;-0.9576807
11:25:39:910;0.5746084;10.151415;-0.9576807
11:25:39:910;0.5746084;10.151415;-0.9576807
11:25:40:026;-0.019153614;8.925584;1.1683705
11:25:40:026;-0.019153614;8.925584;1.1683705
11:25:40:026;-0.019153614;8.925584;1.1683705
11:25:40:026;-0.019153614;8.925584;1.1683705
11:25:40:026;-0.019153614;8.925584;1.1683705
11:25:40:026;-0.019153614;8.925584;1.1683705
11:25:40:026;-0.019153614;8.925584;1.1683705
11:25:40:026;-0.019153614;8.925584;1.1683705
11:25:40:026;-0.019153614;8.925584;1.1683705
11:25:40:026;-0.019153614;8.925584;1.1683705
11:25:40:026;-0.019153614;8.925584;1.1683705
11:25:40:026;-0.019153614;8.925584;1.1683705
11:25:40:026;-0.019153614;8.925584;1.1683705
11:25:40:026;-0.019153614;8.925584;1.1683705
11:25:40:026;-0.019153614;8.925584;1.1683705
11:25:40:144;-1.2066777;11.702858;-0.40222588
11:25:40:144;-1.2066777;11.702858;-0.40222588
11:25:40:144;-1.2066777;11.702858;-0.40222588
11:25:40:144;-1.2066777;11.702858;-0.40222588
11:25:40:144;-1.2066777;11.702858;-0.40222588
11:25:40:144;-1.2066777;11.702858;-0.40222588
11:25:40:144;-1.2066777;11.702858;-0.40222588
11:25:40:144;-1.2066777;11.702858;-0.40222588
11:25:40:144;-1.2066777;11.702858;-0.40222588
11:25:40:144;-1.2066777;11.702858;-0.40222588
11:25:40:144;-1.2066777;11.702858;-0.40222588
11:25:40:144;-1.2066777;11.702858;-0.40222588
11:25:40:144;-1.2066777;11.702858;-0.40222588
11:25:40:144;-1.2066777;11.702858;-0.40222588
11:25:40:144;-1.2066777;11.702858;-0.40222588
11:25:40:262;1.340753;9.021352;-1.4173675
11:25:40:262;1.340753;9.021352;-1.4173675
11:25:40:262;1.340753;9.021352;-1.4173675
11:25:40:262;1.340753;9.021352;-1.4173675
11:25:40:262;1.340753;9.021352;-1.4173675
11:25:40:262;1.340753;9.021352;-1.4173675
11:25:40:262;1.340753;9.021352;-1.4173675
11:25:40:262;1.340753;9.021352;-1.4173675
11:25:40:262;1.340753;9.021352;-1.4173675
11:25:40:262;1.340753;9.021352;-1.4173675
11:25:40:262;1.340753;9.021352;-1.4173675
11:25:40:262;1.340753;9.021352;-1.4173675
11:25:40:262;1.340753;9.021352;-1.4173675
11:25:40:362;0.1340753;10.860099;-0.8810662
11:25:40:362;0.1340753;10.860099;-0.8810662
11:25:40:362;0.1340753;10.860099;-0.8810662
11:25:40:362;0.1340753;10.860099;-0.8810662
11:25:40:362;0.1340753;10.860099;-0.8810662
11:25:40:362;0.1340753;10.860099;-0.8810662
11:25:40:362;0.1340753;10.860099;-0.8810662
11:25:40:362;0.1340753;10.860099;-0.8810662
11:25:40:362;0.1340753;10.860099;-0.8810662
11:25:40:362;0.1340753;10.860099;-0.8810662
11:25:40:362;0.1340753;10.860099;-0.8810662
11:25:40:362;0.1340753;10.860099;-0.8810662
11:25:40:362;0.1340753;10.860099;-0.8810662
11:25:40:362;0.1340753;10.860099;-0.8810662
11:25:40:471;-0.11492168;10.323798;0.2873042
11:25:40:471;-0.11492168;10.323798;0.2873042
11:25:40:471;-0.11492168;10.323798;0.2873042
11:25:40:471;-0.11492168;10.323798;0.2873042
11:25:40:471;-0.11492168;10.323798;0.2873042
11:25:40:471;-0.11492168;10.323798;0.2873042
11:25:40:471;-0.11492168;10.323798;0.2873042
11:25:40:471;-0.11492168;10.323798;0.2873042
11:25:40:471;-0.11492168;10.323798;0.2873042
11:25:40:471;-0.11492168;10.323798;0.2873042
11:25:40:471;-0.11492168;10.323798;0.2873042
11:25:40:471;-0.11492168;10.323798;0.2873042
11:25:40:471;-0.11492168;10.323798;0.2873042
11:25:40:578;0.842759;8.887277;-1.3215994
11:25:40:578;0.842759;8.887277;-1.3215994
11:25:40:578;0.842759;8.887277;-1.3215994
11:25:40:578;0.842759;8.887277;-1.3215994
11:25:40:578;0.842759;8.887277;-1.3215994
11:25:40:578;0.842759;8.887277;-1.3215994
11:25:40:578;0.842759;8.887277;-1.3215994
11:25:40:578;0.842759;8.887277;-1.3215994
11:25:40:578;0.842759;8.887277;-1.3215994
11:25:40:578;0.842759;8.887277;-1.3215994
11:25:40:578;0.842759;8.887277;-1.3215994
11:25:40:578;0.842759;8.887277;-1.3215994
11:25:40:578;0.842759;8.887277;-1.3215994
11:25:40:578;0.842759;8.887277;-1.3215994
11:25:40:578;0.842759;8.887277;-1.3215994
11:25:40:695;0.22984336;10.036493;-0.6512229
11:25:40:695;0.22984336;10.036493;-0.6512229
11:25:40:695;0.22984336;10.036493;-0.6512229
11:25:40:695;0.22984336;10.036493;-0.6512229
11:25:40:695;0.22984336;10.036493;-0.6512229
11:25:40:695;0.22984336;10.036493;-0.6512229
11:25:40:695;0.22984336;10.036493;-0.6512229
11:25:40:695;0.22984336;10.036493;-0.6512229
11:25:40:695;0.22984336;10.036493;-0.6512229
11:25:40:695;0.22984336;10.036493;-0.6512229
11:25:40:695;0.22984336;10.036493;-0.6512229
11:25:40:695;0.22984336;10.036493;-0.6512229
11:25:40:695;0.22984336;10.036493;-0.6512229
11:25:40:695;0.22984336;10.036493;-0.6512229
11:25:40:695;0.22984336;10.036493;-0.6512229
11:25:40:808;0.40222588;9.730036;0.49799395
11:25:40:808;0.40222588;9.730036;0.49799395
11:25:40:808;0.40222588;9.730036;0.49799395
11:25:40:808;0.40222588;9.730036;0.49799395
11:25:40:808;0.40222588;9.730036;0.49799395
11:25:40:808;0.40222588;9.730036;0.49799395
11:25:40:808;0.40222588;9.730036;0.49799395
11:25:40:808;0.40222588;9.730036;0.49799395
11:25:40:808;0.40222588;9.730036;0.49799395
11:25:40:808;0.40222588;9.730036;0.49799395
11:25:40:808;0.40222588;9.730036;0.49799395
11:25:40:808;0.40222588;9.730036;0.49799395
11:25:40:808;0.40222588;9.730036;0.49799395
11:25:40:909;-0.038307227;10.01734;-0.11492168
11:25:40:909;-0.038307227;10.01734;-0.11492168
11:25:40:909;-0.038307227;10.01734;-0.11492168
11:25:40:909;-0.038307227;10.01734;-0.11492168
11:25:40:909;-0.038307227;10.01734;-0.11492168
11:25:40:909;-0.038307227;10.01734;-0.11492168
11:25:40:909;-0.038307227;10.01734;-0.11492168
11:25:40:909;-0.038307227;10.01734;-0.11492168
11:25:40:909;-0.038307227;10.01734;-0.11492168
11:25:40:909;-0.038307227;10.01734;-0.11492168
11:25:40:909;-0.038307227;10.01734;-0.11492168
11:25:40:909;-0.038307227;10.01734;-0.11492168
11:25:40:909;-0.038307227;10.01734;-0.11492168
11:25:40:909;-0.038307227;10.01734;-0.11492168
11:25:40:909;-0.038307227;10.01734;-0.11492168
11:25:41:027;0.90021986;9.730036;-0.24899697
11:25:41:027;0.90021986;9.730036;-0.24899697
11:25:41:027;0.90021986;9.730036;-0.24899697
11:25:41:027;0.90021986;9.730036;-0.24899697
11:25:41:027;0.90021986;9.730036;-0.24899697
11:25:41:027;0.90021986;9.730036;-0.24899697
11:25:41:027;0.90021986;9.730036;-0.24899697
11:25:41:027;0.90021986;9.730036;-0.24899697
11:25:41:027;0.90021986;9.730036;-0.24899697
11:25:41:027;0.90021986;9.730036;-0.24899697
11:25:41:027;0.90021986;9.730036;-0.24899697
11:25:41:027;0.90021986;9.730036;-0.24899697
11:25:41:027;0.90021986;9.730036;-0.24899697
11:25:41:128;-0.61291564;9.844957;0.22984336
11:25:41:128;-0.61291564;9.844957;0.22984336
11:25:41:128;-0.61291564;9.844957;0.22984336
11:25:41:128;-0.61291564;9.844957;0.22984336
11:25:41:128;-0.61291564;9.844957;0.22984336
11:25:41:128;-0.61291564;9.844957;0.22984336
11:25:41:128;-0.61291564;9.844957;0.22984336
11:25:41:128;-0.61291564;9.844957;0.22984336
11:25:41:128;-0.61291564;9.844957;0.22984336
11:25:41:128;-0.61291564;9.844957;0.22984336
11:25:41:128;-0.61291564;9.844957;0.22984336
11:25:41:128;-0.61291564;9.844957;0.22984336
11:25:41:128;-0.61291564;9.844957;0.22984336
11:25:41:128;-0.61291564;9.844957;0.22984336
11:25:41:128;-0.61291564;9.844957;0.22984336
11:25:41:243;0.7086837;9.787497;0.17238252
11:25:41:243;0.7086837;9.787497;0.17238252
11:25:41:243;0.7086837;9.787497;0.17238252
11:25:41:243;0.7086837;9.787497;0.17238252
11:25:41:243;0.7086837;9.787497;0.17238252
11:25:41:243;0.7086837;9.787497;0.17238252
11:25:41:243;0.7086837;9.787497;0.17238252
11:25:41:243;0.7086837;9.787497;0.17238252
11:25:41:243;0.7086837;9.787497;0.17238252
11:25:41:243;0.7086837;9.787497;0.17238252
11:25:41:243;0.7086837;9.787497;0.17238252
11:25:41:243;0.7086837;9.787497;0.17238252
11:25:41:243;0.7086837;9.787497;0.17238252
11:25:41:243;0.7086837;9.787497;0.17238252
11:25:41:243;0.7086837;9.787497;0.17238252
11:25:41:360;1.4939818;9.998186;0.47884035
11:25:41:360;1.4939818;9.998186;0.47884035
11:25:41:360;1.4939818;9.998186;0.47884035
11:25:41:360;1.4939818;9.998186;0.47884035
11:25:41:360;1.4939818;9.998186;0.47884035
11:25:41:360;1.4939818;9.998186;0.47884035
11:25:41:360;1.4939818;9.998186;0.47884035
11:25:41:360;1.4939818;9.998186;0.47884035
11:25:41:360;1.4939818;9.998186;0.47884035
11:25:41:360;1.4939818;9.998186;0.47884035
11:25:41:360;1.4939818;9.998186;0.47884035
11:25:41:360;1.4939818;9.998186;0.47884035
11:25:41:360;1.4939818;9.998186;0.47884035
11:25:41:360;1.4939818;9.998186;0.47884035
11:25:41:469;0.8810662;10.6877165;-0.5746084
11:25:41:469;0.8810662;10.6877165;-0.5746084
11:25:41:469;0.8810662;10.6877165;-0.5746084
11:25:41:469;0.8810662;10.6877165;-0.5746084
11:25:41:469;0.8810662;10.6877165;-0.5746084
11:25:41:469;0.8810662;10.6877165;-0.5746084
11:25:41:469;0.8810662;10.6877165;-0.5746084
11:25:41:469;0.8810662;10.6877165;-0.5746084
11:25:41:469;0.8810662;10.6877165;-0.5746084
11:25:41:469;0.8810662;10.6877165;-0.5746084
11:25:41:469;0.8810662;10.6877165;-0.5746084
11:25:41:469;0.8810662;10.6877165;-0.5746084
11:25:41:469;0.8810662;10.6877165;-0.5746084
11:25:41:573;1.0726024;10.132261;-0.21068975
11:25:41:573;1.0726024;10.132261;-0.21068975
11:25:41:573;1.0726024;10.132261;-0.21068975
11:25:41:573;1.0726024;10.132261;-0.21068975
11:25:41:573;1.0726024;10.132261;-0.21068975
11:25:41:573;1.0726024;10.132261;-0.21068975
11:25:41:573;1.0726024;10.132261;-0.21068975
11:25:41:573;1.0726024;10.132261;-0.21068975
11:25:41:573;1.0726024;10.132261;-0.21068975
11:25:41:573;1.0726024;10.132261;-0.21068975
11:25:41:573;1.0726024;10.132261;-0.21068975
11:25:41:573;1.0726024;10.132261;-0.21068975
11:25:41:573;1.0726024;10.132261;-0.21068975
11:25:41:573;1.0726024;10.132261;-0.21068975
11:25:41:573;1.0726024;10.132261;-0.21068975
11:25:41:573;1.0726024;10.132261;-0.21068975
11:25:41:697;0.1340753;10.362105;0.36391866
11:25:41:697;0.1340753;10.362105;0.36391866
11:25:41:697;0.1340753;10.362105;0.36391866
11:25:41:697;0.1340753;10.362105;0.36391866
11:25:41:697;0.1340753;10.362105;0.36391866
11:25:41:697;0.1340753;10.362105;0.36391866
11:25:41:697;0.1340753;10.362105;0.36391866
11:25:41:697;0.1340753;10.362105;0.36391866
11:25:41:697;0.1340753;10.362105;0.36391866
11:25:41:697;0.1340753;10.362105;0.36391866
11:25:41:697;0.1340753;10.362105;0.36391866
11:25:41:697;0.1340753;10.362105;0.36391866
11:25:41:697;0.1340753;10.362105;0.36391866
11:25:41:697;0.1340753;10.362105;0.36391866
11:25:41:810;0.36391866;10.151415;-0.47884035
11:25:41:810;0.36391866;10.151415;-0.47884035
11:25:41:810;0.36391866;10.151415;-0.47884035
11:25:41:810;0.36391866;10.151415;-0.47884035
11:25:41:810;0.36391866;10.151415;-0.47884035
11:25:41:810;0.36391866;10.151415;-0.47884035
11:25:41:810;0.36391866;10.151415;-0.47884035
11:25:41:810;0.36391866;10.151415;-0.47884035
11:25:41:810;0.36391866;10.151415;-0.47884035
11:25:41:810;0.36391866;10.151415;-0.47884035
11:25:41:810;0.36391866;10.151415;-0.47884035
11:25:41:810;0.36391866;10.151415;-0.47884035
11:25:41:810;0.36391866;10.151415;-0.47884035
11:25:41:810;0.36391866;10.151415;-0.47884035
11:25:41:810;0.36391866;10.151415;-0.47884035
11:25:41:927;0.4405331;10.228029;-0.45968673
11:25:41:927;0.4405331;10.228029;-0.45968673
11:25:41:927;0.4405331;10.228029;-0.45968673
11:25:41:927;0.4405331;10.228029;-0.45968673
11:25:41:927;0.4405331;10.228029;-0.45968673
11:25:41:927;0.4405331;10.228029;-0.45968673
11:25:41:927;0.4405331;10.228029;-0.45968673
11:25:41:927;0.4405331;10.228029;-0.45968673
11:25:41:927;0.4405331;10.228029;-0.45968673
11:25:41:927;0.4405331;10.228029;-0.45968673
11:25:41:927;0.4405331;10.228029;-0.45968673
11:25:41:927;0.4405331;10.228029;-0.45968673
11:25:41:927;0.4405331;10.228029;-0.45968673
11:25:41:927;0.4405331;10.228029;-0.45968673
11:25:41:927;0.4405331;10.228029;-0.45968673
11:25:42:044;0.076614454;9.32781;1.8004397
11:25:42:044;0.076614454;9.32781;1.8004397
11:25:42:044;0.076614454;9.32781;1.8004397
11:25:42:044;0.076614454;9.32781;1.8004397
11:25:42:044;0.076614454;9.32781;1.8004397
11:25:42:044;0.076614454;9.32781;1.8004397
11:25:42:044;0.076614454;9.32781;1.8004397
11:25:42:044;0.076614454;9.32781;1.8004397
11:25:42:044;0.076614454;9.32781;1.8004397
11:25:42:044;0.076614454;9.32781;1.8004397
11:25:42:044;0.076614454;9.32781;1.8004397
11:25:42:044;0.076614454;9.32781;1.8004397
11:25:42:044;0.076614454;9.32781;1.8004397
11:25:42:044;0.076614454;9.32781;1.8004397
11:25:42:044;0.076614454;9.32781;1.8004397
11:25:42:163;0.6895301;10.228029;-1.4556746
11:25:42:163;0.6895301;10.228029;-1.4556746
11:25:42:163;0.6895301;10.228029;-1.4556746
11:25:42:163;0.6895301;10.228029;-1.4556746
11:25:42:163;0.6895301;10.228029;-1.4556746
11:25:42:163;0.6895301;10.228029;-1.4556746
11:25:42:163;0.6895301;10.228029;-1.4556746
11:25:42:163;0.6895301;10.228029;-1.4556746
11:25:42:163;0.6895301;10.228029;-1.4556746
11:25:42:163;0.6895301;10.228029;-1.4556746
11:25:42:163;0.6895301;10.228029;-1.4556746
11:25:42:163;0.6895301;10.228029;-1.4556746
11:25:42:163;0.6895301;10.228029;-1.4556746
11:25:42:163;0.6895301;10.228029;-1.4556746
11:25:42:163;0.6895301;10.228029;-1.4556746
11:25:42:280;0.21068975;9.749189;0.24899697
11:25:42:280;0.21068975;9.749189;0.24899697
11:25:42:280;0.21068975;9.749189;0.24899697
11:25:42:280;0.21068975;9.749189;0.24899697
11:25:42:280;0.21068975;9.749189;0.24899697
11:25:42:280;0.21068975;9.749189;0.24899697
11:25:42:280;0.21068975;9.749189;0.24899697
11:25:42:280;0.21068975;9.749189;0.24899697
11:25:42:280;0.21068975;9.749189;0.24899697
11:25:42:280;0.21068975;9.749189;0.24899697
11:25:42:280;0.21068975;9.749189;0.24899697
11:25:42:280;0.21068975;9.749189;0.24899697
11:25:42:280;0.21068975;9.749189;0.24899697
11:25:42:280;0.21068975;9.749189;0.24899697
11:25:42:280;0.21068975;9.749189;0.24899697
11:25:42:396;0.2681506;10.036493;0.30645782
11:25:42:396;0.2681506;10.036493;0.30645782
11:25:42:396;0.2681506;10.036493;0.30645782
11:25:42:396;0.2681506;10.036493;0.30645782
11:25:42:396;0.2681506;10.036493;0.30645782
11:25:42:396;0.2681506;10.036493;0.30645782
11:25:42:396;0.2681506;10.036493;0.30645782
11:25:42:396;0.2681506;10.036493;0.30645782
11:25:42:396;0.2681506;10.036493;0.30645782
11:25:42:396;0.2681506;10.036493;0.30645782
11:25:42:396;0.2681506;10.036493;0.30645782
11:25:42:396;0.2681506;10.036493;0.30645782
11:25:42:396;0.2681506;10.036493;0.30645782
11:25:42:396;0.2681506;10.036493;0.30645782
11:25:42:396;0.2681506;10.036493;0.30645782
11:25:42:396;0.2681506;10.036493;0.30645782
11:25:42:396;0.2681506;10.036493;0.30645782
11:25:42:396;0.2681506;10.036493;0.30645782
11:25:42:396;0.2681506;10.036493;0.30645782
11:25:42:545;0.2873042;9.80665;-1.2066777
11:25:42:545;0.2873042;9.80665;-1.2066777
11:25:42:545;0.2873042;9.80665;-1.2066777
11:25:42:545;0.2873042;9.80665;-1.2066777
11:25:42:545;0.2873042;9.80665;-1.2066777
11:25:42:545;0.2873042;9.80665;-1.2066777
11:25:42:545;0.2873042;9.80665;-1.2066777
11:25:42:545;0.2873042;9.80665;-1.2066777
11:25:42:545;0.2873042;9.80665;-1.2066777
11:25:42:545;0.2873042;9.80665;-1.2066777
11:25:42:545;0.2873042;9.80665;-1.2066777
11:25:42:545;0.2873042;9.80665;-1.2066777
11:25:42:545;0.2873042;9.80665;-1.2066777
11:25:42:545;0.2873042;9.80665;-1.2066777
11:25:42:650;0.17238252;10.266336;-0.076614454
11:25:42:650;0.17238252;10.266336;-0.076614454
11:25:42:650;0.17238252;10.266336;-0.076614454
11:25:42:650;0.17238252;10.266336;-0.076614454
11:25:42:650;0.17238252;10.266336;-0.076614454
11:25:42:650;0.17238252;10.266336;-0.076614454
11:25:42:650;0.17238252;10.266336;-0.076614454
11:25:42:650;0.17238252;10.266336;-0.076614454
11:25:42:650;0.17238252;10.266336;-0.076614454
11:25:42:650;0.17238252;10.266336;-0.076614454
11:25:42:650;0.17238252;10.266336;-0.076614454
11:25:42:650;0.17238252;10.266336;-0.076614454
11:25:42:650;0.17238252;10.266336;-0.076614454
11:25:42:650;0.17238252;10.266336;-0.076614454
11:25:42:650;0.17238252;10.266336;-0.076614454
11:25:42:769;0.45968673;10.266336;-0.076614454
11:25:42:769;0.45968673;10.266336;-0.076614454
11:25:42:769;0.45968673;10.266336;-0.076614454
11:25:42:769;0.45968673;10.266336;-0.076614454
11:25:42:769;0.45968673;10.266336;-0.076614454
11:25:42:769;0.45968673;10.266336;-0.076614454
11:25:42:769;0.45968673;10.266336;-0.076614454
11:25:42:769;0.45968673;10.266336;-0.076614454
11:25:42:769;0.45968673;10.266336;-0.076614454
11:25:42:769;0.45968673;10.266336;-0.076614454
11:25:42:769;0.45968673;10.266336;-0.076614454
11:25:42:769;0.45968673;10.266336;-0.076614454
11:25:42:769;0.45968673;10.266336;-0.076614454
11:25:42:769;0.45968673;10.266336;-0.076614454
11:25:42:769;0.45968673;10.266336;-0.076614454
11:25:42:888;0.93852705;10.879252;0.24899697
11:25:42:888;0.93852705;10.879252;0.24899697
11:25:42:888;0.93852705;10.879252;0.24899697
11:25:42:888;0.93852705;10.879252;0.24899697
11:25:42:888;0.93852705;10.879252;0.24899697
11:25:42:888;0.93852705;10.879252;0.24899697
11:25:42:888;0.93852705;10.879252;0.24899697
11:25:42:888;0.93852705;10.879252;0.24899697
11:25:42:888;0.93852705;10.879252;0.24899697
11:25:42:888;0.93852705;10.879252;0.24899697
11:25:42:888;0.93852705;10.879252;0.24899697
11:25:42:888;0.93852705;10.879252;0.24899697
11:25:42:888;0.93852705;10.879252;0.24899697
11:25:42:888;0.93852705;10.879252;0.24899697
11:25:42:888;0.93852705;10.879252;0.24899697
11:25:42:888;0.93852705;10.879252;0.24899697
11:25:43:012;-1.0151415;11.626244;-0.80445176
11:25:43:012;-1.0151415;11.626244;-0.80445176
11:25:43:012;-1.0151415;11.626244;-0.80445176
11:25:43:012;-1.0151415;11.626244;-0.80445176
11:25:43:012;-1.0151415;11.626244;-0.80445176
11:25:43:012;-1.0151415;11.626244;-0.80445176
11:25:43:012;-1.0151415;11.626244;-0.80445176
11:25:43:012;-1.0151415;11.626244;-0.80445176
11:25:43:012;-1.0151415;11.626244;-0.80445176
11:25:43:012;-1.0151415;11.626244;-0.80445176
11:25:43:012;-1.0151415;11.626244;-0.80445176
11:25:43:012;-1.0151415;11.626244;-0.80445176
11:25:43:012;-1.0151415;11.626244;-0.80445176
11:25:43:012;-1.0151415;11.626244;-0.80445176
11:25:43:121;0.45968673;10.189722;-1.283292
11:25:43:121;0.45968673;10.189722;-1.283292
11:25:43:121;0.45968673;10.189722;-1.283292
11:25:43:121;0.45968673;10.189722;-1.283292
11:25:43:121;0.45968673;10.189722;-1.283292
11:25:43:121;0.45968673;10.189722;-1.283292
11:25:43:121;0.45968673;10.189722;-1.283292
11:25:43:121;0.45968673;10.189722;-1.283292
11:25:43:121;0.45968673;10.189722;-1.283292
11:25:43:121;0.45968673;10.189722;-1.283292
11:25:43:121;0.45968673;10.189722;-1.283292
11:25:43:121;0.45968673;10.189722;-1.283292
11:25:43:121;0.45968673;10.189722;-1.283292
11:25:43:224;0.095768064;9.481039;-0.076614454
11:25:43:224;0.095768064;9.481039;-0.076614454
11:25:43:224;0.095768064;9.481039;-0.076614454
11:25:43:224;0.095768064;9.481039;-0.076614454
11:25:43:224;0.095768064;9.481039;-0.076614454
11:25:43:224;0.095768064;9.481039;-0.076614454
11:25:43:224;0.095768064;9.481039;-0.076614454
11:25:43:224;0.095768064;9.481039;-0.076614454
11:25:43:224;0.095768064;9.481039;-0.076614454
11:25:43:224;0.095768064;9.481039;-0.076614454
11:25:43:224;0.095768064;9.481039;-0.076614454
11:25:43:224;0.095768064;9.481039;-0.076614454
11:25:43:224;0.095768064;9.481039;-0.076614454
11:25:43:224;0.095768064;9.481039;-0.076614454
11:25:43:224;0.095768064;9.481039;-0.076614454
11:25:43:343;0.63206923;10.553641;0.36391866
11:25:43:343;0.63206923;10.553641;0.36391866
11:25:43:343;0.63206923;10.553641;0.36391866
11:25:43:343;0.63206923;10.553641;0.36391866
11:25:43:343;0.63206923;10.553641;0.36391866
11:25:43:343;0.63206923;10.553641;0.36391866
11:25:43:343;0.63206923;10.553641;0.36391866
11:25:43:343;0.63206923;10.553641;0.36391866
11:25:43:343;0.63206923;10.553641;0.36391866
11:25:43:343;0.63206923;10.553641;0.36391866
11:25:43:343;0.63206923;10.553641;0.36391866
11:25:43:343;0.63206923;10.553641;0.36391866
11:25:43:343;0.63206923;10.553641;0.36391866
11:25:43:343;0.63206923;10.553641;0.36391866
11:25:43:343;0.63206923;10.553641;0.36391866
11:25:43:459;-0.15322891;10.994174;0.47884035
11:25:43:459;-0.15322891;10.994174;0.47884035
11:25:43:459;-0.15322891;10.994174;0.47884035
11:25:43:459;-0.15322891;10.994174;0.47884035
11:25:43:459;-0.15322891;10.994174;0.47884035
11:25:43:459;-0.15322891;10.994174;0.47884035
11:25:43:459;-0.15322891;10.994174;0.47884035
11:25:43:459;-0.15322891;10.994174;0.47884035
11:25:43:459;-0.15322891;10.994174;0.47884035
11:25:43:459;-0.15322891;10.994174;0.47884035
11:25:43:459;-0.15322891;10.994174;0.47884035
11:25:43:459;-0.15322891;10.994174;0.47884035
11:25:43:459;-0.15322891;10.994174;0.47884035
11:25:43:459;-0.15322891;10.994174;0.47884035
11:25:43:459;-0.15322891;10.994174;0.47884035
11:25:43:575;0.6703765;9.461885;1.436521
11:25:43:575;0.6703765;9.461885;1.436521
11:25:43:575;0.6703765;9.461885;1.436521
11:25:43:575;0.6703765;9.461885;1.436521
11:25:43:575;0.6703765;9.461885;1.436521
11:25:43:575;0.6703765;9.461885;1.436521
11:25:43:575;0.6703765;9.461885;1.436521
11:25:43:575;0.6703765;9.461885;1.436521
11:25:43:575;0.6703765;9.461885;1.436521
11:25:43:575;0.6703765;9.461885;1.436521
11:25:43:575;0.6703765;9.461885;1.436521
11:25:43:575;0.6703765;9.461885;1.436521
11:25:43:575;0.6703765;9.461885;1.436521
11:25:43:575;0.6703765;9.461885;1.436521
11:25:43:575;0.6703765;9.461885;1.436521
11:25:43:575;0.6703765;9.461885;1.436521
11:25:43:575;0.6703765;9.461885;1.436521
11:25:43:705;-0.095768064;11.051635;-1.3024458
11:25:43:705;-0.095768064;11.051635;-1.3024458
11:25:43:705;-0.095768064;11.051635;-1.3024458
11:25:43:705;-0.095768064;11.051635;-1.3024458
11:25:43:705;-0.095768064;11.051635;-1.3024458
11:25:43:705;-0.095768064;11.051635;-1.3024458
11:25:43:705;-0.095768064;11.051635;-1.3024458
11:25:43:705;-0.095768064;11.051635;-1.3024458
11:25:43:705;-0.095768064;11.051635;-1.3024458
11:25:43:705;-0.095768064;11.051635;-1.3024458
11:25:43:705;-0.095768064;11.051635;-1.3024458
11:25:43:705;-0.095768064;11.051635;-1.3024458
11:25:43:705;-0.095768064;11.051635;-1.3024458
11:25:43:809;1.1109096;9.346964;0.30645782
11:25:43:809;1.1109096;9.346964;0.30645782
11:25:43:809;1.1109096;9.346964;0.30645782
11:25:43:809;1.1109096;9.346964;0.30645782
11:25:43:809;1.1109096;9.346964;0.30645782
11:25:43:809;1.1109096;9.346964;0.30645782
11:25:43:809;1.1109096;9.346964;0.30645782
11:25:43:809;1.1109096;9.346964;0.30645782
11:25:43:809;1.1109096;9.346964;0.30645782
11:25:43:809;1.1109096;9.346964;0.30645782
11:25:43:809;1.1109096;9.346964;0.30645782
11:25:43:809;1.1109096;9.346964;0.30645782
11:25:43:809;1.1109096;9.346964;0.30645782
11:25:43:809;1.1109096;9.346964;0.30645782
11:25:43:809;1.1109096;9.346964;0.30645782
11:25:43:928;-0.30645782;10.28549;0.038307227
11:25:43:928;-0.30645782;10.28549;0.038307227
11:25:43:928;-0.30645782;10.28549;0.038307227
11:25:43:928;-0.30645782;10.28549;0.038307227
11:25:43:928;-0.30645782;10.28549;0.038307227
11:25:43:928;-0.30645782;10.28549;0.038307227
11:25:43:928;-0.30645782;10.28549;0.038307227
11:25:43:928;-0.30645782;10.28549;0.038307227
11:25:43:928;-0.30645782;10.28549;0.038307227
11:25:43:928;-0.30645782;10.28549;0.038307227
11:25:43:928;-0.30645782;10.28549;0.038307227
11:25:43:928;-0.30645782;10.28549;0.038307227
11:25:43:928;-0.30645782;10.28549;0.038307227
11:25:43:928;-0.30645782;10.28549;0.038307227
11:25:43:928;-0.30645782;10.28549;0.038307227
11:25:44:046;0.019153614;10.400413;-0.095768064
11:25:44:046;0.019153614;10.400413;-0.095768064
11:25:44:046;0.019153614;10.400413;-0.095768064
11:25:44:046;0.019153614;10.400413;-0.095768064
11:25:44:046;0.019153614;10.400413;-0.095768064
11:25:44:046;0.019153614;10.400413;-0.095768064
11:25:44:046;0.019153614;10.400413;-0.095768064
11:25:44:046;0.019153614;10.400413;-0.095768064
11:25:44:046;0.019153614;10.400413;-0.095768064
11:25:44:046;0.019153614;10.400413;-0.095768064
11:25:44:046;0.019153614;10.400413;-0.095768064
11:25:44:046;0.019153614;10.400413;-0.095768064
11:25:44:046;0.019153614;10.400413;-0.095768064
11:25:44:046;0.019153614;10.400413;-0.095768064
11:25:44:046;0.019153614;10.400413;-0.095768064
11:25:44:162;0.11492168;10.936713;0.076614454
11:25:44:162;0.11492168;10.936713;0.076614454
11:25:44:162;0.11492168;10.936713;0.076614454
11:25:44:162;0.11492168;10.936713;0.076614454
11:25:44:162;0.11492168;10.936713;0.076614454
11:25:44:162;0.11492168;10.936713;0.076614454
11:25:44:162;0.11492168;10.936713;0.076614454
11:25:44:162;0.11492168;10.936713;0.076614454
11:25:44:162;0.11492168;10.936713;0.076614454
11:25:44:162;0.11492168;10.936713;0.076614454
11:25:44:162;0.11492168;10.936713;0.076614454
11:25:44:162;0.11492168;10.936713;0.076614454
11:25:44:162;0.11492168;10.936713;0.076614454
11:25:44:162;0.11492168;10.936713;0.076614454
11:25:44:162;0.11492168;10.936713;0.076614454
11:25:44:162;0.11492168;10.936713;0.076614454
11:25:44:162;0.11492168;10.936713;0.076614454
11:25:44:162;0.11492168;10.936713;0.076614454
11:25:44:303;0.019153614;9.921572;-0.019153614
11:25:44:303;0.019153614;9.921572;-0.019153614
11:25:44:303;0.019153614;9.921572;-0.019153614
11:25:44:303;0.019153614;9.921572;-0.019153614
11:25:44:303;0.019153614;9.921572;-0.019153614
11:25:44:303;0.019153614;9.921572;-0.019153614
11:25:44:303;0.019153614;9.921572;-0.019153614
11:25:44:303;0.019153614;9.921572;-0.019153614
11:25:44:303;0.019153614;9.921572;-0.019153614
11:25:44:303;0.019153614;9.921572;-0.019153614
11:25:44:303;0.019153614;9.921572;-0.019153614
11:25:44:303;0.019153614;9.921572;-0.019153614
11:25:44:303;0.019153614;9.921572;-0.019153614
11:25:44:303;0.019153614;9.921572;-0.019153614
11:25:44:303;0.019153614;9.921572;-0.019153614
11:25:44:303;0.019153614;9.921572;-0.019153614
11:25:44:303;0.019153614;9.921572;-0.019153614
11:25:44:303;0.019153614;9.921572;-0.019153614
11:25:44:444;0.076614454;10.764331;-0.17238252
11:25:44:444;0.076614454;10.764331;-0.17238252
11:25:44:444;0.076614454;10.764331;-0.17238252
11:25:44:444;0.076614454;10.764331;-0.17238252
11:25:44:444;0.076614454;10.764331;-0.17238252
11:25:44:444;0.076614454;10.764331;-0.17238252
11:25:44:444;0.076614454;10.764331;-0.17238252
11:25:44:444;0.076614454;10.764331;-0.17238252
11:25:44:444;0.076614454;10.764331;-0.17238252
11:25:44:444;0.076614454;10.764331;-0.17238252
11:25:44:444;0.076614454;10.764331;-0.17238252
11:25:44:444;0.076614454;10.764331;-0.17238252
11:25:44:444;0.076614454;10.764331;-0.17238252
11:25:44:444;0.076614454;10.764331;-0.17238252
11:25:44:547;-0.21068975;10.055647;0.5554548
11:25:44:547;-0.21068975;10.055647;0.5554548
11:25:44:547;-0.21068975;10.055647;0.5554548
11:25:44:547;-0.21068975;10.055647;0.5554548
11:25:44:547;-0.21068975;10.055647;0.5554548
11:25:44:547;-0.21068975;10.055647;0.5554548
11:25:44:547;-0.21068975;10.055647;0.5554548
11:25:44:547;-0.21068975;10.055647;0.5554548
11:25:44:547;-0.21068975;10.055647;0.5554548
11:25:44:547;-0.21068975;10.055647;0.5554548
11:25:44:547;-0.21068975;10.055647;0.5554548
11:25:44:547;-0.21068975;10.055647;0.5554548
11:25:44:547;-0.21068975;10.055647;0.5554548
11:25:44:649;0.5746084;9.672575;0.4213795
11:25:44:649;0.5746084;9.672575;0.4213795
11:25:44:649;0.5746084;9.672575;0.4213795
11:25:44:649;0.5746084;9.672575;0.4213795
11:25:44:649;0.5746084;9.672575;0.4213795
11:25:44:649;0.5746084;9.672575;0.4213795
11:25:44:649;0.5746084;9.672575;0.4213795
11:25:44:649;0.5746084;9.672575;0.4213795
11:25:44:649;0.5746084;9.672575;0.4213795
11:25:44:649;0.5746084;9.672575;0.4213795
11:25:44:649;0.5746084;9.672575;0.4213795
11:25:44:649;0.5746084;9.672575;0.4213795
11:25:44:649;0.5746084;9.672575;0.4213795
11:25:44:649;0.5746084;9.672575;0.4213795
11:25:44:649;0.5746084;9.672575;0.4213795
11:25:44:766;0.78529817;10.400413;-0.7469909
11:25:44:766;0.78529817;10.400413;-0.7469909
11:25:44:766;0.78529817;10.400413;-0.7469909
11:25:44:766;0.78529817;10.400413;-0.7469909
11:25:44:766;0.78529817;10.400413;-0.7469909
11:25:44:766;0.78529817;10.400413;-0.7469909
11:25:44:766;0.78529817;10.400413;-0.7469909
11:25:44:766;0.78529817;10.400413;-0.7469909
11:25:44:766;0.78529817;10.400413;-0.7469909
11:25:44:766;0.78529817;10.400413;-0.7469909
11:25:44:766;0.78529817;10.400413;-0.7469909
11:25:44:766;0.78529817;10.400413;-0.7469909
11:25:44:766;0.78529817;10.400413;-0.7469909
11:25:44:766;0.78529817;10.400413;-0.7469909
11:25:44:766;0.78529817;10.400413;-0.7469909
11:25:44:885;0.24899697;9.212888;0.8810662
11:25:44:885;0.24899697;9.212888;0.8810662
11:25:44:885;0.24899697;9.212888;0.8810662
11:25:44:885;0.24899697;9.212888;0.8810662
11:25:44:885;0.24899697;9.212888;0.8810662
11:25:44:885;0.24899697;9.212888;0.8810662
11:25:44:885;0.24899697;9.212888;0.8810662
11:25:44:885;0.24899697;9.212888;0.8810662
11:25:44:885;0.24899697;9.212888;0.8810662
11:25:44:885;0.24899697;9.212888;0.8810662
11:25:44:885;0.24899697;9.212888;0.8810662
11:25:44:885;0.24899697;9.212888;0.8810662
11:25:44:885;0.24899697;9.212888;0.8810662
11:25:44:885;0.24899697;9.212888;0.8810662
11:25:44:885;0.24899697;9.212888;0.8810662
11:25:45:002;0.22984336;9.634268;0.4213795
11:25:45:002;0.22984336;9.634268;0.4213795
11:25:45:002;0.22984336;9.634268;0.4213795
11:25:45:002;0.22984336;9.634268;0.4213795
11:25:45:002;0.22984336;9.634268;0.4213795
11:25:45:002;0.22984336;9.634268;0.4213795
11:25:45:002;0.22984336;9.634268;0.4213795
11:25:45:002;0.22984336;9.634268;0.4213795
11:25:45:002;0.22984336;9.634268;0.4213795
11:25:45:002;0.22984336;9.634268;0.4213795
11:25:45:002;0.22984336;9.634268;0.4213795
11:25:45:002;0.22984336;9.634268;0.4213795
11:25:45:002;0.22984336;9.634268;0.4213795
11:25:45:002;0.22984336;9.634268;0.4213795
11:25:45:117;0.4213795;10.783484;-0.7469909
11:25:45:117;0.4213795;10.783484;-0.7469909
11:25:45:117;0.4213795;10.783484;-0.7469909
11:25:45:117;0.4213795;10.783484;-0.7469909
11:25:45:117;0.4213795;10.783484;-0.7469909
11:25:45:117;0.4213795;10.783484;-0.7469909
11:25:45:117;0.4213795;10.783484;-0.7469909
11:25:45:117;0.4213795;10.783484;-0.7469909
11:25:45:117;0.4213795;10.783484;-0.7469909
11:25:45:117;0.4213795;10.783484;-0.7469909
11:25:45:117;0.4213795;10.783484;-0.7469909
11:25:45:117;0.4213795;10.783484;-0.7469909
11:25:45:117;0.4213795;10.783484;-0.7469909
11:25:45:117;0.4213795;10.783484;-0.7469909
11:25:45:117;0.4213795;10.783484;-0.7469909
11:25:45:117;0.4213795;10.783484;-0.7469909
11:25:45:235;0.19153613;9.959879;1.2258313
11:25:45:235;0.19153613;9.959879;1.2258313
11:25:45:235;0.19153613;9.959879;1.2258313
11:25:45:235;0.19153613;9.959879;1.2258313
11:25:45:235;0.19153613;9.959879;1.2258313
11:25:45:235;0.19153613;9.959879;1.2258313
11:25:45:235;0.19153613;9.959879;1.2258313
11:25:45:235;0.19153613;9.959879;1.2258313
11:25:45:235;0.19153613;9.959879;1.2258313
11:25:45:235;0.19153613;9.959879;1.2258313
11:25:45:235;0.19153613;9.959879;1.2258313
11:25:45:235;0.19153613;9.959879;1.2258313
11:25:45:235;0.19153613;9.959879;1.2258313
11:25:45:235;0.19153613;9.959879;1.2258313
11:25:45:235;0.19153613;9.959879;1.2258313
11:25:45:353;0.076614454;10.362105;-0.6895301
11:25:45:353;0.076614454;10.362105;-0.6895301
11:25:45:353;0.076614454;10.362105;-0.6895301
11:25:45:353;0.076614454;10.362105;-0.6895301
11:25:45:353;0.076614454;10.362105;-0.6895301
11:25:45:353;0.076614454;10.362105;-0.6895301
11:25:45:353;0.076614454;10.362105;-0.6895301
11:25:45:353;0.076614454;10.362105;-0.6895301
11:25:45:353;0.076614454;10.362105;-0.6895301
11:25:45:353;0.076614454;10.362105;-0.6895301
11:25:45:353;0.076614454;10.362105;-0.6895301
11:25:45:353;0.076614454;10.362105;-0.6895301
11:25:45:353;0.076614454;10.362105;-0.6895301
11:25:45:353;0.076614454;10.362105;-0.6895301
11:25:45:468;0.9576807;10.457873;0.076614454
11:25:45:468;0.9576807;10.457873;0.076614454
11:25:45:468;0.9576807;10.457873;0.076614454
11:25:45:468;0.9576807;10.457873;0.076614454
11:25:45:468;0.9576807;10.457873;0.076614454
11:25:45:468;0.9576807;10.457873;0.076614454
11:25:45:468;0.9576807;10.457873;0.076614454
11:25:45:468;0.9576807;10.457873;0.076614454
11:25:45:468;0.9576807;10.457873;0.076614454
11:25:45:468;0.9576807;10.457873;0.076614454
11:25:45:468;0.9576807;10.457873;0.076614454
11:25:45:468;0.9576807;10.457873;0.076614454
11:25:45:468;0.9576807;10.457873;0.076614454
11:25:45:468;0.9576807;10.457873;0.076614454
11:25:45:468;0.9576807;10.457873;0.076614454
11:25:45:468;0.9576807;10.457873;0.076614454
11:25:45:592;0.6512229;10.649409;0.6703765
11:25:45:592;0.6512229;10.649409;0.6703765
11:25:45:592;0.6512229;10.649409;0.6703765
11:25:45:592;0.6512229;10.649409;0.6703765
11:25:45:592;0.6512229;10.649409;0.6703765
11:25:45:592;0.6512229;10.649409;0.6703765
11:25:45:592;0.6512229;10.649409;0.6703765
11:25:45:592;0.6512229;10.649409;0.6703765
11:25:45:592;0.6512229;10.649409;0.6703765
11:25:45:592;0.6512229;10.649409;0.6703765
11:25:45:592;0.6512229;10.649409;0.6703765
11:25:45:592;0.6512229;10.649409;0.6703765
11:25:45:592;0.6512229;10.649409;0.6703765
11:25:45:592;0.6512229;10.649409;0.6703765
11:25:45:703;0.019153614;10.611102;-0.1340753
11:25:45:703;0.019153614;10.611102;-0.1340753
11:25:45:703;0.019153614;10.611102;-0.1340753
11:25:45:703;0.019153614;10.611102;-0.1340753
11:25:45:703;0.019153614;10.611102;-0.1340753
11:25:45:703;0.019153614;10.611102;-0.1340753
11:25:45:703;0.019153614;10.611102;-0.1340753
11:25:45:703;0.019153614;10.611102;-0.1340753
11:25:45:703;0.019153614;10.611102;-0.1340753
11:25:45:703;0.019153614;10.611102;-0.1340753
11:25:45:703;0.019153614;10.611102;-0.1340753
11:25:45:703;0.019153614;10.611102;-0.1340753
11:25:45:703;0.019153614;10.611102;-0.1340753
11:25:45:703;0.019153614;10.611102;-0.1340753
11:25:45:703;0.019153614;10.611102;-0.1340753
11:25:45:814;0.6895301;9.844957;-0.47884035
11:25:45:814;0.6895301;9.844957;-0.47884035
11:25:45:814;0.6895301;9.844957;-0.47884035
11:25:45:814;0.6895301;9.844957;-0.47884035
11:25:45:814;0.6895301;9.844957;-0.47884035
11:25:45:814;0.6895301;9.844957;-0.47884035
11:25:45:814;0.6895301;9.844957;-0.47884035
11:25:45:814;0.6895301;9.844957;-0.47884035
11:25:45:814;0.6895301;9.844957;-0.47884035
11:25:45:814;0.6895301;9.844957;-0.47884035
11:25:45:814;0.6895301;9.844957;-0.47884035
11:25:45:814;0.6895301;9.844957;-0.47884035
11:25:45:814;0.6895301;9.844957;-0.47884035
11:25:45:920;0.4405331;10.247183;-0.32561144
11:25:45:920;0.4405331;10.247183;-0.32561144
11:25:45:920;0.4405331;10.247183;-0.32561144
11:25:45:920;0.4405331;10.247183;-0.32561144
11:25:45:920;0.4405331;10.247183;-0.32561144
11:25:45:920;0.4405331;10.247183;-0.32561144
11:25:45:920;0.4405331;10.247183;-0.32561144
11:25:45:920;0.4405331;10.247183;-0.32561144
11:25:45:920;0.4405331;10.247183;-0.32561144
11:25:45:920;0.4405331;10.247183;-0.32561144
11:25:45:920;0.4405331;10.247183;-0.32561144
11:25:45:920;0.4405331;10.247183;-0.32561144
11:25:45:920;0.4405331;10.247183;-0.32561144
11:25:45:920;0.4405331;10.247183;-0.32561144
11:25:46:026;1.1109096;10.362105;-0.4213795
11:25:46:026;1.1109096;10.362105;-0.4213795
11:25:46:026;1.1109096;10.362105;-0.4213795
11:25:46:026;1.1109096;10.362105;-0.4213795
11:25:46:026;1.1109096;10.362105;-0.4213795
11:25:46:026;1.1109096;10.362105;-0.4213795
11:25:46:026;1.1109096;10.362105;-0.4213795
11:25:46:026;1.1109096;10.362105;-0.4213795
11:25:46:026;1.1109096;10.362105;-0.4213795
11:25:46:026;1.1109096;10.362105;-0.4213795
11:25:46:026;1.1109096;10.362105;-0.4213795
11:25:46:026;1.1109096;10.362105;-0.4213795
11:25:46:026;1.1109096;10.362105;-0.4213795
11:25:46:026;1.1109096;10.362105;-0.4213795
11:25:46:135;0.21068975;9.959879;0.38307226
11:25:46:135;0.21068975;9.959879;0.38307226
11:25:46:135;0.21068975;9.959879;0.38307226
11:25:46:135;0.21068975;9.959879;0.38307226
11:25:46:135;0.21068975;9.959879;0.38307226
11:25:46:135;0.21068975;9.959879;0.38307226
11:25:46:135;0.21068975;9.959879;0.38307226
11:25:46:135;0.21068975;9.959879;0.38307226
11:25:46:135;0.21068975;9.959879;0.38307226
11:25:46:135;0.21068975;9.959879;0.38307226
11:25:46:135;0.21068975;9.959879;0.38307226
11:25:46:135;0.21068975;9.959879;0.38307226
11:25:46:135;0.21068975;9.959879;0.38307226
11:25:46:135;0.21068975;9.959879;0.38307226
11:25:46:135;0.21068975;9.959879;0.38307226
11:25:46:252;0.24899697;9.825804;0.36391866
11:25:46:252;0.24899697;9.825804;0.36391866
11:25:46:252;0.24899697;9.825804;0.36391866
11:25:46:252;0.24899697;9.825804;0.36391866
11:25:46:252;0.24899697;9.825804;0.36391866
11:25:46:252;0.24899697;9.825804;0.36391866
11:25:46:252;0.24899697;9.825804;0.36391866
11:25:46:252;0.24899697;9.825804;0.36391866
11:25:46:252;0.24899697;9.825804;0.36391866
11:25:46:252;0.24899697;9.825804;0.36391866
11:25:46:252;0.24899697;9.825804;0.36391866
11:25:46:252;0.24899697;9.825804;0.36391866
11:25:46:252;0.24899697;9.825804;0.36391866
11:25:46:252;0.24899697;9.825804;0.36391866
11:25:46:252;0.24899697;9.825804;0.36391866
11:25:46:369;1.1875241;9.615114;0.019153614
11:25:46:369;1.1875241;9.615114;0.019153614
11:25:46:369;1.1875241;9.615114;0.019153614
11:25:46:369;1.1875241;9.615114;0.019153614
11:25:46:369;1.1875241;9.615114;0.019153614
11:25:46:369;1.1875241;9.615114;0.019153614
11:25:46:369;1.1875241;9.615114;0.019153614
11:25:46:369;1.1875241;9.615114;0.019153614
11:25:46:369;1.1875241;9.615114;0.019153614
11:25:46:369;1.1875241;9.615114;0.019153614
11:25:46:369;1.1875241;9.615114;0.019153614
11:25:46:369;1.1875241;9.615114;0.019153614
11:25:46:369;1.1875241;9.615114;0.019153614
11:25:46:471;0.842759;9.902418;-0.019153614
11:25:46:471;0.842759;9.902418;-0.019153614
11:25:46:471;0.842759;9.902418;-0.019153614
11:25:46:471;0.842759;9.902418;-0.019153614
11:25:46:471;0.842759;9.902418;-0.019153614
11:25:46:471;0.842759;9.902418;-0.019153614
11:25:46:471;0.842759;9.902418;-0.019153614
11:25:46:471;0.842759;9.902418;-0.019153614
11:25:46:471;0.842759;9.902418;-0.019153614
11:25:46:471;0.842759;9.902418;-0.019153614
11:25:46:471;0.842759;9.902418;-0.019153614
11:25:46:471;0.842759;9.902418;-0.019153614
11:25:46:471;0.842759;9.902418;-0.019153614
11:25:46:578;0.40222588;9.902418;-0.2873042
11:25:46:578;0.40222588;9.902418;-0.2873042
11:25:46:578;0.40222588;9.902418;-0.2873042
11:25:46:578;0.40222588;9.902418;-0.2873042
11:25:46:578;0.40222588;9.902418;-0.2873042
11:25:46:578;0.40222588;9.902418;-0.2873042
11:25:46:578;0.40222588;9.902418;-0.2873042
11:25:46:578;0.40222588;9.902418;-0.2873042
11:25:46:578;0.40222588;9.902418;-0.2873042
11:25:46:578;0.40222588;9.902418;-0.2873042
11:25:46:578;0.40222588;9.902418;-0.2873042
11:25:46:578;0.40222588;9.902418;-0.2873042
11:25:46:578;0.40222588;9.902418;-0.2873042
11:25:46:578;0.40222588;9.902418;-0.2873042
11:25:46:684;0.8810662;10.496181;0.80445176
11:25:46:684;0.8810662;10.496181;0.80445176
11:25:46:684;0.8810662;10.496181;0.80445176
11:25:46:684;0.8810662;10.496181;0.80445176
11:25:46:684;0.8810662;10.496181;0.80445176
11:25:46:684;0.8810662;10.496181;0.80445176
11:25:46:684;0.8810662;10.496181;0.80445176
11:25:46:684;0.8810662;10.496181;0.80445176
11:25:46:684;0.8810662;10.496181;0.80445176
11:25:46:684;0.8810662;10.496181;0.80445176
11:25:46:684;0.8810662;10.496181;0.80445176
11:25:46:684;0.8810662;10.496181;0.80445176
11:25:46:684;0.8810662;10.496181;0.80445176
11:25:46:684;0.8810662;10.496181;0.80445176
11:25:46:684;0.8810662;10.496181;0.80445176
11:25:46:684;0.8810662;10.496181;0.80445176
11:25:46:805;0.47884035;11.224017;-0.36391866
11:25:46:805;0.47884035;11.224017;-0.36391866
11:25:46:805;0.47884035;11.224017;-0.36391866
11:25:46:805;0.47884035;11.224017;-0.36391866
11:25:46:805;0.47884035;11.224017;-0.36391866
11:25:46:805;0.47884035;11.224017;-0.36391866
11:25:46:805;0.47884035;11.224017;-0.36391866
11:25:46:805;0.47884035;11.224017;-0.36391866
11:25:46:805;0.47884035;11.224017;-0.36391866
11:25:46:805;0.47884035;11.224017;-0.36391866
11:25:46:805;0.47884035;11.224017;-0.36391866
11:25:46:805;0.47884035;11.224017;-0.36391866
11:25:46:805;0.47884035;11.224017;-0.36391866
11:25:46:805;0.47884035;11.224017;-0.36391866
11:25:46:921;0.8619126;9.32781;0.6512229
11:25:46:921;0.8619126;9.32781;0.6512229
11:25:46:921;0.8619126;9.32781;0.6512229
11:25:46:921;0.8619126;9.32781;0.6512229
11:25:46:921;0.8619126;9.32781;0.6512229
11:25:46:921;0.8619126;9.32781;0.6512229
11:25:46:921;0.8619126;9.32781;0.6512229
11:25:46:921;0.8619126;9.32781;0.6512229
11:25:46:921;0.8619126;9.32781;0.6512229
11:25:46:921;0.8619126;9.32781;0.6512229
11:25:46:921;0.8619126;9.32781;0.6512229
11:25:46:921;0.8619126;9.32781;0.6512229
11:25:46:921;0.8619126;9.32781;0.6512229
11:25:46:921;0.8619126;9.32781;0.6512229
11:25:46:921;0.8619126;9.32781;0.6512229
11:25:47:038;1.1300632;9.557653;0.38307226
11:25:47:038;1.1300632;9.557653;0.38307226
11:25:47:038;1.1300632;9.557653;0.38307226
11:25:47:038;1.1300632;9.557653;0.38307226
11:25:47:038;1.1300632;9.557653;0.38307226
11:25:47:038;1.1300632;9.557653;0.38307226
11:25:47:038;1.1300632;9.557653;0.38307226
11:25:47:038;1.1300632;9.557653;0.38307226
11:25:47:038;1.1300632;9.557653;0.38307226
11:25:47:038;1.1300632;9.557653;0.38307226
11:25:47:038;1.1300632;9.557653;0.38307226
11:25:47:038;1.1300632;9.557653;0.38307226
11:25:47:038;1.1300632;9.557653;0.38307226
11:25:47:038;1.1300632;9.557653;0.38307226
11:25:47:038;1.1300632;9.557653;0.38307226
11:25:47:156;0.5554548;10.093954;0.45968673
11:25:47:156;0.5554548;10.093954;0.45968673
11:25:47:156;0.5554548;10.093954;0.45968673
11:25:47:156;0.5554548;10.093954;0.45968673
11:25:47:156;0.5554548;10.093954;0.45968673
11:25:47:156;0.5554548;10.093954;0.45968673
11:25:47:156;0.5554548;10.093954;0.45968673
11:25:47:156;0.5554548;10.093954;0.45968673
11:25:47:156;0.5554548;10.093954;0.45968673
11:25:47:156;0.5554548;10.093954;0.45968673
11:25:47:156;0.5554548;10.093954;0.45968673
11:25:47:156;0.5554548;10.093954;0.45968673
11:25:47:156;0.5554548;10.093954;0.45968673
11:25:47:156;0.5554548;10.093954;0.45968673
11:25:47:156;0.5554548;10.093954;0.45968673
11:25:47:272;-0.22984336;10.342952;0.19153613
11:25:47:272;-0.22984336;10.342952;0.19153613
11:25:47:272;-0.22984336;10.342952;0.19153613
11:25:47:272;-0.22984336;10.342952;0.19153613
11:25:47:272;-0.22984336;10.342952;0.19153613
11:25:47:272;-0.22984336;10.342952;0.19153613
11:25:47:272;-0.22984336;10.342952;0.19153613
11:25:47:272;-0.22984336;10.342952;0.19153613
11:25:47:272;-0.22984336;10.342952;0.19153613
11:25:47:272;-0.22984336;10.342952;0.19153613
11:25:47:272;-0.22984336;10.342952;0.19153613
11:25:47:272;-0.22984336;10.342952;0.19153613
11:25:47:272;-0.22984336;10.342952;0.19153613
11:25:47:272;-0.22984336;10.342952;0.19153613
11:25:47:272;-0.22984336;10.342952;0.19153613
11:25:47:272;-0.22984336;10.342952;0.19153613
11:25:47:272;-0.22984336;10.342952;0.19153613
11:25:47:272;-0.22984336;10.342952;0.19153613
11:25:47:411;0.6895301;10.515334;-0.095768064
11:25:47:411;0.6895301;10.515334;-0.095768064
11:25:47:411;0.6895301;10.515334;-0.095768064
11:25:47:411;0.6895301;10.515334;-0.095768064
11:25:47:411;0.6895301;10.515334;-0.095768064
11:25:47:411;0.6895301;10.515334;-0.095768064
11:25:47:411;0.6895301;10.515334;-0.095768064
11:25:47:411;0.6895301;10.515334;-0.095768064
11:25:47:411;0.6895301;10.515334;-0.095768064
11:25:47:411;0.6895301;10.515334;-0.095768064
11:25:47:411;0.6895301;10.515334;-0.095768064
11:25:47:411;0.6895301;10.515334;-0.095768064
11:25:47:411;0.6895301;10.515334;-0.095768064
11:25:47:411;0.6895301;10.515334;-0.095768064
11:25:47:411;0.6895301;10.515334;-0.095768064
11:25:47:526;-0.076614454;10.113108;-0.4405331
11:25:47:526;-0.076614454;10.113108;-0.4405331
11:25:47:526;-0.076614454;10.113108;-0.4405331
11:25:47:526;-0.076614454;10.113108;-0.4405331
11:25:47:526;-0.076614454;10.113108;-0.4405331
11:25:47:526;-0.076614454;10.113108;-0.4405331
11:25:47:526;-0.076614454;10.113108;-0.4405331
11:25:47:526;-0.076614454;10.113108;-0.4405331
11:25:47:526;-0.076614454;10.113108;-0.4405331
11:25:47:526;-0.076614454;10.113108;-0.4405331
11:25:47:526;-0.076614454;10.113108;-0.4405331
11:25:47:526;-0.076614454;10.113108;-0.4405331
11:25:47:526;-0.076614454;10.113108;-0.4405331
11:25:47:526;-0.076614454;10.113108;-0.4405331
11:25:47:526;-0.076614454;10.113108;-0.4405331
11:25:47:526;-0.076614454;10.113108;-0.4405331
11:25:47:526;-0.076614454;10.113108;-0.4405331
11:25:47:526;-0.076614454;10.113108;-0.4405331
11:25:47:526;-0.076614454;10.113108;-0.4405331
11:25:47:526;-0.076614454;10.113108;-0.4405331
11:25:47:526;-0.076614454;10.113108;-0.4405331
11:25:47:526;-0.076614454;10.113108;-0.4405331
11:25:47:697;0.47884035;9.9790325;0.15322891
11:25:47:697;0.47884035;9.9790325;0.15322891
11:25:47:697;0.47884035;9.9790325;0.15322891
11:25:47:697;0.47884035;9.9790325;0.15322891
11:25:47:697;0.47884035;9.9790325;0.15322891
11:25:47:697;0.47884035;9.9790325;0.15322891
11:25:47:697;0.47884035;9.9790325;0.15322891
11:25:47:697;0.47884035;9.9790325;0.15322891
11:25:47:697;0.47884035;9.9790325;0.15322891
11:25:47:697;0.47884035;9.9790325;0.15322891
11:25:47:697;0.47884035;9.9790325;0.15322891
11:25:47:697;0.47884035;9.9790325;0.15322891
11:25:47:697;0.47884035;9.9790325;0.15322891
11:25:47:799;0.2681506;9.691729;-0.7278373
11:25:47:799;0.2681506;9.691729;-0.7278373
11:25:47:799;0.2681506;9.691729;-0.7278373
11:25:47:799;0.2681506;9.691729;-0.7278373
11:25:47:799;0.2681506;9.691729;-0.7278373
11:25:47:799;0.2681506;9.691729;-0.7278373
11:25:47:799;0.2681506;9.691729;-0.7278373
11:25:47:799;0.2681506;9.691729;-0.7278373
11:25:47:799;0.2681506;9.691729;-0.7278373
11:25:47:799;0.2681506;9.691729;-0.7278373
11:25:47:799;0.2681506;9.691729;-0.7278373
11:25:47:799;0.2681506;9.691729;-0.7278373
11:25:47:799;0.2681506;9.691729;-0.7278373
11:25:47:799;0.2681506;9.691729;-0.7278373
11:25:47:799;0.2681506;9.691729;-0.7278373
11:25:47:917;0.6895301;9.9790325;0.1340753
11:25:47:917;0.6895301;9.9790325;0.1340753
11:25:47:917;0.6895301;9.9790325;0.1340753
11:25:47:917;0.6895301;9.9790325;0.1340753
11:25:47:917;0.6895301;9.9790325;0.1340753
11:25:47:917;0.6895301;9.9790325;0.1340753
11:25:47:917;0.6895301;9.9790325;0.1340753
11:25:47:917;0.6895301;9.9790325;0.1340753
11:25:47:917;0.6895301;9.9790325;0.1340753
11:25:47:917;0.6895301;9.9790325;0.1340753
11:25:47:917;0.6895301;9.9790325;0.1340753
11:25:47:917;0.6895301;9.9790325;0.1340753
11:25:47:917;0.6895301;9.9790325;0.1340753
11:25:47:917;0.6895301;9.9790325;0.1340753
11:25:47:917;0.6895301;9.9790325;0.1340753
11:25:48:033;0.2681506;9.825804;0.40222588
11:25:48:033;0.2681506;9.825804;0.40222588
11:25:48:033;0.2681506;9.825804;0.40222588
11:25:48:033;0.2681506;9.825804;0.40222588
11:25:48:033;0.2681506;9.825804;0.40222588
11:25:48:033;0.2681506;9.825804;0.40222588
11:25:48:033;0.2681506;9.825804;0.40222588
11:25:48:033;0.2681506;9.825804;0.40222588
11:25:48:033;0.2681506;9.825804;0.40222588
11:25:48:033;0.2681506;9.825804;0.40222588
11:25:48:033;0.2681506;9.825804;0.40222588
11:25:48:033;0.2681506;9.825804;0.40222588
11:25:48:033;0.2681506;9.825804;0.40222588
11:25:48:136;0.47884035;10.093954;1.1109096
11:25:48:136;0.47884035;10.093954;1.1109096
11:25:48:136;0.47884035;10.093954;1.1109096
11:25:48:136;0.47884035;10.093954;1.1109096
11:25:48:136;0.47884035;10.093954;1.1109096
11:25:48:136;0.47884035;10.093954;1.1109096
11:25:48:136;0.47884035;10.093954;1.1109096
11:25:48:136;0.47884035;10.093954;1.1109096
11:25:48:136;0.47884035;10.093954;1.1109096
11:25:48:136;0.47884035;10.093954;1.1109096
11:25:48:136;0.47884035;10.093954;1.1109096
11:25:48:136;0.47884035;10.093954;1.1109096
11:25:48:136;0.47884035;10.093954;1.1109096
11:25:48:136;0.47884035;10.093954;1.1109096
11:25:48:248;0.095768064;10.515334;-0.30645782
11:25:48:248;0.095768064;10.515334;-0.30645782
11:25:48:248;0.095768064;10.515334;-0.30645782
11:25:48:248;0.095768064;10.515334;-0.30645782
11:25:48:248;0.095768064;10.515334;-0.30645782
11:25:48:248;0.095768064;10.515334;-0.30645782
11:25:48:248;0.095768064;10.515334;-0.30645782
11:25:48:248;0.095768064;10.515334;-0.30645782
11:25:48:248;0.095768064;10.515334;-0.30645782
11:25:48:248;0.095768064;10.515334;-0.30645782
11:25:48:248;0.095768064;10.515334;-0.30645782
11:25:48:248;0.095768064;10.515334;-0.30645782
11:25:48:248;0.095768064;10.515334;-0.30645782
11:25:48:248;0.095768064;10.515334;-0.30645782
11:25:48:248;0.095768064;10.515334;-0.30645782
11:25:48:367;0.4405331;9.998186;0.5554548
11:25:48:367;0.4405331;9.998186;0.5554548
11:25:48:367;0.4405331;9.998186;0.5554548
11:25:48:367;0.4405331;9.998186;0.5554548
11:25:48:367;0.4405331;9.998186;0.5554548
11:25:48:367;0.4405331;9.998186;0.5554548
11:25:48:367;0.4405331;9.998186;0.5554548
11:25:48:367;0.4405331;9.998186;0.5554548
11:25:48:367;0.4405331;9.998186;0.5554548
11:25:48:367;0.4405331;9.998186;0.5554548
11:25:48:367;0.4405331;9.998186;0.5554548
11:25:48:367;0.4405331;9.998186;0.5554548
11:25:48:367;0.4405331;9.998186;0.5554548
11:25:48:367;0.4405331;9.998186;0.5554548
11:25:48:469;0.91937345;10.208876;0.6895301
11:25:48:469;0.91937345;10.208876;0.6895301
11:25:48:469;0.91937345;10.208876;0.6895301
11:25:48:469;0.91937345;10.208876;0.6895301
11:25:48:469;0.91937345;10.208876;0.6895301
11:25:48:469;0.91937345;10.208876;0.6895301
11:25:48:469;0.91937345;10.208876;0.6895301
11:25:48:469;0.91937345;10.208876;0.6895301
11:25:48:469;0.91937345;10.208876;0.6895301
11:25:48:469;0.91937345;10.208876;0.6895301
11:25:48:469;0.91937345;10.208876;0.6895301
11:25:48:469;0.91937345;10.208876;0.6895301
11:25:48:469;0.91937345;10.208876;0.6895301
11:25:48:469;0.91937345;10.208876;0.6895301
11:25:48:583;0.4405331;10.132261;0.076614454
11:25:48:583;0.4405331;10.132261;0.076614454
11:25:48:583;0.4405331;10.132261;0.076614454
11:25:48:583;0.4405331;10.132261;0.076614454
11:25:48:583;0.4405331;10.132261;0.076614454
11:25:48:583;0.4405331;10.132261;0.076614454
11:25:48:583;0.4405331;10.132261;0.076614454
11:25:48:583;0.4405331;10.132261;0.076614454
11:25:48:583;0.4405331;10.132261;0.076614454
11:25:48:583;0.4405331;10.132261;0.076614454
11:25:48:583;0.4405331;10.132261;0.076614454
11:25:48:583;0.4405331;10.132261;0.076614454
11:25:48:583;0.4405331;10.132261;0.076614454
11:25:48:685;0.2873042;10.572795;-1.5897499
11:25:48:685;0.2873042;10.572795;-1.5897499
11:25:48:685;0.2873042;10.572795;-1.5897499
11:25:48:685;0.2873042;10.572795;-1.5897499
11:25:48:685;0.2873042;10.572795;-1.5897499
11:25:48:685;0.2873042;10.572795;-1.5897499
11:25:48:685;0.2873042;10.572795;-1.5897499
11:25:48:685;0.2873042;10.572795;-1.5897499
11:25:48:685;0.2873042;10.572795;-1.5897499
11:25:48:685;0.2873042;10.572795;-1.5897499
11:25:48:685;0.2873042;10.572795;-1.5897499
11:25:48:685;0.2873042;10.572795;-1.5897499
11:25:48:685;0.2873042;10.572795;-1.5897499
11:25:48:685;0.2873042;10.572795;-1.5897499
11:25:48:685;0.2873042;10.572795;-1.5897499
11:25:48:800;-0.32561144;9.595961;0.82360536
11:25:48:800;-0.32561144;9.595961;0.82360536
11:25:48:800;-0.32561144;9.595961;0.82360536
11:25:48:800;-0.32561144;9.595961;0.82360536
11:25:48:800;-0.32561144;9.595961;0.82360536
11:25:48:800;-0.32561144;9.595961;0.82360536
11:25:48:800;-0.32561144;9.595961;0.82360536
11:25:48:800;-0.32561144;9.595961;0.82360536
11:25:48:800;-0.32561144;9.595961;0.82360536
11:25:48:800;-0.32561144;9.595961;0.82360536
11:25:48:800;-0.32561144;9.595961;0.82360536
11:25:48:800;-0.32561144;9.595961;0.82360536
11:25:48:800;-0.32561144;9.595961;0.82360536
11:25:48:800;-0.32561144;9.595961;0.82360536
11:25:48:800;-0.32561144;9.595961;0.82360536
11:25:48:917;1.1109096;10.419566;-0.15322891
11:25:48:917;1.1109096;10.419566;-0.15322891
11:25:48:917;1.1109096;10.419566;-0.15322891
11:25:48:917;1.1109096;10.419566;-0.15322891
11:25:48:917;1.1109096;10.419566;-0.15322891
11:25:48:917;1.1109096;10.419566;-0.15322891
11:25:48:917;1.1109096;10.419566;-0.15322891
11:25:48:917;1.1109096;10.419566;-0.15322891
11:25:48:917;1.1109096;10.419566;-0.15322891
11:25:48:917;1.1109096;10.419566;-0.15322891
11:25:48:917;1.1109096;10.419566;-0.15322891
11:25:48:917;1.1109096;10.419566;-0.15322891
11:25:48:917;1.1109096;10.419566;-0.15322891
11:25:48:917;1.1109096;10.419566;-0.15322891
11:25:48:917;1.1109096;10.419566;-0.15322891
11:25:49:036;0.61291564;8.331821;2.9113493
11:25:49:036;0.61291564;8.331821;2.9113493
11:25:49:036;0.61291564;8.331821;2.9113493
11:25:49:036;0.61291564;8.331821;2.9113493
11:25:49:036;0.61291564;8.331821;2.9113493
11:25:49:036;0.61291564;8.331821;2.9113493
11:25:49:036;0.61291564;8.331821;2.9113493
11:25:49:036;0.61291564;8.331821;2.9113493
11:25:49:036;0.61291564;8.331821;2.9113493
11:25:49:036;0.61291564;8.331821;2.9113493
11:25:49:036;0.61291564;8.331821;2.9113493
11:25:49:036;0.61291564;8.331821;2.9113493
11:25:49:036;0.61291564;8.331821;2.9113493
11:25:49:036;0.61291564;8.331821;2.9113493
11:25:49:036;0.61291564;8.331821;2.9113493
11:25:49:036;0.61291564;8.331821;2.9113493
11:25:49:157;0.47884035;10.611102;-0.82360536
11:25:49:157;0.47884035;10.611102;-0.82360536
11:25:49:157;0.47884035;10.611102;-0.82360536
11:25:49:157;0.47884035;10.611102;-0.82360536
11:25:49:157;0.47884035;10.611102;-0.82360536
11:25:49:157;0.47884035;10.611102;-0.82360536
11:25:49:157;0.47884035;10.611102;-0.82360536
11:25:49:157;0.47884035;10.611102;-0.82360536
11:25:49:157;0.47884035;10.611102;-0.82360536
11:25:49:157;0.47884035;10.611102;-0.82360536
11:25:49:157;0.47884035;10.611102;-0.82360536
11:25:49:157;0.47884035;10.611102;-0.82360536
11:25:49:157;0.47884035;10.611102;-0.82360536
11:25:49:157;0.47884035;10.611102;-0.82360536
11:25:49:271;0.095768064;9.921572;0.24899697
11:25:49:271;0.095768064;9.921572;0.24899697
11:25:49:271;0.095768064;9.921572;0.24899697
11:25:49:271;0.095768064;9.921572;0.24899697
11:25:49:271;0.095768064;9.921572;0.24899697
11:25:49:271;0.095768064;9.921572;0.24899697
11:25:49:271;0.095768064;9.921572;0.24899697
11:25:49:271;0.095768064;9.921572;0.24899697
11:25:49:271;0.095768064;9.921572;0.24899697
11:25:49:271;0.095768064;9.921572;0.24899697
11:25:49:271;0.095768064;9.921572;0.24899697
11:25:49:271;0.095768064;9.921572;0.24899697
11:25:49:271;0.095768064;9.921572;0.24899697
11:25:49:271;0.095768064;9.921572;0.24899697
11:25:49:271;0.095768064;9.921572;0.24899697
11:25:49:388;0.11492168;10.381259;-0.21068975
11:25:49:388;0.11492168;10.381259;-0.21068975
11:25:49:388;0.11492168;10.381259;-0.21068975
11:25:49:388;0.11492168;10.381259;-0.21068975
11:25:49:388;0.11492168;10.381259;-0.21068975
11:25:49:388;0.11492168;10.381259;-0.21068975
11:25:49:388;0.11492168;10.381259;-0.21068975
11:25:49:388;0.11492168;10.381259;-0.21068975
11:25:49:388;0.11492168;10.381259;-0.21068975
11:25:49:388;0.11492168;10.381259;-0.21068975
11:25:49:388;0.11492168;10.381259;-0.21068975
11:25:49:388;0.11492168;10.381259;-0.21068975
11:25:49:388;0.11492168;10.381259;-0.21068975
11:25:49:388;0.11492168;10.381259;-0.21068975
11:25:49:388;0.11492168;10.381259;-0.21068975
11:25:49:505;0.038307227;10.630256;-0.019153614
11:25:49:505;0.038307227;10.630256;-0.019153614
11:25:49:505;0.038307227;10.630256;-0.019153614
11:25:49:505;0.038307227;10.630256;-0.019153614
11:25:49:505;0.038307227;10.630256;-0.019153614
11:25:49:505;0.038307227;10.630256;-0.019153614
11:25:49:505;0.038307227;10.630256;-0.019153614
11:25:49:505;0.038307227;10.630256;-0.019153614
11:25:49:505;0.038307227;10.630256;-0.019153614
11:25:49:505;0.038307227;10.630256;-0.019153614
11:25:49:505;0.038307227;10.630256;-0.019153614
11:25:49:505;0.038307227;10.630256;-0.019153614
11:25:49:505;0.038307227;10.630256;-0.019153614
11:25:49:505;0.038307227;10.630256;-0.019153614
11:25:49:505;0.038307227;10.630256;-0.019153614
11:25:49:505;0.038307227;10.630256;-0.019153614
11:25:49:505;0.038307227;10.630256;-0.019153614
11:25:49:505;0.038307227;10.630256;-0.019153614
11:25:49:505;0.038307227;10.630256;-0.019153614
11:25:49:505;0.038307227;10.630256;-0.019153614
11:25:49:505;0.038307227;10.630256;-0.019153614
11:25:49:505;0.038307227;10.630256;-0.019153614
11:25:49:674;0.22984336;9.959879;0.51714754
11:25:49:674;0.22984336;9.959879;0.51714754
11:25:49:674;0.22984336;9.959879;0.51714754
11:25:49:674;0.22984336;9.959879;0.51714754
11:25:49:674;0.22984336;9.959879;0.51714754
11:25:49:674;0.22984336;9.959879;0.51714754
11:25:49:674;0.22984336;9.959879;0.51714754
11:25:49:674;0.22984336;9.959879;0.51714754
11:25:49:674;0.22984336;9.959879;0.51714754
11:25:49:674;0.22984336;9.959879;0.51714754
11:25:49:674;0.22984336;9.959879;0.51714754
11:25:49:674;0.22984336;9.959879;0.51714754
11:25:49:674;0.22984336;9.959879;0.51714754
11:25:49:778;-0.40222588;10.419566;0.038307227
11:25:49:778;-0.40222588;10.419566;0.038307227
11:25:49:778;-0.40222588;10.419566;0.038307227
11:25:49:778;-0.40222588;10.419566;0.038307227
11:25:49:778;-0.40222588;10.419566;0.038307227
11:25:49:778;-0.40222588;10.419566;0.038307227
11:25:49:778;-0.40222588;10.419566;0.038307227
11:25:49:778;-0.40222588;10.419566;0.038307227
11:25:49:778;-0.40222588;10.419566;0.038307227
11:25:49:778;-0.40222588;10.419566;0.038307227
11:25:49:778;-0.40222588;10.419566;0.038307227
11:25:49:778;-0.40222588;10.419566;0.038307227
11:25:49:778;-0.40222588;10.419566;0.038307227
11:25:49:778;-0.40222588;10.419566;0.038307227
11:25:49:778;-0.40222588;10.419566;0.038307227
11:25:49:896;0.32561144;10.400413;0.4213795
11:25:49:896;0.32561144;10.400413;0.4213795
11:25:49:896;0.32561144;10.400413;0.4213795
11:25:49:896;0.32561144;10.400413;0.4213795
11:25:49:896;0.32561144;10.400413;0.4213795
11:25:49:896;0.32561144;10.400413;0.4213795
11:25:49:896;0.32561144;10.400413;0.4213795
11:25:49:896;0.32561144;10.400413;0.4213795
11:25:49:896;0.32561144;10.400413;0.4213795
11:25:49:896;0.32561144;10.400413;0.4213795
11:25:49:896;0.32561144;10.400413;0.4213795
11:25:49:896;0.32561144;10.400413;0.4213795
11:25:49:896;0.32561144;10.400413;0.4213795
11:25:49:896;0.32561144;10.400413;0.4213795
11:25:49:896;0.32561144;10.400413;0.4213795
11:25:50:012;0.019153614;11.18571;-1.1300632
11:25:50:012;0.019153614;11.18571;-1.1300632
11:25:50:012;0.019153614;11.18571;-1.1300632
11:25:50:012;0.019153614;11.18571;-1.1300632
11:25:50:012;0.019153614;11.18571;-1.1300632
11:25:50:012;0.019153614;11.18571;-1.1300632
11:25:50:012;0.019153614;11.18571;-1.1300632
11:25:50:012;0.019153614;11.18571;-1.1300632
11:25:50:012;0.019153614;11.18571;-1.1300632
11:25:50:012;0.019153614;11.18571;-1.1300632
11:25:50:012;0.019153614;11.18571;-1.1300632
11:25:50:012;0.019153614;11.18571;-1.1300632
11:25:50:012;0.019153614;11.18571;-1.1300632
11:25:50:012;0.019153614;11.18571;-1.1300632
11:25:50:121;-0.21068975;9.9790325;1.340753
11:25:50:121;-0.21068975;9.9790325;1.340753
11:25:50:121;-0.21068975;9.9790325;1.340753
11:25:50:121;-0.21068975;9.9790325;1.340753
11:25:50:121;-0.21068975;9.9790325;1.340753
11:25:50:121;-0.21068975;9.9790325;1.340753
11:25:50:121;-0.21068975;9.9790325;1.340753
11:25:50:121;-0.21068975;9.9790325;1.340753
11:25:50:121;-0.21068975;9.9790325;1.340753
11:25:50:121;-0.21068975;9.9790325;1.340753
11:25:50:121;-0.21068975;9.9790325;1.340753
11:25:50:121;-0.21068975;9.9790325;1.340753
11:25:50:121;-0.21068975;9.9790325;1.340753
11:25:50:121;-0.21068975;9.9790325;1.340753
11:25:50:230;-0.038307227;10.266336;-0.17238252
11:25:50:230;-0.038307227;10.266336;-0.17238252
11:25:50:230;-0.038307227;10.266336;-0.17238252
11:25:50:230;-0.038307227;10.266336;-0.17238252
11:25:50:230;-0.038307227;10.266336;-0.17238252
11:25:50:230;-0.038307227;10.266336;-0.17238252
11:25:50:230;-0.038307227;10.266336;-0.17238252
11:25:50:230;-0.038307227;10.266336;-0.17238252
11:25:50:230;-0.038307227;10.266336;-0.17238252
11:25:50:230;-0.038307227;10.266336;-0.17238252
11:25:50:230;-0.038307227;10.266336;-0.17238252
11:25:50:230;-0.038307227;10.266336;-0.17238252
11:25:50:230;-0.038307227;10.266336;-0.17238252
11:25:50:230;-0.038307227;10.266336;-0.17238252
11:25:50:230;-0.038307227;10.266336;-0.17238252
11:25:50:230;-0.038307227;10.266336;-0.17238252
11:25:50:352;0.2873042;10.515334;-0.40222588
11:25:50:352;0.2873042;10.515334;-0.40222588
11:25:50:352;0.2873042;10.515334;-0.40222588
11:25:50:352;0.2873042;10.515334;-0.40222588
11:25:50:352;0.2873042;10.515334;-0.40222588
11:25:50:352;0.2873042;10.515334;-0.40222588
11:25:50:352;0.2873042;10.515334;-0.40222588
11:25:50:352;0.2873042;10.515334;-0.40222588
11:25:50:352;0.2873042;10.515334;-0.40222588
11:25:50:352;0.2873042;10.515334;-0.40222588
11:25:50:352;0.2873042;10.515334;-0.40222588
11:25:50:352;0.2873042;10.515334;-0.40222588
11:25:50:352;0.2873042;10.515334;-0.40222588
11:25:50:352;0.2873042;10.515334;-0.40222588
11:25:50:466;0.34476504;9.921572;0.842759
11:25:50:466;0.34476504;9.921572;0.842759
11:25:50:466;0.34476504;9.921572;0.842759
11:25:50:466;0.34476504;9.921572;0.842759
11:25:50:466;0.34476504;9.921572;0.842759
11:25:50:466;0.34476504;9.921572;0.842759
11:25:50:466;0.34476504;9.921572;0.842759
11:25:50:466;0.34476504;9.921572;0.842759
11:25:50:466;0.34476504;9.921572;0.842759
11:25:50:466;0.34476504;9.921572;0.842759
11:25:50:466;0.34476504;9.921572;0.842759
11:25:50:466;0.34476504;9.921572;0.842759
11:25:50:466;0.34476504;9.921572;0.842759
11:25:50:466;0.34476504;9.921572;0.842759
11:25:50:466;0.34476504;9.921572;0.842759
11:25:50:466;0.34476504;9.921572;0.842759
11:25:50:589;0.019153614;10.572795;0.5746084
11:25:50:589;0.019153614;10.572795;0.5746084
11:25:50:589;0.019153614;10.572795;0.5746084
11:25:50:589;0.019153614;10.572795;0.5746084
11:25:50:589;0.019153614;10.572795;0.5746084
11:25:50:589;0.019153614;10.572795;0.5746084
11:25:50:589;0.019153614;10.572795;0.5746084
11:25:50:589;0.019153614;10.572795;0.5746084
11:25:50:589;0.019153614;10.572795;0.5746084
11:25:50:589;0.019153614;10.572795;0.5746084
11:25:50:589;0.019153614;10.572795;0.5746084
11:25:50:589;0.019153614;10.572795;0.5746084
11:25:50:589;0.019153614;10.572795;0.5746084
11:25:50:589;0.019153614;10.572795;0.5746084
11:25:50:703;0.5554548;10.113108;0.4213795
11:25:50:703;0.5554548;10.113108;0.4213795
11:25:50:703;0.5554548;10.113108;0.4213795
11:25:50:703;0.5554548;10.113108;0.4213795
11:25:50:703;0.5554548;10.113108;0.4213795
11:25:50:703;0.5554548;10.113108;0.4213795
11:25:50:703;0.5554548;10.113108;0.4213795
11:25:50:703;0.5554548;10.113108;0.4213795
11:25:50:703;0.5554548;10.113108;0.4213795
11:25:50:703;0.5554548;10.113108;0.4213795
11:25:50:703;0.5554548;10.113108;0.4213795
11:25:50:703;0.5554548;10.113108;0.4213795
11:25:50:703;0.5554548;10.113108;0.4213795
11:25:50:703;0.5554548;10.113108;0.4213795
11:25:50:703;0.5554548;10.113108;0.4213795
11:25:50:703;0.5554548;10.113108;0.4213795
11:25:50:821;-0.47884035;10.0748005;0.22984336
11:25:50:821;-0.47884035;10.0748005;0.22984336
11:25:50:821;-0.47884035;10.0748005;0.22984336
11:25:50:821;-0.47884035;10.0748005;0.22984336
11:25:50:821;-0.47884035;10.0748005;0.22984336
11:25:50:821;-0.47884035;10.0748005;0.22984336
11:25:50:821;-0.47884035;10.0748005;0.22984336
11:25:50:821;-0.47884035;10.0748005;0.22984336
11:25:50:821;-0.47884035;10.0748005;0.22984336
11:25:50:821;-0.47884035;10.0748005;0.22984336
11:25:50:821;-0.47884035;10.0748005;0.22984336
11:25:50:821;-0.47884035;10.0748005;0.22984336
11:25:50:821;-0.47884035;10.0748005;0.22984336
11:25:50:821;-0.47884035;10.0748005;0.22984336
11:25:50:821;-0.47884035;10.0748005;0.22984336
11:25:50:938;0.05746084;10.266336;-0.40222588
11:25:50:938;0.05746084;10.266336;-0.40222588
11:25:50:938;0.05746084;10.266336;-0.40222588
11:25:50:938;0.05746084;10.266336;-0.40222588
11:25:50:938;0.05746084;10.266336;-0.40222588
11:25:50:938;0.05746084;10.266336;-0.40222588
11:25:50:938;0.05746084;10.266336;-0.40222588
11:25:50:938;0.05746084;10.266336;-0.40222588
11:25:50:938;0.05746084;10.266336;-0.40222588
11:25:50:938;0.05746084;10.266336;-0.40222588
11:25:50:938;0.05746084;10.266336;-0.40222588
11:25:50:938;0.05746084;10.266336;-0.40222588
11:25:50:938;0.05746084;10.266336;-0.40222588
11:25:50:938;0.05746084;10.266336;-0.40222588
11:25:50:938;0.05746084;10.266336;-0.40222588
11:25:51:055;0.24899697;9.289502;1.2449849
11:25:51:055;0.24899697;9.289502;1.2449849
11:25:51:055;0.24899697;9.289502;1.2449849
11:25:51:055;0.24899697;9.289502;1.2449849
11:25:51:055;0.24899697;9.289502;1.2449849
11:25:51:055;0.24899697;9.289502;1.2449849
11:25:51:055;0.24899697;9.289502;1.2449849
11:25:51:055;0.24899697;9.289502;1.2449849
11:25:51:055;0.24899697;9.289502;1.2449849
11:25:51:055;0.24899697;9.289502;1.2449849
11:25:51:055;0.24899697;9.289502;1.2449849
11:25:51:055;0.24899697;9.289502;1.2449849
11:25:51:055;0.24899697;9.289502;1.2449849
11:25:51:055;0.24899697;9.289502;1.2449849
11:25:51:055;0.24899697;9.289502;1.2449849
11:25:51:174;-0.11492168;10.649409;-0.2873042
11:25:51:174;-0.11492168;10.649409;-0.2873042
11:25:51:174;-0.11492168;10.649409;-0.2873042
11:25:51:174;-0.11492168;10.649409;-0.2873042
11:25:51:174;-0.11492168;10.649409;-0.2873042
11:25:51:174;-0.11492168;10.649409;-0.2873042
11:25:51:174;-0.11492168;10.649409;-0.2873042
11:25:51:174;-0.11492168;10.649409;-0.2873042
11:25:51:174;-0.11492168;10.649409;-0.2873042
11:25:51:174;-0.11492168;10.649409;-0.2873042
11:25:51:174;-0.11492168;10.649409;-0.2873042
11:25:51:174;-0.11492168;10.649409;-0.2873042
11:25:51:174;-0.11492168;10.649409;-0.2873042
11:25:51:174;-0.11492168;10.649409;-0.2873042
11:25:51:289;0.5363012;10.362105;0.05746084
11:25:51:289;0.5363012;10.362105;0.05746084
11:25:51:289;0.5363012;10.362105;0.05746084
11:25:51:289;0.5363012;10.362105;0.05746084
11:25:51:289;0.5363012;10.362105;0.05746084
11:25:51:289;0.5363012;10.362105;0.05746084
11:25:51:289;0.5363012;10.362105;0.05746084
11:25:51:289;0.5363012;10.362105;0.05746084
11:25:51:289;0.5363012;10.362105;0.05746084
11:25:51:289;0.5363012;10.362105;0.05746084
11:25:51:289;0.5363012;10.362105;0.05746084
11:25:51:289;0.5363012;10.362105;0.05746084
11:25:51:289;0.5363012;10.362105;0.05746084
11:25:51:390;0.36391866;10.093954;-0.19153613
11:25:51:390;0.36391866;10.093954;-0.19153613
11:25:51:390;0.36391866;10.093954;-0.19153613
11:25:51:390;0.36391866;10.093954;-0.19153613
11:25:51:390;0.36391866;10.093954;-0.19153613
11:25:51:390;0.36391866;10.093954;-0.19153613
11:25:51:390;0.36391866;10.093954;-0.19153613
11:25:51:390;0.36391866;10.093954;-0.19153613
11:25:51:390;0.36391866;10.093954;-0.19153613
11:25:51:390;0.36391866;10.093954;-0.19153613
11:25:51:390;0.36391866;10.093954;-0.19153613
11:25:51:390;0.36391866;10.093954;-0.19153613
11:25:51:390;0.36391866;10.093954;-0.19153613
11:25:51:390;0.36391866;10.093954;-0.19153613
11:25:51:390;0.36391866;10.093954;-0.19153613
11:25:51:390;0.36391866;10.093954;-0.19153613
11:25:51:509;1.1875241;9.825804;-0.11492168
11:25:51:509;1.1875241;9.825804;-0.11492168
11:25:51:509;1.1875241;9.825804;-0.11492168
11:25:51:509;1.1875241;9.825804;-0.11492168
11:25:51:509;1.1875241;9.825804;-0.11492168
11:25:51:509;1.1875241;9.825804;-0.11492168
11:25:51:509;1.1875241;9.825804;-0.11492168
11:25:51:509;1.1875241;9.825804;-0.11492168
11:25:51:509;1.1875241;9.825804;-0.11492168
11:25:51:509;1.1875241;9.825804;-0.11492168
11:25:51:509;1.1875241;9.825804;-0.11492168
11:25:51:509;1.1875241;9.825804;-0.11492168
11:25:51:509;1.1875241;9.825804;-0.11492168
11:25:51:509;1.1875241;9.825804;-0.11492168
11:25:51:624;-0.2873042;9.672575;0.6703765
11:25:51:624;-0.2873042;9.672575;0.6703765
11:25:51:624;-0.2873042;9.672575;0.6703765
11:25:51:624;-0.2873042;9.672575;0.6703765
11:25:51:624;-0.2873042;9.672575;0.6703765
11:25:51:624;-0.2873042;9.672575;0.6703765
11:25:51:624;-0.2873042;9.672575;0.6703765
11:25:51:624;-0.2873042;9.672575;0.6703765
11:25:51:624;-0.2873042;9.672575;0.6703765
11:25:51:624;-0.2873042;9.672575;0.6703765
11:25:51:624;-0.2873042;9.672575;0.6703765
11:25:51:624;-0.2873042;9.672575;0.6703765
11:25:51:624;-0.2873042;9.672575;0.6703765
11:25:51:624;-0.2873042;9.672575;0.6703765
11:25:51:734;0.19153613;9.500193;0.8619126
11:25:51:734;0.19153613;9.500193;0.8619126
11:25:51:734;0.19153613;9.500193;0.8619126
11:25:51:734;0.19153613;9.500193;0.8619126
11:25:51:734;0.19153613;9.500193;0.8619126
11:25:51:734;0.19153613;9.500193;0.8619126
11:25:51:734;0.19153613;9.500193;0.8619126
11:25:51:734;0.19153613;9.500193;0.8619126
11:25:51:734;0.19153613;9.500193;0.8619126
11:25:51:734;0.19153613;9.500193;0.8619126
11:25:51:734;0.19153613;9.500193;0.8619126
11:25:51:734;0.19153613;9.500193;0.8619126
11:25:51:734;0.19153613;9.500193;0.8619126
11:25:51:734;0.19153613;9.500193;0.8619126
11:25:51:838;-0.5554548;10.668563;0.095768064
11:25:51:838;-0.5554548;10.668563;0.095768064
11:25:51:838;-0.5554548;10.668563;0.095768064
11:25:51:838;-0.5554548;10.668563;0.095768064
11:25:51:838;-0.5554548;10.668563;0.095768064
11:25:51:838;-0.5554548;10.668563;0.095768064
