Time_Accel;AccelX;AccelY;AccelZ
17:46:01:242;0.7661445;10.668563;0.17238252
17:46:01:242;0.7661445;10.668563;0.17238252
17:46:01:242;0.7661445;10.668563;0.17238252
17:46:01:242;0.7661445;10.668563;0.17238252
17:46:01:358;0.49799395;9.097966;-0.11492168
17:46:01:358;0.49799395;9.097966;-0.11492168
17:46:01:358;0.49799395;9.097966;-0.11492168
17:46:01:358;0.49799395;9.097966;-0.11492168
17:46:01:358;0.49799395;9.097966;-0.11492168
17:46:01:358;0.49799395;9.097966;-0.11492168
17:46:01:358;0.49799395;9.097966;-0.11492168
17:46:01:358;0.49799395;9.097966;-0.11492168
17:46:01:358;0.49799395;9.097966;-0.11492168
17:46:01:358;0.49799395;9.097966;-0.11492168
17:46:01:358;0.49799395;9.097966;-0.11492168
17:46:01:358;0.49799395;9.097966;-0.11492168
17:46:01:358;0.49799395;9.097966;-0.11492168
17:46:01:460;-0.095768064;9.940725;-0.38307226
17:46:01:460;-0.095768064;9.940725;-0.38307226
17:46:01:460;-0.095768064;9.940725;-0.38307226
17:46:01:460;-0.095768064;9.940725;-0.38307226
17:46:01:460;-0.095768064;9.940725;-0.38307226
17:46:01:460;-0.095768064;9.940725;-0.38307226
17:46:01:460;-0.095768064;9.940725;-0.38307226
17:46:01:460;-0.095768064;9.940725;-0.38307226
17:46:01:460;-0.095768064;9.940725;-0.38307226
17:46:01:460;-0.095768064;9.940725;-0.38307226
17:46:01:460;-0.095768064;9.940725;-0.38307226
17:46:01:460;-0.095768064;9.940725;-0.38307226
17:46:01:460;-0.095768064;9.940725;-0.38307226
17:46:01:460;-0.095768064;9.940725;-0.38307226
17:46:01:460;-0.095768064;9.940725;-0.38307226
17:46:01:576;0.32561144;11.089942;-0.21068975
17:46:01:576;0.32561144;11.089942;-0.21068975
17:46:01:576;0.32561144;11.089942;-0.21068975
17:46:01:576;0.32561144;11.089942;-0.21068975
17:46:01:576;0.32561144;11.089942;-0.21068975
17:46:01:576;0.32561144;11.089942;-0.21068975
17:46:01:576;0.32561144;11.089942;-0.21068975
17:46:01:576;0.32561144;11.089942;-0.21068975
17:46:01:576;0.32561144;11.089942;-0.21068975
17:46:01:576;0.32561144;11.089942;-0.21068975
17:46:01:576;0.32561144;11.089942;-0.21068975
17:46:01:576;0.32561144;11.089942;-0.21068975
17:46:01:576;0.32561144;11.089942;-0.21068975
17:46:01:576;0.32561144;11.089942;-0.21068975
17:46:01:576;0.32561144;11.089942;-0.21068975
17:46:01:692;0.80445176;10.170568;0.61291564
17:46:01:692;0.80445176;10.170568;0.61291564
17:46:01:692;0.80445176;10.170568;0.61291564
17:46:01:692;0.80445176;10.170568;0.61291564
17:46:01:692;0.80445176;10.170568;0.61291564
17:46:01:692;0.80445176;10.170568;0.61291564
17:46:01:692;0.80445176;10.170568;0.61291564
17:46:01:692;0.80445176;10.170568;0.61291564
17:46:01:692;0.80445176;10.170568;0.61291564
17:46:01:692;0.80445176;10.170568;0.61291564
17:46:01:692;0.80445176;10.170568;0.61291564
17:46:01:692;0.80445176;10.170568;0.61291564
17:46:01:692;0.80445176;10.170568;0.61291564
17:46:01:692;0.80445176;10.170568;0.61291564
17:46:01:692;0.80445176;10.170568;0.61291564
17:46:01:810;-0.095768064;10.821792;-0.7086837
17:46:01:810;-0.095768064;10.821792;-0.7086837
17:46:01:810;-0.095768064;10.821792;-0.7086837
17:46:01:810;-0.095768064;10.821792;-0.7086837
17:46:01:810;-0.095768064;10.821792;-0.7086837
17:46:01:810;-0.095768064;10.821792;-0.7086837
17:46:01:810;-0.095768064;10.821792;-0.7086837
17:46:01:810;-0.095768064;10.821792;-0.7086837
17:46:01:810;-0.095768064;10.821792;-0.7086837
17:46:01:810;-0.095768064;10.821792;-0.7086837
17:46:01:810;-0.095768064;10.821792;-0.7086837
17:46:01:810;-0.095768064;10.821792;-0.7086837
17:46:01:810;-0.095768064;10.821792;-0.7086837
17:46:01:810;-0.095768064;10.821792;-0.7086837
17:46:01:810;-0.095768064;10.821792;-0.7086837
17:46:01:925;0.5746084;8.408437;0.19153613
17:46:01:925;0.5746084;8.408437;0.19153613
17:46:01:925;0.5746084;8.408437;0.19153613
17:46:01:925;0.5746084;8.408437;0.19153613
17:46:01:925;0.5746084;8.408437;0.19153613
17:46:01:925;0.5746084;8.408437;0.19153613
17:46:01:925;0.5746084;8.408437;0.19153613
17:46:01:925;0.5746084;8.408437;0.19153613
17:46:01:925;0.5746084;8.408437;0.19153613
17:46:01:925;0.5746084;8.408437;0.19153613
17:46:01:925;0.5746084;8.408437;0.19153613
17:46:01:925;0.5746084;8.408437;0.19153613
17:46:01:925;0.5746084;8.408437;0.19153613
17:46:01:925;0.5746084;8.408437;0.19153613
17:46:01:925;0.5746084;8.408437;0.19153613
17:46:02:042;0.49799395;10.553641;0.05746084
17:46:02:042;0.49799395;10.553641;0.05746084
17:46:02:042;0.49799395;10.553641;0.05746084
17:46:02:042;0.49799395;10.553641;0.05746084
17:46:02:042;0.49799395;10.553641;0.05746084
17:46:02:042;0.49799395;10.553641;0.05746084
17:46:02:042;0.49799395;10.553641;0.05746084
17:46:02:042;0.49799395;10.553641;0.05746084
17:46:02:042;0.49799395;10.553641;0.05746084
17:46:02:042;0.49799395;10.553641;0.05746084
17:46:02:042;0.49799395;10.553641;0.05746084
17:46:02:042;0.49799395;10.553641;0.05746084
17:46:02:042;0.49799395;10.553641;0.05746084
17:46:02:042;0.49799395;10.553641;0.05746084
17:46:02:042;0.49799395;10.553641;0.05746084
17:46:02:161;0.30645782;10.860099;-0.11492168
17:46:02:161;0.30645782;10.860099;-0.11492168
17:46:02:161;0.30645782;10.860099;-0.11492168
17:46:02:161;0.30645782;10.860099;-0.11492168
17:46:02:161;0.30645782;10.860099;-0.11492168
17:46:02:161;0.30645782;10.860099;-0.11492168
17:46:02:161;0.30645782;10.860099;-0.11492168
17:46:02:161;0.30645782;10.860099;-0.11492168
17:46:02:161;0.30645782;10.860099;-0.11492168
17:46:02:161;0.30645782;10.860099;-0.11492168
17:46:02:161;0.30645782;10.860099;-0.11492168
17:46:02:161;0.30645782;10.860099;-0.11492168
17:46:02:161;0.30645782;10.860099;-0.11492168
17:46:02:161;0.30645782;10.860099;-0.11492168
17:46:02:161;0.30645782;10.860099;-0.11492168
17:46:02:278;-0.2681506;11.128249;0.49799395
17:46:02:278;-0.2681506;11.128249;0.49799395
17:46:02:278;-0.2681506;11.128249;0.49799395
17:46:02:278;-0.2681506;11.128249;0.49799395
17:46:02:278;-0.2681506;11.128249;0.49799395
17:46:02:278;-0.2681506;11.128249;0.49799395
17:46:02:278;-0.2681506;11.128249;0.49799395
17:46:02:278;-0.2681506;11.128249;0.49799395
17:46:02:278;-0.2681506;11.128249;0.49799395
17:46:02:278;-0.2681506;11.128249;0.49799395
17:46:02:278;-0.2681506;11.128249;0.49799395
17:46:02:278;-0.2681506;11.128249;0.49799395
17:46:02:278;-0.2681506;11.128249;0.49799395
17:46:02:278;-0.2681506;11.128249;0.49799395
17:46:02:278;-0.2681506;11.128249;0.49799395
17:46:02:394;0.17238252;11.128249;-0.49799395
17:46:02:394;0.17238252;11.128249;-0.49799395
17:46:02:394;0.17238252;11.128249;-0.49799395
17:46:02:394;0.17238252;11.128249;-0.49799395
17:46:02:394;0.17238252;11.128249;-0.49799395
17:46:02:394;0.17238252;11.128249;-0.49799395
17:46:02:394;0.17238252;11.128249;-0.49799395
17:46:02:394;0.17238252;11.128249;-0.49799395
17:46:02:394;0.17238252;11.128249;-0.49799395
17:46:02:394;0.17238252;11.128249;-0.49799395
17:46:02:394;0.17238252;11.128249;-0.49799395
17:46:02:394;0.17238252;11.128249;-0.49799395
17:46:02:394;0.17238252;11.128249;-0.49799395
17:46:02:394;0.17238252;11.128249;-0.49799395
17:46:02:394;0.17238252;11.128249;-0.49799395
17:46:02:513;-0.019153614;9.634268;-1.1683705
17:46:02:513;-0.019153614;9.634268;-1.1683705
17:46:02:513;-0.019153614;9.634268;-1.1683705
17:46:02:513;-0.019153614;9.634268;-1.1683705
17:46:02:513;-0.019153614;9.634268;-1.1683705
17:46:02:513;-0.019153614;9.634268;-1.1683705
17:46:02:513;-0.019153614;9.634268;-1.1683705
17:46:02:513;-0.019153614;9.634268;-1.1683705
17:46:02:513;-0.019153614;9.634268;-1.1683705
17:46:02:513;-0.019153614;9.634268;-1.1683705
17:46:02:513;-0.019153614;9.634268;-1.1683705
17:46:02:513;-0.019153614;9.634268;-1.1683705
17:46:02:513;-0.019153614;9.634268;-1.1683705
17:46:02:513;-0.019153614;9.634268;-1.1683705
17:46:02:513;-0.019153614;9.634268;-1.1683705
17:46:02:628;0.1340753;9.749189;0.7086837
17:46:02:628;0.1340753;9.749189;0.7086837
17:46:02:628;0.1340753;9.749189;0.7086837
17:46:02:628;0.1340753;9.749189;0.7086837
17:46:02:628;0.1340753;9.749189;0.7086837
17:46:02:628;0.1340753;9.749189;0.7086837
17:46:02:628;0.1340753;9.749189;0.7086837
17:46:02:628;0.1340753;9.749189;0.7086837
17:46:02:628;0.1340753;9.749189;0.7086837
17:46:02:628;0.1340753;9.749189;0.7086837
17:46:02:628;0.1340753;9.749189;0.7086837
17:46:02:628;0.1340753;9.749189;0.7086837
17:46:02:628;0.1340753;9.749189;0.7086837
17:46:02:628;0.1340753;9.749189;0.7086837
17:46:02:628;0.1340753;9.749189;0.7086837
17:46:02:747;1.1492168;9.998186;0.36391866
17:46:02:747;1.1492168;9.998186;0.36391866
17:46:02:747;1.1492168;9.998186;0.36391866
17:46:02:747;1.1492168;9.998186;0.36391866
17:46:02:747;1.1492168;9.998186;0.36391866
17:46:02:747;1.1492168;9.998186;0.36391866
17:46:02:747;1.1492168;9.998186;0.36391866
17:46:02:747;1.1492168;9.998186;0.36391866
17:46:02:747;1.1492168;9.998186;0.36391866
17:46:02:747;1.1492168;9.998186;0.36391866
17:46:02:747;1.1492168;9.998186;0.36391866
17:46:02:747;1.1492168;9.998186;0.36391866
17:46:02:747;1.1492168;9.998186;0.36391866
17:46:02:747;1.1492168;9.998186;0.36391866
17:46:02:747;1.1492168;9.998186;0.36391866
17:46:02:865;1.3982137;11.415554;-1.0151415
17:46:02:865;1.3982137;11.415554;-1.0151415
17:46:02:865;1.3982137;11.415554;-1.0151415
17:46:02:865;1.3982137;11.415554;-1.0151415
17:46:02:865;1.3982137;11.415554;-1.0151415
17:46:02:865;1.3982137;11.415554;-1.0151415
17:46:02:865;1.3982137;11.415554;-1.0151415
17:46:02:865;1.3982137;11.415554;-1.0151415
17:46:02:865;1.3982137;11.415554;-1.0151415
17:46:02:865;1.3982137;11.415554;-1.0151415
17:46:02:865;1.3982137;11.415554;-1.0151415
17:46:02:865;1.3982137;11.415554;-1.0151415
17:46:02:865;1.3982137;11.415554;-1.0151415
17:46:02:966;1.1300632;9.921572;-0.90021986
17:46:02:966;1.1300632;9.921572;-0.90021986
17:46:02:966;1.1300632;9.921572;-0.90021986
17:46:02:966;1.1300632;9.921572;-0.90021986
17:46:02:966;1.1300632;9.921572;-0.90021986
17:46:02:966;1.1300632;9.921572;-0.90021986
17:46:02:966;1.1300632;9.921572;-0.90021986
17:46:02:966;1.1300632;9.921572;-0.90021986
17:46:02:966;1.1300632;9.921572;-0.90021986
17:46:02:966;1.1300632;9.921572;-0.90021986
17:46:02:966;1.1300632;9.921572;-0.90021986
17:46:02:966;1.1300632;9.921572;-0.90021986
17:46:02:966;1.1300632;9.921572;-0.90021986
17:46:02:966;1.1300632;9.921572;-0.90021986
17:46:02:966;1.1300632;9.921572;-0.90021986
17:46:02:966;1.1300632;9.921572;-0.90021986
17:46:02:966;1.1300632;9.921572;-0.90021986
17:46:03:095;0.9576807;10.228029;0.51714754
17:46:03:095;0.9576807;10.228029;0.51714754
17:46:03:095;0.9576807;10.228029;0.51714754
17:46:03:095;0.9576807;10.228029;0.51714754
17:46:03:095;0.9576807;10.228029;0.51714754
17:46:03:095;0.9576807;10.228029;0.51714754
17:46:03:095;0.9576807;10.228029;0.51714754
17:46:03:095;0.9576807;10.228029;0.51714754
17:46:03:095;0.9576807;10.228029;0.51714754
17:46:03:095;0.9576807;10.228029;0.51714754
17:46:03:095;0.9576807;10.228029;0.51714754
17:46:03:095;0.9576807;10.228029;0.51714754
17:46:03:095;0.9576807;10.228029;0.51714754
17:46:03:198;0.32561144;9.346964;0.5363012
17:46:03:198;0.32561144;9.346964;0.5363012
17:46:03:198;0.32561144;9.346964;0.5363012
17:46:03:198;0.32561144;9.346964;0.5363012
17:46:03:198;0.32561144;9.346964;0.5363012
17:46:03:198;0.32561144;9.346964;0.5363012
17:46:03:198;0.32561144;9.346964;0.5363012
17:46:03:198;0.32561144;9.346964;0.5363012
17:46:03:198;0.32561144;9.346964;0.5363012
17:46:03:198;0.32561144;9.346964;0.5363012
17:46:03:198;0.32561144;9.346964;0.5363012
17:46:03:198;0.32561144;9.346964;0.5363012
17:46:03:198;0.32561144;9.346964;0.5363012
17:46:03:198;0.32561144;9.346964;0.5363012
17:46:03:198;0.32561144;9.346964;0.5363012
17:46:03:315;0.61291564;10.764331;0.2873042
17:46:03:315;0.61291564;10.764331;0.2873042
17:46:03:315;0.61291564;10.764331;0.2873042
17:46:03:315;0.61291564;10.764331;0.2873042
17:46:03:315;0.61291564;10.764331;0.2873042
17:46:03:315;0.61291564;10.764331;0.2873042
17:46:03:315;0.61291564;10.764331;0.2873042
17:46:03:315;0.61291564;10.764331;0.2873042
17:46:03:315;0.61291564;10.764331;0.2873042
17:46:03:315;0.61291564;10.764331;0.2873042
17:46:03:315;0.61291564;10.764331;0.2873042
17:46:03:315;0.61291564;10.764331;0.2873042
17:46:03:315;0.61291564;10.764331;0.2873042
17:46:03:315;0.61291564;10.764331;0.2873042
17:46:03:315;0.61291564;10.764331;0.2873042
17:46:03:432;1.340753;8.274361;0.22984336
17:46:03:432;1.340753;8.274361;0.22984336
17:46:03:432;1.340753;8.274361;0.22984336
17:46:03:432;1.340753;8.274361;0.22984336
17:46:03:432;1.340753;8.274361;0.22984336
17:46:03:432;1.340753;8.274361;0.22984336
17:46:03:432;1.340753;8.274361;0.22984336
17:46:03:432;1.340753;8.274361;0.22984336
17:46:03:432;1.340753;8.274361;0.22984336
17:46:03:432;1.340753;8.274361;0.22984336
17:46:03:432;1.340753;8.274361;0.22984336
17:46:03:432;1.340753;8.274361;0.22984336
17:46:03:432;1.340753;8.274361;0.22984336
17:46:03:432;1.340753;8.274361;0.22984336
17:46:03:432;1.340753;8.274361;0.22984336
17:46:03:552;-0.842759;9.825804;-0.095768064
17:46:03:552;-0.842759;9.825804;-0.095768064
17:46:03:552;-0.842759;9.825804;-0.095768064
17:46:03:552;-0.842759;9.825804;-0.095768064
17:46:03:552;-0.842759;9.825804;-0.095768064
17:46:03:552;-0.842759;9.825804;-0.095768064
17:46:03:552;-0.842759;9.825804;-0.095768064
17:46:03:552;-0.842759;9.825804;-0.095768064
17:46:03:552;-0.842759;9.825804;-0.095768064
17:46:03:552;-0.842759;9.825804;-0.095768064
17:46:03:552;-0.842759;9.825804;-0.095768064
17:46:03:552;-0.842759;9.825804;-0.095768064
17:46:03:552;-0.842759;9.825804;-0.095768064
17:46:03:552;-0.842759;9.825804;-0.095768064
17:46:03:552;-0.842759;9.825804;-0.095768064
17:46:03:670;-0.4213795;8.6574335;0.842759
17:46:03:670;-0.4213795;8.6574335;0.842759
17:46:03:670;-0.4213795;8.6574335;0.842759
17:46:03:670;-0.4213795;8.6574335;0.842759
17:46:03:670;-0.4213795;8.6574335;0.842759
17:46:03:670;-0.4213795;8.6574335;0.842759
17:46:03:670;-0.4213795;8.6574335;0.842759
17:46:03:670;-0.4213795;8.6574335;0.842759
17:46:03:670;-0.4213795;8.6574335;0.842759
17:46:03:670;-0.4213795;8.6574335;0.842759
17:46:03:670;-0.4213795;8.6574335;0.842759
17:46:03:670;-0.4213795;8.6574335;0.842759
17:46:03:670;-0.4213795;8.6574335;0.842759
17:46:03:670;-0.4213795;8.6574335;0.842759
17:46:03:670;-0.4213795;8.6574335;0.842759
17:46:03:786;0.6512229;10.170568;0.38307226
17:46:03:786;0.6512229;10.170568;0.38307226
17:46:03:786;0.6512229;10.170568;0.38307226
17:46:03:786;0.6512229;10.170568;0.38307226
17:46:03:786;0.6512229;10.170568;0.38307226
17:46:03:786;0.6512229;10.170568;0.38307226
17:46:03:786;0.6512229;10.170568;0.38307226
17:46:03:786;0.6512229;10.170568;0.38307226
17:46:03:786;0.6512229;10.170568;0.38307226
17:46:03:786;0.6512229;10.170568;0.38307226
17:46:03:786;0.6512229;10.170568;0.38307226
17:46:03:786;0.6512229;10.170568;0.38307226
17:46:03:786;0.6512229;10.170568;0.38307226
17:46:03:887;0.9959879;9.404425;-0.59376204
17:46:03:887;0.9959879;9.404425;-0.59376204
17:46:03:887;0.9959879;9.404425;-0.59376204
17:46:03:887;0.9959879;9.404425;-0.59376204
17:46:03:887;0.9959879;9.404425;-0.59376204
17:46:03:887;0.9959879;9.404425;-0.59376204
17:46:03:887;0.9959879;9.404425;-0.59376204
17:46:03:887;0.9959879;9.404425;-0.59376204
17:46:03:887;0.9959879;9.404425;-0.59376204
17:46:03:887;0.9959879;9.404425;-0.59376204
17:46:03:887;0.9959879;9.404425;-0.59376204
17:46:03:887;0.9959879;9.404425;-0.59376204
17:46:03:887;0.9959879;9.404425;-0.59376204
17:46:03:887;0.9959879;9.404425;-0.59376204
17:46:03:887;0.9959879;9.404425;-0.59376204
17:46:04:003;-0.17238252;11.549629;-0.34476504
17:46:04:003;-0.17238252;11.549629;-0.34476504
17:46:04:003;-0.17238252;11.549629;-0.34476504
17:46:04:003;-0.17238252;11.549629;-0.34476504
17:46:04:003;-0.17238252;11.549629;-0.34476504
17:46:04:003;-0.17238252;11.549629;-0.34476504
17:46:04:003;-0.17238252;11.549629;-0.34476504
17:46:04:003;-0.17238252;11.549629;-0.34476504
17:46:04:003;-0.17238252;11.549629;-0.34476504
17:46:04:003;-0.17238252;11.549629;-0.34476504
17:46:04:003;-0.17238252;11.549629;-0.34476504
17:46:04:003;-0.17238252;11.549629;-0.34476504
17:46:04:003;-0.17238252;11.549629;-0.34476504
17:46:04:003;-0.17238252;11.549629;-0.34476504
17:46:04:003;-0.17238252;11.549629;-0.34476504
17:46:04:003;-0.17238252;11.549629;-0.34476504
17:46:04:128;-1.1875241;10.381259;0.6512229
17:46:04:128;-1.1875241;10.381259;0.6512229
17:46:04:128;-1.1875241;10.381259;0.6512229
17:46:04:128;-1.1875241;10.381259;0.6512229
17:46:04:128;-1.1875241;10.381259;0.6512229
17:46:04:128;-1.1875241;10.381259;0.6512229
17:46:04:128;-1.1875241;10.381259;0.6512229
17:46:04:128;-1.1875241;10.381259;0.6512229
17:46:04:128;-1.1875241;10.381259;0.6512229
17:46:04:128;-1.1875241;10.381259;0.6512229
17:46:04:128;-1.1875241;10.381259;0.6512229
17:46:04:128;-1.1875241;10.381259;0.6512229
17:46:04:128;-1.1875241;10.381259;0.6512229
17:46:04:128;-1.1875241;10.381259;0.6512229
17:46:04:238;-0.78529817;10.840945;0.80445176
17:46:04:238;-0.78529817;10.840945;0.80445176
17:46:04:238;-0.78529817;10.840945;0.80445176
17:46:04:238;-0.78529817;10.840945;0.80445176
17:46:04:238;-0.78529817;10.840945;0.80445176
17:46:04:238;-0.78529817;10.840945;0.80445176
17:46:04:238;-0.78529817;10.840945;0.80445176
17:46:04:238;-0.78529817;10.840945;0.80445176
17:46:04:238;-0.78529817;10.840945;0.80445176
17:46:04:238;-0.78529817;10.840945;0.80445176
17:46:04:238;-0.78529817;10.840945;0.80445176
17:46:04:238;-0.78529817;10.840945;0.80445176
17:46:04:238;-0.78529817;10.840945;0.80445176
17:46:04:238;-0.78529817;10.840945;0.80445176
17:46:04:238;-0.78529817;10.840945;0.80445176
17:46:04:355;0.8810662;9.80665;0.095768064
17:46:04:355;0.8810662;9.80665;0.095768064
17:46:04:355;0.8810662;9.80665;0.095768064
17:46:04:355;0.8810662;9.80665;0.095768064
17:46:04:355;0.8810662;9.80665;0.095768064
17:46:04:355;0.8810662;9.80665;0.095768064
17:46:04:355;0.8810662;9.80665;0.095768064
17:46:04:355;0.8810662;9.80665;0.095768064
17:46:04:355;0.8810662;9.80665;0.095768064
17:46:04:355;0.8810662;9.80665;0.095768064
17:46:04:355;0.8810662;9.80665;0.095768064
17:46:04:355;0.8810662;9.80665;0.095768064
17:46:04:355;0.8810662;9.80665;0.095768064
17:46:04:355;0.8810662;9.80665;0.095768064
17:46:04:355;0.8810662;9.80665;0.095768064
17:46:04:475;0.2873042;8.542512;0.2873042
17:46:04:475;0.2873042;8.542512;0.2873042
17:46:04:475;0.2873042;8.542512;0.2873042
17:46:04:475;0.2873042;8.542512;0.2873042
17:46:04:475;0.2873042;8.542512;0.2873042
17:46:04:475;0.2873042;8.542512;0.2873042
17:46:04:475;0.2873042;8.542512;0.2873042
17:46:04:475;0.2873042;8.542512;0.2873042
17:46:04:475;0.2873042;8.542512;0.2873042
17:46:04:475;0.2873042;8.542512;0.2873042
17:46:04:475;0.2873042;8.542512;0.2873042
17:46:04:475;0.2873042;8.542512;0.2873042
17:46:04:475;0.2873042;8.542512;0.2873042
17:46:04:475;0.2873042;8.542512;0.2873042
17:46:04:475;0.2873042;8.542512;0.2873042
17:46:04:592;-0.5363012;10.668563;1.5514427
17:46:04:592;-0.5363012;10.668563;1.5514427
17:46:04:592;-0.5363012;10.668563;1.5514427
17:46:04:592;-0.5363012;10.668563;1.5514427
17:46:04:592;-0.5363012;10.668563;1.5514427
17:46:04:592;-0.5363012;10.668563;1.5514427
17:46:04:592;-0.5363012;10.668563;1.5514427
17:46:04:592;-0.5363012;10.668563;1.5514427
17:46:04:592;-0.5363012;10.668563;1.5514427
17:46:04:592;-0.5363012;10.668563;1.5514427
17:46:04:592;-0.5363012;10.668563;1.5514427
17:46:04:592;-0.5363012;10.668563;1.5514427
17:46:04:592;-0.5363012;10.668563;1.5514427
17:46:04:592;-0.5363012;10.668563;1.5514427
17:46:04:592;-0.5363012;10.668563;1.5514427
17:46:04:710;0.4405331;9.844957;0.38307226
17:46:04:710;0.4405331;9.844957;0.38307226
17:46:04:710;0.4405331;9.844957;0.38307226
17:46:04:710;0.4405331;9.844957;0.38307226
17:46:04:710;0.4405331;9.844957;0.38307226
17:46:04:710;0.4405331;9.844957;0.38307226
17:46:04:710;0.4405331;9.844957;0.38307226
17:46:04:710;0.4405331;9.844957;0.38307226
17:46:04:710;0.4405331;9.844957;0.38307226
17:46:04:710;0.4405331;9.844957;0.38307226
17:46:04:710;0.4405331;9.844957;0.38307226
17:46:04:710;0.4405331;9.844957;0.38307226
17:46:04:710;0.4405331;9.844957;0.38307226
17:46:04:710;0.4405331;9.844957;0.38307226
17:46:04:710;0.4405331;9.844957;0.38307226
17:46:04:828;0.2681506;11.013328;-0.05746084
17:46:04:828;0.2681506;11.013328;-0.05746084
17:46:04:828;0.2681506;11.013328;-0.05746084
17:46:04:828;0.2681506;11.013328;-0.05746084
17:46:04:828;0.2681506;11.013328;-0.05746084
17:46:04:828;0.2681506;11.013328;-0.05746084
17:46:04:828;0.2681506;11.013328;-0.05746084
17:46:04:828;0.2681506;11.013328;-0.05746084
17:46:04:828;0.2681506;11.013328;-0.05746084
17:46:04:828;0.2681506;11.013328;-0.05746084
17:46:04:828;0.2681506;11.013328;-0.05746084
17:46:04:828;0.2681506;11.013328;-0.05746084
17:46:04:828;0.2681506;11.013328;-0.05746084
17:46:04:828;0.2681506;11.013328;-0.05746084
17:46:04:828;0.2681506;11.013328;-0.05746084
17:46:04:943;-1.1492168;10.764331;1.2449849
17:46:04:943;-1.1492168;10.764331;1.2449849
17:46:04:943;-1.1492168;10.764331;1.2449849
17:46:04:943;-1.1492168;10.764331;1.2449849
17:46:04:943;-1.1492168;10.764331;1.2449849
17:46:04:943;-1.1492168;10.764331;1.2449849
17:46:04:943;-1.1492168;10.764331;1.2449849
17:46:04:943;-1.1492168;10.764331;1.2449849
17:46:04:943;-1.1492168;10.764331;1.2449849
17:46:04:943;-1.1492168;10.764331;1.2449849
17:46:04:943;-1.1492168;10.764331;1.2449849
17:46:04:943;-1.1492168;10.764331;1.2449849
17:46:04:943;-1.1492168;10.764331;1.2449849
17:46:04:943;-1.1492168;10.764331;1.2449849
17:46:04:943;-1.1492168;10.764331;1.2449849
17:46:05:061;0.9768343;8.7532015;-0.38307226
17:46:05:061;0.9768343;8.7532015;-0.38307226
17:46:05:061;0.9768343;8.7532015;-0.38307226
17:46:05:061;0.9768343;8.7532015;-0.38307226
17:46:05:061;0.9768343;8.7532015;-0.38307226
17:46:05:061;0.9768343;8.7532015;-0.38307226
17:46:05:061;0.9768343;8.7532015;-0.38307226
17:46:05:061;0.9768343;8.7532015;-0.38307226
17:46:05:061;0.9768343;8.7532015;-0.38307226
17:46:05:061;0.9768343;8.7532015;-0.38307226
17:46:05:061;0.9768343;8.7532015;-0.38307226
17:46:05:061;0.9768343;8.7532015;-0.38307226
17:46:05:061;0.9768343;8.7532015;-0.38307226
17:46:05:061;0.9768343;8.7532015;-0.38307226
17:46:05:061;0.9768343;8.7532015;-0.38307226
17:46:05:179;0.842759;9.346964;1.0726024
17:46:05:179;0.842759;9.346964;1.0726024
17:46:05:179;0.842759;9.346964;1.0726024
17:46:05:179;0.842759;9.346964;1.0726024
17:46:05:179;0.842759;9.346964;1.0726024
17:46:05:179;0.842759;9.346964;1.0726024
17:46:05:179;0.842759;9.346964;1.0726024
17:46:05:179;0.842759;9.346964;1.0726024
17:46:05:179;0.842759;9.346964;1.0726024
17:46:05:179;0.842759;9.346964;1.0726024
17:46:05:179;0.842759;9.346964;1.0726024
17:46:05:179;0.842759;9.346964;1.0726024
17:46:05:179;0.842759;9.346964;1.0726024
17:46:05:179;0.842759;9.346964;1.0726024
17:46:05:179;0.842759;9.346964;1.0726024
17:46:05:293;0.40222588;9.002198;0.2873042
17:46:05:293;0.40222588;9.002198;0.2873042
17:46:05:293;0.40222588;9.002198;0.2873042
17:46:05:293;0.40222588;9.002198;0.2873042
17:46:05:293;0.40222588;9.002198;0.2873042
17:46:05:293;0.40222588;9.002198;0.2873042
17:46:05:293;0.40222588;9.002198;0.2873042
17:46:05:293;0.40222588;9.002198;0.2873042
17:46:05:293;0.40222588;9.002198;0.2873042
17:46:05:293;0.40222588;9.002198;0.2873042
17:46:05:293;0.40222588;9.002198;0.2873042
17:46:05:293;0.40222588;9.002198;0.2873042
17:46:05:293;0.40222588;9.002198;0.2873042
17:46:05:293;0.40222588;9.002198;0.2873042
17:46:05:293;0.40222588;9.002198;0.2873042
17:46:05:412;-0.095768064;8.255207;0.4213795
17:46:05:412;-0.095768064;8.255207;0.4213795
17:46:05:412;-0.095768064;8.255207;0.4213795
17:46:05:412;-0.095768064;8.255207;0.4213795
17:46:05:412;-0.095768064;8.255207;0.4213795
17:46:05:412;-0.095768064;8.255207;0.4213795
17:46:05:412;-0.095768064;8.255207;0.4213795
17:46:05:412;-0.095768064;8.255207;0.4213795
17:46:05:412;-0.095768064;8.255207;0.4213795
17:46:05:412;-0.095768064;8.255207;0.4213795
17:46:05:412;-0.095768064;8.255207;0.4213795
17:46:05:412;-0.095768064;8.255207;0.4213795
17:46:05:412;-0.095768064;8.255207;0.4213795
17:46:05:412;-0.095768064;8.255207;0.4213795
17:46:05:412;-0.095768064;8.255207;0.4213795
17:46:05:531;0.78529817;10.28549;0.05746084
17:46:05:531;0.78529817;10.28549;0.05746084
17:46:05:531;0.78529817;10.28549;0.05746084
17:46:05:531;0.78529817;10.28549;0.05746084
17:46:05:531;0.78529817;10.28549;0.05746084
17:46:05:531;0.78529817;10.28549;0.05746084
17:46:05:531;0.78529817;10.28549;0.05746084
17:46:05:531;0.78529817;10.28549;0.05746084
17:46:05:531;0.78529817;10.28549;0.05746084
17:46:05:531;0.78529817;10.28549;0.05746084
17:46:05:531;0.78529817;10.28549;0.05746084
17:46:05:531;0.78529817;10.28549;0.05746084
17:46:05:531;0.78529817;10.28549;0.05746084
17:46:05:531;0.78529817;10.28549;0.05746084
17:46:05:531;0.78529817;10.28549;0.05746084
17:46:05:648;-0.1340753;10.821792;0.7086837
17:46:05:648;-0.1340753;10.821792;0.7086837
17:46:05:648;-0.1340753;10.821792;0.7086837
17:46:05:648;-0.1340753;10.821792;0.7086837
17:46:05:648;-0.1340753;10.821792;0.7086837
17:46:05:648;-0.1340753;10.821792;0.7086837
17:46:05:648;-0.1340753;10.821792;0.7086837
17:46:05:648;-0.1340753;10.821792;0.7086837
17:46:05:648;-0.1340753;10.821792;0.7086837
17:46:05:648;-0.1340753;10.821792;0.7086837
17:46:05:648;-0.1340753;10.821792;0.7086837
17:46:05:648;-0.1340753;10.821792;0.7086837
17:46:05:648;-0.1340753;10.821792;0.7086837
17:46:05:648;-0.1340753;10.821792;0.7086837
17:46:05:648;-0.1340753;10.821792;0.7086837
17:46:05:764;-0.7469909;10.764331;0.11492168
17:46:05:764;-0.7469909;10.764331;0.11492168
17:46:05:764;-0.7469909;10.764331;0.11492168
17:46:05:764;-0.7469909;10.764331;0.11492168
17:46:05:764;-0.7469909;10.764331;0.11492168
17:46:05:764;-0.7469909;10.764331;0.11492168
17:46:05:764;-0.7469909;10.764331;0.11492168
17:46:05:764;-0.7469909;10.764331;0.11492168
17:46:05:764;-0.7469909;10.764331;0.11492168
17:46:05:764;-0.7469909;10.764331;0.11492168
17:46:05:764;-0.7469909;10.764331;0.11492168
17:46:05:764;-0.7469909;10.764331;0.11492168
17:46:05:764;-0.7469909;10.764331;0.11492168
17:46:05:764;-0.7469909;10.764331;0.11492168
17:46:05:764;-0.7469909;10.764331;0.11492168
17:46:05:881;0.2873042;9.844957;0.842759
17:46:05:881;0.2873042;9.844957;0.842759
17:46:05:881;0.2873042;9.844957;0.842759
17:46:05:881;0.2873042;9.844957;0.842759
17:46:05:881;0.2873042;9.844957;0.842759
17:46:05:881;0.2873042;9.844957;0.842759
17:46:05:881;0.2873042;9.844957;0.842759
17:46:05:881;0.2873042;9.844957;0.842759
17:46:05:881;0.2873042;9.844957;0.842759
17:46:05:881;0.2873042;9.844957;0.842759
17:46:05:881;0.2873042;9.844957;0.842759
17:46:05:881;0.2873042;9.844957;0.842759
17:46:05:881;0.2873042;9.844957;0.842759
17:46:05:982;-0.21068975;10.323798;0.78529817
17:46:05:982;-0.21068975;10.323798;0.78529817
17:46:05:982;-0.21068975;10.323798;0.78529817
17:46:05:982;-0.21068975;10.323798;0.78529817
17:46:05:982;-0.21068975;10.323798;0.78529817
17:46:05:982;-0.21068975;10.323798;0.78529817
17:46:05:982;-0.21068975;10.323798;0.78529817
17:46:05:982;-0.21068975;10.323798;0.78529817
17:46:05:982;-0.21068975;10.323798;0.78529817
17:46:05:982;-0.21068975;10.323798;0.78529817
17:46:05:982;-0.21068975;10.323798;0.78529817
17:46:05:982;-0.21068975;10.323798;0.78529817
17:46:05:982;-0.21068975;10.323798;0.78529817
17:46:05:982;-0.21068975;10.323798;0.78529817
17:46:05:982;-0.21068975;10.323798;0.78529817
17:46:05:982;-0.21068975;10.323798;0.78529817
17:46:05:982;-0.21068975;10.323798;0.78529817
17:46:06:112;1.1683705;9.5385;0.7278373
17:46:06:112;1.1683705;9.5385;0.7278373
17:46:06:112;1.1683705;9.5385;0.7278373
17:46:06:112;1.1683705;9.5385;0.7278373
17:46:06:112;1.1683705;9.5385;0.7278373
17:46:06:112;1.1683705;9.5385;0.7278373
17:46:06:112;1.1683705;9.5385;0.7278373
17:46:06:112;1.1683705;9.5385;0.7278373
17:46:06:112;1.1683705;9.5385;0.7278373
17:46:06:112;1.1683705;9.5385;0.7278373
17:46:06:112;1.1683705;9.5385;0.7278373
17:46:06:112;1.1683705;9.5385;0.7278373
17:46:06:112;1.1683705;9.5385;0.7278373
17:46:06:213;-0.5363012;8.599973;0.8810662
17:46:06:213;-0.5363012;8.599973;0.8810662
17:46:06:213;-0.5363012;8.599973;0.8810662
17:46:06:213;-0.5363012;8.599973;0.8810662
17:46:06:213;-0.5363012;8.599973;0.8810662
17:46:06:213;-0.5363012;8.599973;0.8810662
17:46:06:213;-0.5363012;8.599973;0.8810662
17:46:06:213;-0.5363012;8.599973;0.8810662
17:46:06:213;-0.5363012;8.599973;0.8810662
17:46:06:213;-0.5363012;8.599973;0.8810662
17:46:06:213;-0.5363012;8.599973;0.8810662
17:46:06:213;-0.5363012;8.599973;0.8810662
17:46:06:213;-0.5363012;8.599973;0.8810662
17:46:06:213;-0.5363012;8.599973;0.8810662
17:46:06:213;-0.5363012;8.599973;0.8810662
17:46:06:213;-0.5363012;8.599973;0.8810662
17:46:06:213;-0.5363012;8.599973;0.8810662
17:46:06:344;-0.61291564;10.821792;0.30645782
17:46:06:344;-0.61291564;10.821792;0.30645782
17:46:06:344;-0.61291564;10.821792;0.30645782
17:46:06:344;-0.61291564;10.821792;0.30645782
17:46:06:344;-0.61291564;10.821792;0.30645782
17:46:06:344;-0.61291564;10.821792;0.30645782
17:46:06:344;-0.61291564;10.821792;0.30645782
17:46:06:344;-0.61291564;10.821792;0.30645782
17:46:06:344;-0.61291564;10.821792;0.30645782
17:46:06:344;-0.61291564;10.821792;0.30645782
17:46:06:344;-0.61291564;10.821792;0.30645782
17:46:06:344;-0.61291564;10.821792;0.30645782
17:46:06:344;-0.61291564;10.821792;0.30645782
17:46:06:448;0.5746084;10.400413;-0.38307226
17:46:06:448;0.5746084;10.400413;-0.38307226
17:46:06:448;0.5746084;10.400413;-0.38307226
17:46:06:448;0.5746084;10.400413;-0.38307226
17:46:06:448;0.5746084;10.400413;-0.38307226
17:46:06:448;0.5746084;10.400413;-0.38307226
17:46:06:448;0.5746084;10.400413;-0.38307226
17:46:06:448;0.5746084;10.400413;-0.38307226
17:46:06:448;0.5746084;10.400413;-0.38307226
17:46:06:448;0.5746084;10.400413;-0.38307226
17:46:06:448;0.5746084;10.400413;-0.38307226
17:46:06:448;0.5746084;10.400413;-0.38307226
17:46:06:448;0.5746084;10.400413;-0.38307226
17:46:06:448;0.5746084;10.400413;-0.38307226
17:46:06:448;0.5746084;10.400413;-0.38307226
17:46:06:566;-0.2873042;11.166556;0.63206923
17:46:06:566;-0.2873042;11.166556;0.63206923
17:46:06:566;-0.2873042;11.166556;0.63206923
17:46:06:566;-0.2873042;11.166556;0.63206923
17:46:06:566;-0.2873042;11.166556;0.63206923
17:46:06:566;-0.2873042;11.166556;0.63206923
17:46:06:566;-0.2873042;11.166556;0.63206923
17:46:06:566;-0.2873042;11.166556;0.63206923
17:46:06:566;-0.2873042;11.166556;0.63206923
17:46:06:566;-0.2873042;11.166556;0.63206923
17:46:06:566;-0.2873042;11.166556;0.63206923
17:46:06:566;-0.2873042;11.166556;0.63206923
17:46:06:566;-0.2873042;11.166556;0.63206923
17:46:06:566;-0.2873042;11.166556;0.63206923
17:46:06:566;-0.2873042;11.166556;0.63206923
17:46:06:684;-1.2641385;9.883265;0.7661445
17:46:06:684;-1.2641385;9.883265;0.7661445
17:46:06:684;-1.2641385;9.883265;0.7661445
17:46:06:684;-1.2641385;9.883265;0.7661445
17:46:06:684;-1.2641385;9.883265;0.7661445
17:46:06:684;-1.2641385;9.883265;0.7661445
17:46:06:684;-1.2641385;9.883265;0.7661445
17:46:06:684;-1.2641385;9.883265;0.7661445
17:46:06:684;-1.2641385;9.883265;0.7661445
17:46:06:684;-1.2641385;9.883265;0.7661445
17:46:06:684;-1.2641385;9.883265;0.7661445
17:46:06:684;-1.2641385;9.883265;0.7661445
17:46:06:684;-1.2641385;9.883265;0.7661445
17:46:06:787;-0.4405331;10.266336;-0.36391866
17:46:06:787;-0.4405331;10.266336;-0.36391866
17:46:06:787;-0.4405331;10.266336;-0.36391866
17:46:06:787;-0.4405331;10.266336;-0.36391866
17:46:06:787;-0.4405331;10.266336;-0.36391866
17:46:06:787;-0.4405331;10.266336;-0.36391866
17:46:06:787;-0.4405331;10.266336;-0.36391866
17:46:06:787;-0.4405331;10.266336;-0.36391866
17:46:06:787;-0.4405331;10.266336;-0.36391866
17:46:06:787;-0.4405331;10.266336;-0.36391866
17:46:06:787;-0.4405331;10.266336;-0.36391866
17:46:06:787;-0.4405331;10.266336;-0.36391866
17:46:06:787;-0.4405331;10.266336;-0.36391866
17:46:06:787;-0.4405331;10.266336;-0.36391866
17:46:06:897;0.5746084;10.055647;0.40222588
17:46:06:897;0.5746084;10.055647;0.40222588
17:46:06:897;0.5746084;10.055647;0.40222588
17:46:06:897;0.5746084;10.055647;0.40222588
17:46:06:897;0.5746084;10.055647;0.40222588
17:46:06:897;0.5746084;10.055647;0.40222588
17:46:06:897;0.5746084;10.055647;0.40222588
17:46:06:897;0.5746084;10.055647;0.40222588
17:46:06:897;0.5746084;10.055647;0.40222588
17:46:06:897;0.5746084;10.055647;0.40222588
17:46:06:897;0.5746084;10.055647;0.40222588
17:46:06:897;0.5746084;10.055647;0.40222588
17:46:06:897;0.5746084;10.055647;0.40222588
17:46:06:897;0.5746084;10.055647;0.40222588
17:46:06:897;0.5746084;10.055647;0.40222588
17:46:06:897;0.5746084;10.055647;0.40222588
17:46:07:017;-0.45968673;9.730036;-0.019153614
17:46:07:017;-0.45968673;9.730036;-0.019153614
17:46:07:017;-0.45968673;9.730036;-0.019153614
17:46:07:017;-0.45968673;9.730036;-0.019153614
17:46:07:017;-0.45968673;9.730036;-0.019153614
17:46:07:017;-0.45968673;9.730036;-0.019153614
17:46:07:017;-0.45968673;9.730036;-0.019153614
17:46:07:017;-0.45968673;9.730036;-0.019153614
17:46:07:017;-0.45968673;9.730036;-0.019153614
17:46:07:017;-0.45968673;9.730036;-0.019153614
17:46:07:017;-0.45968673;9.730036;-0.019153614
17:46:07:017;-0.45968673;9.730036;-0.019153614
17:46:07:017;-0.45968673;9.730036;-0.019153614
17:46:07:017;-0.45968673;9.730036;-0.019153614
17:46:07:017;-0.45968673;9.730036;-0.019153614
17:46:07:017;-0.45968673;9.730036;-0.019153614
17:46:07:144;0.47884035;9.461885;0.1340753
17:46:07:144;0.47884035;9.461885;0.1340753
17:46:07:144;0.47884035;9.461885;0.1340753
17:46:07:144;0.47884035;9.461885;0.1340753
17:46:07:144;0.47884035;9.461885;0.1340753
17:46:07:144;0.47884035;9.461885;0.1340753
17:46:07:144;0.47884035;9.461885;0.1340753
17:46:07:144;0.47884035;9.461885;0.1340753
17:46:07:144;0.47884035;9.461885;0.1340753
17:46:07:144;0.47884035;9.461885;0.1340753
17:46:07:144;0.47884035;9.461885;0.1340753
17:46:07:144;0.47884035;9.461885;0.1340753
17:46:07:144;0.47884035;9.461885;0.1340753
17:46:07:144;0.47884035;9.461885;0.1340753
17:46:07:144;0.47884035;9.461885;0.1340753
17:46:07:144;0.47884035;9.461885;0.1340753
17:46:07:270;0.47884035;9.787497;0.4405331
17:46:07:270;0.47884035;9.787497;0.4405331
17:46:07:270;0.47884035;9.787497;0.4405331
17:46:07:270;0.47884035;9.787497;0.4405331
17:46:07:270;0.47884035;9.787497;0.4405331
17:46:07:270;0.47884035;9.787497;0.4405331
17:46:07:270;0.47884035;9.787497;0.4405331
17:46:07:270;0.47884035;9.787497;0.4405331
17:46:07:270;0.47884035;9.787497;0.4405331
17:46:07:270;0.47884035;9.787497;0.4405331
17:46:07:270;0.47884035;9.787497;0.4405331
17:46:07:270;0.47884035;9.787497;0.4405331
17:46:07:270;0.47884035;9.787497;0.4405331
17:46:07:270;0.47884035;9.787497;0.4405331
17:46:07:270;0.47884035;9.787497;0.4405331
17:46:07:270;0.47884035;9.787497;0.4405331
17:46:07:391;-0.80445176;9.385271;0.34476504
17:46:07:391;-0.80445176;9.385271;0.34476504
17:46:07:391;-0.80445176;9.385271;0.34476504
17:46:07:391;-0.80445176;9.385271;0.34476504
17:46:07:391;-0.80445176;9.385271;0.34476504
17:46:07:391;-0.80445176;9.385271;0.34476504
17:46:07:391;-0.80445176;9.385271;0.34476504
17:46:07:391;-0.80445176;9.385271;0.34476504
17:46:07:391;-0.80445176;9.385271;0.34476504
17:46:07:391;-0.80445176;9.385271;0.34476504
17:46:07:391;-0.80445176;9.385271;0.34476504
17:46:07:391;-0.80445176;9.385271;0.34476504
17:46:07:391;-0.80445176;9.385271;0.34476504
17:46:07:391;-0.80445176;9.385271;0.34476504
17:46:07:506;-0.11492168;8.7532015;1.3790601
17:46:07:506;-0.11492168;8.7532015;1.3790601
17:46:07:506;-0.11492168;8.7532015;1.3790601
17:46:07:506;-0.11492168;8.7532015;1.3790601
17:46:07:506;-0.11492168;8.7532015;1.3790601
17:46:07:506;-0.11492168;8.7532015;1.3790601
17:46:07:506;-0.11492168;8.7532015;1.3790601
17:46:07:506;-0.11492168;8.7532015;1.3790601
17:46:07:506;-0.11492168;8.7532015;1.3790601
17:46:07:506;-0.11492168;8.7532015;1.3790601
17:46:07:506;-0.11492168;8.7532015;1.3790601
17:46:07:506;-0.11492168;8.7532015;1.3790601
17:46:07:506;-0.11492168;8.7532015;1.3790601
17:46:07:506;-0.11492168;8.7532015;1.3790601
17:46:07:506;-0.11492168;8.7532015;1.3790601
17:46:07:624;1.3982137;10.572795;-1.091756
17:46:07:624;1.3982137;10.572795;-1.091756
17:46:07:624;1.3982137;10.572795;-1.091756
17:46:07:624;1.3982137;10.572795;-1.091756
17:46:07:624;1.3982137;10.572795;-1.091756
17:46:07:624;1.3982137;10.572795;-1.091756
17:46:07:624;1.3982137;10.572795;-1.091756
17:46:07:624;1.3982137;10.572795;-1.091756
17:46:07:624;1.3982137;10.572795;-1.091756
17:46:07:624;1.3982137;10.572795;-1.091756
17:46:07:624;1.3982137;10.572795;-1.091756
17:46:07:624;1.3982137;10.572795;-1.091756
17:46:07:624;1.3982137;10.572795;-1.091756
17:46:07:624;1.3982137;10.572795;-1.091756
17:46:07:624;1.3982137;10.572795;-1.091756
17:46:07:740;0.095768064;10.113108;0.45968673
17:46:07:740;0.095768064;10.113108;0.45968673
17:46:07:740;0.095768064;10.113108;0.45968673
17:46:07:740;0.095768064;10.113108;0.45968673
17:46:07:740;0.095768064;10.113108;0.45968673
17:46:07:740;0.095768064;10.113108;0.45968673
17:46:07:740;0.095768064;10.113108;0.45968673
17:46:07:740;0.095768064;10.113108;0.45968673
17:46:07:740;0.095768064;10.113108;0.45968673
17:46:07:740;0.095768064;10.113108;0.45968673
17:46:07:740;0.095768064;10.113108;0.45968673
17:46:07:740;0.095768064;10.113108;0.45968673
17:46:07:740;0.095768064;10.113108;0.45968673
17:46:07:740;0.095768064;10.113108;0.45968673
17:46:07:740;0.095768064;10.113108;0.45968673
17:46:07:740;0.095768064;10.113108;0.45968673
17:46:07:740;0.095768064;10.113108;0.45968673
17:46:07:740;0.095768064;10.113108;0.45968673
17:46:07:740;0.095768064;10.113108;0.45968673
17:46:07:740;0.095768064;10.113108;0.45968673
17:46:07:893;0.36391866;9.864111;0.61291564
17:46:07:893;0.36391866;9.864111;0.61291564
17:46:07:893;0.36391866;9.864111;0.61291564
17:46:07:893;0.36391866;9.864111;0.61291564
17:46:07:893;0.36391866;9.864111;0.61291564
17:46:07:893;0.36391866;9.864111;0.61291564
17:46:07:893;0.36391866;9.864111;0.61291564
17:46:07:893;0.36391866;9.864111;0.61291564
17:46:07:893;0.36391866;9.864111;0.61291564
17:46:07:893;0.36391866;9.864111;0.61291564
17:46:07:893;0.36391866;9.864111;0.61291564
17:46:07:893;0.36391866;9.864111;0.61291564
17:46:07:893;0.36391866;9.864111;0.61291564
17:46:07:996;0.1340753;9.768343;0.38307226
17:46:07:996;0.1340753;9.768343;0.38307226
17:46:07:996;0.1340753;9.768343;0.38307226
17:46:07:996;0.1340753;9.768343;0.38307226
17:46:07:996;0.1340753;9.768343;0.38307226
17:46:07:996;0.1340753;9.768343;0.38307226
17:46:07:996;0.1340753;9.768343;0.38307226
17:46:07:996;0.1340753;9.768343;0.38307226
17:46:07:996;0.1340753;9.768343;0.38307226
17:46:07:996;0.1340753;9.768343;0.38307226
17:46:07:996;0.1340753;9.768343;0.38307226
17:46:07:996;0.1340753;9.768343;0.38307226
17:46:07:996;0.1340753;9.768343;0.38307226
17:46:07:996;0.1340753;9.768343;0.38307226
17:46:08:103;0.30645782;10.860099;0.36391866
17:46:08:103;0.30645782;10.860099;0.36391866
17:46:08:103;0.30645782;10.860099;0.36391866
17:46:08:103;0.30645782;10.860099;0.36391866
17:46:08:103;0.30645782;10.860099;0.36391866
17:46:08:103;0.30645782;10.860099;0.36391866
17:46:08:103;0.30645782;10.860099;0.36391866
17:46:08:103;0.30645782;10.860099;0.36391866
17:46:08:103;0.30645782;10.860099;0.36391866
17:46:08:103;0.30645782;10.860099;0.36391866
17:46:08:103;0.30645782;10.860099;0.36391866
17:46:08:103;0.30645782;10.860099;0.36391866
17:46:08:103;0.30645782;10.860099;0.36391866
17:46:08:103;0.30645782;10.860099;0.36391866
17:46:08:211;-0.4213795;10.323798;0.6703765
17:46:08:211;-0.4213795;10.323798;0.6703765
17:46:08:211;-0.4213795;10.323798;0.6703765
17:46:08:211;-0.4213795;10.323798;0.6703765
17:46:08:211;-0.4213795;10.323798;0.6703765
17:46:08:211;-0.4213795;10.323798;0.6703765
17:46:08:211;-0.4213795;10.323798;0.6703765
17:46:08:211;-0.4213795;10.323798;0.6703765
17:46:08:211;-0.4213795;10.323798;0.6703765
17:46:08:211;-0.4213795;10.323798;0.6703765
17:46:08:211;-0.4213795;10.323798;0.6703765
17:46:08:211;-0.4213795;10.323798;0.6703765
17:46:08:211;-0.4213795;10.323798;0.6703765
17:46:08:211;-0.4213795;10.323798;0.6703765
17:46:08:328;-0.45968673;9.787497;-0.80445176
17:46:08:328;-0.45968673;9.787497;-0.80445176
17:46:08:328;-0.45968673;9.787497;-0.80445176
17:46:08:328;-0.45968673;9.787497;-0.80445176
17:46:08:328;-0.45968673;9.787497;-0.80445176
17:46:08:328;-0.45968673;9.787497;-0.80445176
17:46:08:328;-0.45968673;9.787497;-0.80445176
17:46:08:328;-0.45968673;9.787497;-0.80445176
17:46:08:328;-0.45968673;9.787497;-0.80445176
17:46:08:328;-0.45968673;9.787497;-0.80445176
17:46:08:328;-0.45968673;9.787497;-0.80445176
17:46:08:328;-0.45968673;9.787497;-0.80445176
17:46:08:328;-0.45968673;9.787497;-0.80445176
17:46:08:328;-0.45968673;9.787497;-0.80445176
17:46:08:328;-0.45968673;9.787497;-0.80445176
17:46:08:328;-0.45968673;9.787497;-0.80445176
17:46:08:328;-0.45968673;9.787497;-0.80445176
17:46:08:328;-0.45968673;9.787497;-0.80445176
17:46:08:328;-0.45968673;9.787497;-0.80445176
17:46:08:471;-0.7086837;9.80665;-0.40222588
17:46:08:471;-0.7086837;9.80665;-0.40222588
17:46:08:471;-0.7086837;9.80665;-0.40222588
17:46:08:471;-0.7086837;9.80665;-0.40222588
17:46:08:471;-0.7086837;9.80665;-0.40222588
17:46:08:471;-0.7086837;9.80665;-0.40222588
17:46:08:471;-0.7086837;9.80665;-0.40222588
17:46:08:471;-0.7086837;9.80665;-0.40222588
17:46:08:471;-0.7086837;9.80665;-0.40222588
17:46:08:471;-0.7086837;9.80665;-0.40222588
17:46:08:471;-0.7086837;9.80665;-0.40222588
17:46:08:471;-0.7086837;9.80665;-0.40222588
17:46:08:471;-0.7086837;9.80665;-0.40222588
17:46:08:572;0.9768343;9.232041;0.38307226
17:46:08:572;0.9768343;9.232041;0.38307226
17:46:08:572;0.9768343;9.232041;0.38307226
17:46:08:572;0.9768343;9.232041;0.38307226
17:46:08:572;0.9768343;9.232041;0.38307226
17:46:08:572;0.9768343;9.232041;0.38307226
17:46:08:572;0.9768343;9.232041;0.38307226
17:46:08:572;0.9768343;9.232041;0.38307226
17:46:08:572;0.9768343;9.232041;0.38307226
17:46:08:572;0.9768343;9.232041;0.38307226
17:46:08:572;0.9768343;9.232041;0.38307226
17:46:08:572;0.9768343;9.232041;0.38307226
17:46:08:572;0.9768343;9.232041;0.38307226
17:46:08:572;0.9768343;9.232041;0.38307226
17:46:08:681;0.36391866;9.864111;0.7661445
17:46:08:681;0.36391866;9.864111;0.7661445
17:46:08:681;0.36391866;9.864111;0.7661445
17:46:08:681;0.36391866;9.864111;0.7661445
17:46:08:681;0.36391866;9.864111;0.7661445
17:46:08:681;0.36391866;9.864111;0.7661445
17:46:08:681;0.36391866;9.864111;0.7661445
17:46:08:681;0.36391866;9.864111;0.7661445
17:46:08:681;0.36391866;9.864111;0.7661445
17:46:08:681;0.36391866;9.864111;0.7661445
17:46:08:681;0.36391866;9.864111;0.7661445
17:46:08:681;0.36391866;9.864111;0.7661445
17:46:08:681;0.36391866;9.864111;0.7661445
17:46:08:681;0.36391866;9.864111;0.7661445
17:46:08:681;0.36391866;9.864111;0.7661445
17:46:08:797;0.80445176;9.921572;-0.5363012
17:46:08:797;0.80445176;9.921572;-0.5363012
17:46:08:797;0.80445176;9.921572;-0.5363012
17:46:08:797;0.80445176;9.921572;-0.5363012
17:46:08:797;0.80445176;9.921572;-0.5363012
17:46:08:797;0.80445176;9.921572;-0.5363012
17:46:08:797;0.80445176;9.921572;-0.5363012
17:46:08:797;0.80445176;9.921572;-0.5363012
17:46:08:797;0.80445176;9.921572;-0.5363012
17:46:08:797;0.80445176;9.921572;-0.5363012
17:46:08:797;0.80445176;9.921572;-0.5363012
17:46:08:797;0.80445176;9.921572;-0.5363012
17:46:08:797;0.80445176;9.921572;-0.5363012
17:46:08:797;0.80445176;9.921572;-0.5363012
17:46:08:914;-0.90021986;10.170568;0.21068975
17:46:08:914;-0.90021986;10.170568;0.21068975
17:46:08:914;-0.90021986;10.170568;0.21068975
17:46:08:914;-0.90021986;10.170568;0.21068975
17:46:08:914;-0.90021986;10.170568;0.21068975
17:46:08:914;-0.90021986;10.170568;0.21068975
17:46:08:914;-0.90021986;10.170568;0.21068975
17:46:08:914;-0.90021986;10.170568;0.21068975
17:46:08:914;-0.90021986;10.170568;0.21068975
17:46:08:914;-0.90021986;10.170568;0.21068975
17:46:08:914;-0.90021986;10.170568;0.21068975
17:46:08:914;-0.90021986;10.170568;0.21068975
17:46:08:914;-0.90021986;10.170568;0.21068975
17:46:08:914;-0.90021986;10.170568;0.21068975
17:46:08:914;-0.90021986;10.170568;0.21068975
17:46:08:914;-0.90021986;10.170568;0.21068975
17:46:09:033;-0.1340753;9.3661175;0.63206923
17:46:09:033;-0.1340753;9.3661175;0.63206923
17:46:09:033;-0.1340753;9.3661175;0.63206923
17:46:09:033;-0.1340753;9.3661175;0.63206923
17:46:09:033;-0.1340753;9.3661175;0.63206923
17:46:09:033;-0.1340753;9.3661175;0.63206923
17:46:09:033;-0.1340753;9.3661175;0.63206923
17:46:09:033;-0.1340753;9.3661175;0.63206923
17:46:09:033;-0.1340753;9.3661175;0.63206923
17:46:09:033;-0.1340753;9.3661175;0.63206923
17:46:09:033;-0.1340753;9.3661175;0.63206923
17:46:09:033;-0.1340753;9.3661175;0.63206923
17:46:09:033;-0.1340753;9.3661175;0.63206923
17:46:09:033;-0.1340753;9.3661175;0.63206923
17:46:09:033;-0.1340753;9.3661175;0.63206923
17:46:09:150;0.076614454;7.795521;0.038307227
17:46:09:150;0.076614454;7.795521;0.038307227
17:46:09:150;0.076614454;7.795521;0.038307227
17:46:09:150;0.076614454;7.795521;0.038307227
17:46:09:150;0.076614454;7.795521;0.038307227
17:46:09:150;0.076614454;7.795521;0.038307227
17:46:09:150;0.076614454;7.795521;0.038307227
17:46:09:150;0.076614454;7.795521;0.038307227
17:46:09:150;0.076614454;7.795521;0.038307227
17:46:09:150;0.076614454;7.795521;0.038307227
17:46:09:150;0.076614454;7.795521;0.038307227
17:46:09:150;0.076614454;7.795521;0.038307227
17:46:09:150;0.076614454;7.795521;0.038307227
17:46:09:150;0.076614454;7.795521;0.038307227
17:46:09:150;0.076614454;7.795521;0.038307227
17:46:09:266;0.5363012;8.293514;-0.6512229
17:46:09:266;0.5363012;8.293514;-0.6512229
17:46:09:266;0.5363012;8.293514;-0.6512229
17:46:09:266;0.5363012;8.293514;-0.6512229
17:46:09:266;0.5363012;8.293514;-0.6512229
17:46:09:266;0.5363012;8.293514;-0.6512229
17:46:09:266;0.5363012;8.293514;-0.6512229
17:46:09:266;0.5363012;8.293514;-0.6512229
17:46:09:266;0.5363012;8.293514;-0.6512229
17:46:09:266;0.5363012;8.293514;-0.6512229
17:46:09:266;0.5363012;8.293514;-0.6512229
17:46:09:266;0.5363012;8.293514;-0.6512229
17:46:09:266;0.5363012;8.293514;-0.6512229
17:46:09:266;0.5363012;8.293514;-0.6512229
17:46:09:266;0.5363012;8.293514;-0.6512229
17:46:09:266;0.5363012;8.293514;-0.6512229
17:46:09:266;0.5363012;8.293514;-0.6512229
17:46:09:266;0.5363012;8.293514;-0.6512229
17:46:09:408;0.7086837;9.921572;-0.17238252
17:46:09:408;0.7086837;9.921572;-0.17238252
17:46:09:408;0.7086837;9.921572;-0.17238252
17:46:09:408;0.7086837;9.921572;-0.17238252
17:46:09:408;0.7086837;9.921572;-0.17238252
17:46:09:408;0.7086837;9.921572;-0.17238252
17:46:09:408;0.7086837;9.921572;-0.17238252
17:46:09:408;0.7086837;9.921572;-0.17238252
17:46:09:408;0.7086837;9.921572;-0.17238252
17:46:09:408;0.7086837;9.921572;-0.17238252
17:46:09:408;0.7086837;9.921572;-0.17238252
17:46:09:408;0.7086837;9.921572;-0.17238252
17:46:09:408;0.7086837;9.921572;-0.17238252
17:46:09:408;0.7086837;9.921572;-0.17238252
17:46:09:523;-0.6703765;11.722012;-0.038307227
17:46:09:523;-0.6703765;11.722012;-0.038307227
17:46:09:523;-0.6703765;11.722012;-0.038307227
17:46:09:523;-0.6703765;11.722012;-0.038307227
17:46:09:523;-0.6703765;11.722012;-0.038307227
17:46:09:523;-0.6703765;11.722012;-0.038307227
17:46:09:523;-0.6703765;11.722012;-0.038307227
17:46:09:523;-0.6703765;11.722012;-0.038307227
17:46:09:523;-0.6703765;11.722012;-0.038307227
17:46:09:523;-0.6703765;11.722012;-0.038307227
17:46:09:523;-0.6703765;11.722012;-0.038307227
17:46:09:523;-0.6703765;11.722012;-0.038307227
17:46:09:523;-0.6703765;11.722012;-0.038307227
17:46:09:523;-0.6703765;11.722012;-0.038307227
17:46:09:523;-0.6703765;11.722012;-0.038307227
17:46:09:523;-0.6703765;11.722012;-0.038307227
17:46:09:523;-0.6703765;11.722012;-0.038307227
17:46:09:523;-0.6703765;11.722012;-0.038307227
17:46:09:523;-0.6703765;11.722012;-0.038307227
17:46:09:523;-0.6703765;11.722012;-0.038307227
17:46:09:676;1.1492168;9.059659;1.6472107
17:46:09:676;1.1492168;9.059659;1.6472107
17:46:09:676;1.1492168;9.059659;1.6472107
17:46:09:676;1.1492168;9.059659;1.6472107
17:46:09:676;1.1492168;9.059659;1.6472107
17:46:09:676;1.1492168;9.059659;1.6472107
17:46:09:676;1.1492168;9.059659;1.6472107
17:46:09:676;1.1492168;9.059659;1.6472107
17:46:09:676;1.1492168;9.059659;1.6472107
17:46:09:676;1.1492168;9.059659;1.6472107
17:46:09:676;1.1492168;9.059659;1.6472107
17:46:09:676;1.1492168;9.059659;1.6472107
17:46:09:676;1.1492168;9.059659;1.6472107
17:46:09:676;1.1492168;9.059659;1.6472107
17:46:09:676;1.1492168;9.059659;1.6472107
17:46:09:796;1.2641385;9.232041;-0.1340753
17:46:09:796;1.2641385;9.232041;-0.1340753
17:46:09:796;1.2641385;9.232041;-0.1340753
17:46:09:796;1.2641385;9.232041;-0.1340753
17:46:09:796;1.2641385;9.232041;-0.1340753
17:46:09:796;1.2641385;9.232041;-0.1340753
17:46:09:796;1.2641385;9.232041;-0.1340753
17:46:09:796;1.2641385;9.232041;-0.1340753
17:46:09:796;1.2641385;9.232041;-0.1340753
17:46:09:796;1.2641385;9.232041;-0.1340753
17:46:09:796;1.2641385;9.232041;-0.1340753
17:46:09:796;1.2641385;9.232041;-0.1340753
17:46:09:796;1.2641385;9.232041;-0.1340753
17:46:09:796;1.2641385;9.232041;-0.1340753
17:46:09:796;1.2641385;9.232041;-0.1340753
17:46:09:796;1.2641385;9.232041;-0.1340753
17:46:09:796;1.2641385;9.232041;-0.1340753
17:46:09:796;1.2641385;9.232041;-0.1340753
17:46:09:796;1.2641385;9.232041;-0.1340753
17:46:09:796;1.2641385;9.232041;-0.1340753
17:46:09:796;1.2641385;9.232041;-0.1340753
17:46:09:796;1.2641385;9.232041;-0.1340753
17:46:09:967;-0.38307226;12.373235;0.63206923
17:46:09:967;-0.38307226;12.373235;0.63206923
17:46:09:967;-0.38307226;12.373235;0.63206923
17:46:09:967;-0.38307226;12.373235;0.63206923
17:46:09:967;-0.38307226;12.373235;0.63206923
17:46:09:967;-0.38307226;12.373235;0.63206923
17:46:09:967;-0.38307226;12.373235;0.63206923
17:46:09:967;-0.38307226;12.373235;0.63206923
17:46:09:967;-0.38307226;12.373235;0.63206923
17:46:09:967;-0.38307226;12.373235;0.63206923
17:46:09:967;-0.38307226;12.373235;0.63206923
17:46:09:967;-0.38307226;12.373235;0.63206923
17:46:09:967;-0.38307226;12.373235;0.63206923
17:46:10:069;-0.90021986;8.101978;2.336741
17:46:10:069;-0.90021986;8.101978;2.336741
17:46:10:069;-0.90021986;8.101978;2.336741
17:46:10:069;-0.90021986;8.101978;2.336741
17:46:10:069;-0.90021986;8.101978;2.336741
17:46:10:069;-0.90021986;8.101978;2.336741
17:46:10:069;-0.90021986;8.101978;2.336741
17:46:10:069;-0.90021986;8.101978;2.336741
17:46:10:069;-0.90021986;8.101978;2.336741
17:46:10:069;-0.90021986;8.101978;2.336741
17:46:10:069;-0.90021986;8.101978;2.336741
17:46:10:069;-0.90021986;8.101978;2.336741
17:46:10:069;-0.90021986;8.101978;2.336741
17:46:10:069;-0.90021986;8.101978;2.336741
17:46:10:069;-0.90021986;8.101978;2.336741
17:46:10:187;-0.80445176;13.752295;-2.432509
17:46:10:187;-0.80445176;13.752295;-2.432509
17:46:10:187;-0.80445176;13.752295;-2.432509
17:46:10:187;-0.80445176;13.752295;-2.432509
17:46:10:187;-0.80445176;13.752295;-2.432509
17:46:10:187;-0.80445176;13.752295;-2.432509
17:46:10:187;-0.80445176;13.752295;-2.432509
17:46:10:187;-0.80445176;13.752295;-2.432509
17:46:10:187;-0.80445176;13.752295;-2.432509
17:46:10:187;-0.80445176;13.752295;-2.432509
17:46:10:187;-0.80445176;13.752295;-2.432509
17:46:10:187;-0.80445176;13.752295;-2.432509
17:46:10:187;-0.80445176;13.752295;-2.432509
17:46:10:187;-0.80445176;13.752295;-2.432509
17:46:10:187;-0.80445176;13.752295;-2.432509
17:46:10:304;-0.49799395;8.542512;1.3790601
17:46:10:304;-0.49799395;8.542512;1.3790601
17:46:10:304;-0.49799395;8.542512;1.3790601
17:46:10:304;-0.49799395;8.542512;1.3790601
17:46:10:304;-0.49799395;8.542512;1.3790601
17:46:10:304;-0.49799395;8.542512;1.3790601
17:46:10:304;-0.49799395;8.542512;1.3790601
17:46:10:304;-0.49799395;8.542512;1.3790601
17:46:10:304;-0.49799395;8.542512;1.3790601
17:46:10:304;-0.49799395;8.542512;1.3790601
17:46:10:304;-0.49799395;8.542512;1.3790601
17:46:10:304;-0.49799395;8.542512;1.3790601
17:46:10:304;-0.49799395;8.542512;1.3790601
17:46:10:304;-0.49799395;8.542512;1.3790601
17:46:10:304;-0.49799395;8.542512;1.3790601
17:46:10:304;-0.49799395;8.542512;1.3790601
17:46:10:426;-0.40222588;10.726024;-0.21068975
17:46:10:426;-0.40222588;10.726024;-0.21068975
17:46:10:426;-0.40222588;10.726024;-0.21068975
17:46:10:426;-0.40222588;10.726024;-0.21068975
17:46:10:426;-0.40222588;10.726024;-0.21068975
17:46:10:426;-0.40222588;10.726024;-0.21068975
17:46:10:426;-0.40222588;10.726024;-0.21068975
17:46:10:426;-0.40222588;10.726024;-0.21068975
17:46:10:426;-0.40222588;10.726024;-0.21068975
17:46:10:426;-0.40222588;10.726024;-0.21068975
17:46:10:426;-0.40222588;10.726024;-0.21068975
17:46:10:426;-0.40222588;10.726024;-0.21068975
17:46:10:426;-0.40222588;10.726024;-0.21068975
17:46:10:426;-0.40222588;10.726024;-0.21068975
17:46:10:538;-0.40222588;7.489063;0.91937345
17:46:10:538;-0.40222588;7.489063;0.91937345
17:46:10:538;-0.40222588;7.489063;0.91937345
17:46:10:538;-0.40222588;7.489063;0.91937345
17:46:10:538;-0.40222588;7.489063;0.91937345
17:46:10:538;-0.40222588;7.489063;0.91937345
17:46:10:538;-0.40222588;7.489063;0.91937345
17:46:10:538;-0.40222588;7.489063;0.91937345
17:46:10:538;-0.40222588;7.489063;0.91937345
17:46:10:538;-0.40222588;7.489063;0.91937345
17:46:10:538;-0.40222588;7.489063;0.91937345
17:46:10:538;-0.40222588;7.489063;0.91937345
17:46:10:538;-0.40222588;7.489063;0.91937345
17:46:10:538;-0.40222588;7.489063;0.91937345
17:46:10:538;-0.40222588;7.489063;0.91937345
17:46:10:655;-1.2641385;12.028469;-0.4213795
17:46:10:655;-1.2641385;12.028469;-0.4213795
17:46:10:655;-1.2641385;12.028469;-0.4213795
17:46:10:655;-1.2641385;12.028469;-0.4213795
17:46:10:655;-1.2641385;12.028469;-0.4213795
17:46:10:655;-1.2641385;12.028469;-0.4213795
17:46:10:655;-1.2641385;12.028469;-0.4213795
17:46:10:655;-1.2641385;12.028469;-0.4213795
17:46:10:655;-1.2641385;12.028469;-0.4213795
17:46:10:655;-1.2641385;12.028469;-0.4213795
17:46:10:655;-1.2641385;12.028469;-0.4213795
17:46:10:655;-1.2641385;12.028469;-0.4213795
17:46:10:655;-1.2641385;12.028469;-0.4213795
17:46:10:655;-1.2641385;12.028469;-0.4213795
17:46:10:655;-1.2641385;12.028469;-0.4213795
17:46:10:773;-0.019153614;8.7532015;-0.1340753
17:46:10:773;-0.019153614;8.7532015;-0.1340753
17:46:10:773;-0.019153614;8.7532015;-0.1340753
17:46:10:773;-0.019153614;8.7532015;-0.1340753
17:46:10:773;-0.019153614;8.7532015;-0.1340753
17:46:10:773;-0.019153614;8.7532015;-0.1340753
17:46:10:773;-0.019153614;8.7532015;-0.1340753
17:46:10:773;-0.019153614;8.7532015;-0.1340753
17:46:10:773;-0.019153614;8.7532015;-0.1340753
17:46:10:773;-0.019153614;8.7532015;-0.1340753
17:46:10:773;-0.019153614;8.7532015;-0.1340753
17:46:10:773;-0.019153614;8.7532015;-0.1340753
17:46:10:773;-0.019153614;8.7532015;-0.1340753
17:46:10:773;-0.019153614;8.7532015;-0.1340753
17:46:10:773;-0.019153614;8.7532015;-0.1340753
17:46:10:890;0.9768343;10.228029;0.17238252
17:46:10:890;0.9768343;10.228029;0.17238252
17:46:10:890;0.9768343;10.228029;0.17238252
17:46:10:890;0.9768343;10.228029;0.17238252
17:46:10:890;0.9768343;10.228029;0.17238252
17:46:10:890;0.9768343;10.228029;0.17238252
17:46:10:890;0.9768343;10.228029;0.17238252
17:46:10:890;0.9768343;10.228029;0.17238252
17:46:10:890;0.9768343;10.228029;0.17238252
17:46:10:890;0.9768343;10.228029;0.17238252
17:46:10:890;0.9768343;10.228029;0.17238252
17:46:10:890;0.9768343;10.228029;0.17238252
17:46:10:890;0.9768343;10.228029;0.17238252
17:46:10:890;0.9768343;10.228029;0.17238252
17:46:10:890;0.9768343;10.228029;0.17238252
17:46:10:890;0.9768343;10.228029;0.17238252
17:46:11:008;-0.49799395;9.040505;0.82360536
17:46:11:008;-0.49799395;9.040505;0.82360536
17:46:11:008;-0.49799395;9.040505;0.82360536
17:46:11:008;-0.49799395;9.040505;0.82360536
17:46:11:008;-0.49799395;9.040505;0.82360536
17:46:11:008;-0.49799395;9.040505;0.82360536
17:46:11:008;-0.49799395;9.040505;0.82360536
17:46:11:008;-0.49799395;9.040505;0.82360536
17:46:11:008;-0.49799395;9.040505;0.82360536
17:46:11:008;-0.49799395;9.040505;0.82360536
17:46:11:008;-0.49799395;9.040505;0.82360536
17:46:11:008;-0.49799395;9.040505;0.82360536
17:46:11:008;-0.49799395;9.040505;0.82360536
17:46:11:008;-0.49799395;9.040505;0.82360536
17:46:11:008;-0.49799395;9.040505;0.82360536
17:46:11:132;-0.4213795;9.615114;-0.4405331
17:46:11:132;-0.4213795;9.615114;-0.4405331
17:46:11:132;-0.4213795;9.615114;-0.4405331
17:46:11:132;-0.4213795;9.615114;-0.4405331
17:46:11:132;-0.4213795;9.615114;-0.4405331
17:46:11:132;-0.4213795;9.615114;-0.4405331
17:46:11:132;-0.4213795;9.615114;-0.4405331
17:46:11:132;-0.4213795;9.615114;-0.4405331
17:46:11:132;-0.4213795;9.615114;-0.4405331
17:46:11:132;-0.4213795;9.615114;-0.4405331
17:46:11:132;-0.4213795;9.615114;-0.4405331
17:46:11:132;-0.4213795;9.615114;-0.4405331
17:46:11:132;-0.4213795;9.615114;-0.4405331
17:46:11:132;-0.4213795;9.615114;-0.4405331
17:46:11:241;0.40222588;9.136273;1.3599066
17:46:11:241;0.40222588;9.136273;1.3599066
17:46:11:241;0.40222588;9.136273;1.3599066
17:46:11:241;0.40222588;9.136273;1.3599066
17:46:11:241;0.40222588;9.136273;1.3599066
17:46:11:241;0.40222588;9.136273;1.3599066
17:46:11:241;0.40222588;9.136273;1.3599066
17:46:11:241;0.40222588;9.136273;1.3599066
17:46:11:241;0.40222588;9.136273;1.3599066
17:46:11:241;0.40222588;9.136273;1.3599066
17:46:11:241;0.40222588;9.136273;1.3599066
17:46:11:241;0.40222588;9.136273;1.3599066
17:46:11:241;0.40222588;9.136273;1.3599066
17:46:11:241;0.40222588;9.136273;1.3599066
17:46:11:241;0.40222588;9.136273;1.3599066
17:46:11:359;0.22984336;10.457873;0.49799395
17:46:11:359;0.22984336;10.457873;0.49799395
17:46:11:359;0.22984336;10.457873;0.49799395
17:46:11:359;0.22984336;10.457873;0.49799395
17:46:11:359;0.22984336;10.457873;0.49799395
17:46:11:359;0.22984336;10.457873;0.49799395
17:46:11:359;0.22984336;10.457873;0.49799395
17:46:11:359;0.22984336;10.457873;0.49799395
17:46:11:359;0.22984336;10.457873;0.49799395
17:46:11:359;0.22984336;10.457873;0.49799395
17:46:11:359;0.22984336;10.457873;0.49799395
17:46:11:359;0.22984336;10.457873;0.49799395
17:46:11:359;0.22984336;10.457873;0.49799395
17:46:11:359;0.22984336;10.457873;0.49799395
17:46:11:359;0.22984336;10.457873;0.49799395
17:46:11:359;0.22984336;10.457873;0.49799395
17:46:11:480;-0.095768064;9.902418;0.22984336
17:46:11:480;-0.095768064;9.902418;0.22984336
17:46:11:480;-0.095768064;9.902418;0.22984336
17:46:11:480;-0.095768064;9.902418;0.22984336
17:46:11:480;-0.095768064;9.902418;0.22984336
17:46:11:480;-0.095768064;9.902418;0.22984336
17:46:11:480;-0.095768064;9.902418;0.22984336
17:46:11:480;-0.095768064;9.902418;0.22984336
17:46:11:480;-0.095768064;9.902418;0.22984336
17:46:11:480;-0.095768064;9.902418;0.22984336
17:46:11:480;-0.095768064;9.902418;0.22984336
17:46:11:480;-0.095768064;9.902418;0.22984336
17:46:11:480;-0.095768064;9.902418;0.22984336
17:46:11:480;-0.095768064;9.902418;0.22984336
17:46:11:480;-0.095768064;9.902418;0.22984336
17:46:11:595;-0.9576807;10.553641;0.6512229
17:46:11:595;-0.9576807;10.553641;0.6512229
17:46:11:595;-0.9576807;10.553641;0.6512229
17:46:11:595;-0.9576807;10.553641;0.6512229
17:46:11:595;-0.9576807;10.553641;0.6512229
17:46:11:595;-0.9576807;10.553641;0.6512229
17:46:11:595;-0.9576807;10.553641;0.6512229
17:46:11:595;-0.9576807;10.553641;0.6512229
17:46:11:595;-0.9576807;10.553641;0.6512229
17:46:11:595;-0.9576807;10.553641;0.6512229
17:46:11:595;-0.9576807;10.553641;0.6512229
17:46:11:595;-0.9576807;10.553641;0.6512229
17:46:11:595;-0.9576807;10.553641;0.6512229
17:46:11:595;-0.9576807;10.553641;0.6512229
17:46:11:595;-0.9576807;10.553641;0.6512229
17:46:11:714;0.21068975;10.419566;0.63206923
17:46:11:714;0.21068975;10.419566;0.63206923
17:46:11:714;0.21068975;10.419566;0.63206923
17:46:11:714;0.21068975;10.419566;0.63206923
17:46:11:714;0.21068975;10.419566;0.63206923
17:46:11:714;0.21068975;10.419566;0.63206923
17:46:11:714;0.21068975;10.419566;0.63206923
17:46:11:714;0.21068975;10.419566;0.63206923
17:46:11:714;0.21068975;10.419566;0.63206923
17:46:11:714;0.21068975;10.419566;0.63206923
17:46:11:714;0.21068975;10.419566;0.63206923
17:46:11:714;0.21068975;10.419566;0.63206923
17:46:11:714;0.21068975;10.419566;0.63206923
17:46:11:714;0.21068975;10.419566;0.63206923
17:46:11:714;0.21068975;10.419566;0.63206923
17:46:11:714;0.21068975;10.419566;0.63206923
17:46:11:714;0.21068975;10.419566;0.63206923
17:46:11:714;0.21068975;10.419566;0.63206923
17:46:11:714;0.21068975;10.419566;0.63206923
17:46:11:860;0.4213795;10.113108;0.21068975
17:46:11:860;0.4213795;10.113108;0.21068975
17:46:11:860;0.4213795;10.113108;0.21068975
17:46:11:860;0.4213795;10.113108;0.21068975
17:46:11:860;0.4213795;10.113108;0.21068975
17:46:11:860;0.4213795;10.113108;0.21068975
17:46:11:860;0.4213795;10.113108;0.21068975
17:46:11:860;0.4213795;10.113108;0.21068975
17:46:11:860;0.4213795;10.113108;0.21068975
17:46:11:860;0.4213795;10.113108;0.21068975
17:46:11:860;0.4213795;10.113108;0.21068975
17:46:11:860;0.4213795;10.113108;0.21068975
17:46:11:860;0.4213795;10.113108;0.21068975
17:46:11:860;0.4213795;10.113108;0.21068975
17:46:11:970;-0.34476504;10.266336;-0.24899697
17:46:11:970;-0.34476504;10.266336;-0.24899697
17:46:11:970;-0.34476504;10.266336;-0.24899697
17:46:11:970;-0.34476504;10.266336;-0.24899697
17:46:11:970;-0.34476504;10.266336;-0.24899697
17:46:11:970;-0.34476504;10.266336;-0.24899697
17:46:11:970;-0.34476504;10.266336;-0.24899697
17:46:11:970;-0.34476504;10.266336;-0.24899697
17:46:11:970;-0.34476504;10.266336;-0.24899697
17:46:11:970;-0.34476504;10.266336;-0.24899697
17:46:11:970;-0.34476504;10.266336;-0.24899697
17:46:11:970;-0.34476504;10.266336;-0.24899697
17:46:11:970;-0.34476504;10.266336;-0.24899697
17:46:11:970;-0.34476504;10.266336;-0.24899697
17:46:11:970;-0.34476504;10.266336;-0.24899697
17:46:12:088;0.38307226;10.132261;0.7661445
17:46:12:088;0.38307226;10.132261;0.7661445
17:46:12:088;0.38307226;10.132261;0.7661445
17:46:12:088;0.38307226;10.132261;0.7661445
17:46:12:088;0.38307226;10.132261;0.7661445
17:46:12:088;0.38307226;10.132261;0.7661445
17:46:12:088;0.38307226;10.132261;0.7661445
17:46:12:088;0.38307226;10.132261;0.7661445
17:46:12:088;0.38307226;10.132261;0.7661445
17:46:12:088;0.38307226;10.132261;0.7661445
17:46:12:088;0.38307226;10.132261;0.7661445
17:46:12:088;0.38307226;10.132261;0.7661445
17:46:12:088;0.38307226;10.132261;0.7661445
17:46:12:088;0.38307226;10.132261;0.7661445
17:46:12:203;0.45968673;10.477027;0.7086837
17:46:12:203;0.45968673;10.477027;0.7086837
17:46:12:203;0.45968673;10.477027;0.7086837
17:46:12:203;0.45968673;10.477027;0.7086837
17:46:12:203;0.45968673;10.477027;0.7086837
17:46:12:203;0.45968673;10.477027;0.7086837
17:46:12:203;0.45968673;10.477027;0.7086837
17:46:12:203;0.45968673;10.477027;0.7086837
17:46:12:203;0.45968673;10.477027;0.7086837
17:46:12:203;0.45968673;10.477027;0.7086837
17:46:12:203;0.45968673;10.477027;0.7086837
17:46:12:203;0.45968673;10.477027;0.7086837
17:46:12:203;0.45968673;10.477027;0.7086837
17:46:12:203;0.45968673;10.477027;0.7086837
17:46:12:203;0.45968673;10.477027;0.7086837
17:46:12:203;0.45968673;10.477027;0.7086837
17:46:12:321;0.21068975;10.400413;-0.038307227
17:46:12:321;0.21068975;10.400413;-0.038307227
17:46:12:321;0.21068975;10.400413;-0.038307227
17:46:12:321;0.21068975;10.400413;-0.038307227
17:46:12:321;0.21068975;10.400413;-0.038307227
17:46:12:321;0.21068975;10.400413;-0.038307227
17:46:12:321;0.21068975;10.400413;-0.038307227
17:46:12:321;0.21068975;10.400413;-0.038307227
17:46:12:321;0.21068975;10.400413;-0.038307227
17:46:12:321;0.21068975;10.400413;-0.038307227
17:46:12:321;0.21068975;10.400413;-0.038307227
17:46:12:321;0.21068975;10.400413;-0.038307227
17:46:12:321;0.21068975;10.400413;-0.038307227
17:46:12:321;0.21068975;10.400413;-0.038307227
17:46:12:321;0.21068975;10.400413;-0.038307227
17:46:12:441;0.24899697;9.519346;0.59376204
17:46:12:441;0.24899697;9.519346;0.59376204
17:46:12:441;0.24899697;9.519346;0.59376204
17:46:12:441;0.24899697;9.519346;0.59376204
17:46:12:441;0.24899697;9.519346;0.59376204
17:46:12:441;0.24899697;9.519346;0.59376204
17:46:12:441;0.24899697;9.519346;0.59376204
17:46:12:441;0.24899697;9.519346;0.59376204
17:46:12:441;0.24899697;9.519346;0.59376204
17:46:12:441;0.24899697;9.519346;0.59376204
17:46:12:441;0.24899697;9.519346;0.59376204
17:46:12:441;0.24899697;9.519346;0.59376204
17:46:12:441;0.24899697;9.519346;0.59376204
17:46:12:441;0.24899697;9.519346;0.59376204
17:46:12:441;0.24899697;9.519346;0.59376204
17:46:12:559;0.30645782;8.561666;0.82360536
17:46:12:559;0.30645782;8.561666;0.82360536
17:46:12:559;0.30645782;8.561666;0.82360536
17:46:12:559;0.30645782;8.561666;0.82360536
17:46:12:559;0.30645782;8.561666;0.82360536
17:46:12:559;0.30645782;8.561666;0.82360536
17:46:12:559;0.30645782;8.561666;0.82360536
17:46:12:559;0.30645782;8.561666;0.82360536
17:46:12:559;0.30645782;8.561666;0.82360536
17:46:12:559;0.30645782;8.561666;0.82360536
17:46:12:559;0.30645782;8.561666;0.82360536
17:46:12:559;0.30645782;8.561666;0.82360536
17:46:12:559;0.30645782;8.561666;0.82360536
17:46:12:559;0.30645782;8.561666;0.82360536
17:46:12:559;0.30645782;8.561666;0.82360536
17:46:12:676;0.7086837;8.791509;1.3982137
17:46:12:676;0.7086837;8.791509;1.3982137
17:46:12:676;0.7086837;8.791509;1.3982137
17:46:12:676;0.7086837;8.791509;1.3982137
17:46:12:676;0.7086837;8.791509;1.3982137
17:46:12:676;0.7086837;8.791509;1.3982137
17:46:12:676;0.7086837;8.791509;1.3982137
17:46:12:676;0.7086837;8.791509;1.3982137
17:46:12:676;0.7086837;8.791509;1.3982137
17:46:12:676;0.7086837;8.791509;1.3982137
17:46:12:676;0.7086837;8.791509;1.3982137
17:46:12:676;0.7086837;8.791509;1.3982137
17:46:12:676;0.7086837;8.791509;1.3982137
17:46:12:676;0.7086837;8.791509;1.3982137
17:46:12:676;0.7086837;8.791509;1.3982137
17:46:12:794;0.7086837;10.572795;0.5746084
17:46:12:794;0.7086837;10.572795;0.5746084
17:46:12:794;0.7086837;10.572795;0.5746084
17:46:12:794;0.7086837;10.572795;0.5746084
17:46:12:794;0.7086837;10.572795;0.5746084
17:46:12:794;0.7086837;10.572795;0.5746084
17:46:12:794;0.7086837;10.572795;0.5746084
17:46:12:794;0.7086837;10.572795;0.5746084
17:46:12:794;0.7086837;10.572795;0.5746084
17:46:12:794;0.7086837;10.572795;0.5746084
17:46:12:794;0.7086837;10.572795;0.5746084
17:46:12:794;0.7086837;10.572795;0.5746084
17:46:12:794;0.7086837;10.572795;0.5746084
17:46:12:896;0.8810662;11.626244;-0.842759
17:46:12:896;0.8810662;11.626244;-0.842759
17:46:12:896;0.8810662;11.626244;-0.842759
17:46:12:896;0.8810662;11.626244;-0.842759
17:46:12:896;0.8810662;11.626244;-0.842759
17:46:12:896;0.8810662;11.626244;-0.842759
17:46:12:896;0.8810662;11.626244;-0.842759
17:46:12:896;0.8810662;11.626244;-0.842759
17:46:12:896;0.8810662;11.626244;-0.842759
17:46:12:896;0.8810662;11.626244;-0.842759
17:46:12:896;0.8810662;11.626244;-0.842759
17:46:12:896;0.8810662;11.626244;-0.842759
17:46:12:896;0.8810662;11.626244;-0.842759
17:46:12:896;0.8810662;11.626244;-0.842759
17:46:13:007;0.5363012;9.653421;1.4939818
17:46:13:007;0.5363012;9.653421;1.4939818
17:46:13:007;0.5363012;9.653421;1.4939818
17:46:13:007;0.5363012;9.653421;1.4939818
17:46:13:007;0.5363012;9.653421;1.4939818
17:46:13:007;0.5363012;9.653421;1.4939818
17:46:13:007;0.5363012;9.653421;1.4939818
17:46:13:007;0.5363012;9.653421;1.4939818
17:46:13:007;0.5363012;9.653421;1.4939818
17:46:13:007;0.5363012;9.653421;1.4939818
17:46:13:007;0.5363012;9.653421;1.4939818
17:46:13:007;0.5363012;9.653421;1.4939818
17:46:13:007;0.5363012;9.653421;1.4939818
17:46:13:007;0.5363012;9.653421;1.4939818
17:46:13:007;0.5363012;9.653421;1.4939818
17:46:13:007;0.5363012;9.653421;1.4939818
17:46:13:007;0.5363012;9.653421;1.4939818
17:46:13:007;0.5363012;9.653421;1.4939818
17:46:13:007;0.5363012;9.653421;1.4939818
17:46:13:007;0.5363012;9.653421;1.4939818
17:46:13:007;0.5363012;9.653421;1.4939818
17:46:13:007;0.5363012;9.653421;1.4939818
17:46:13:172;0.19153613;10.247183;-0.47884035
17:46:13:172;0.19153613;10.247183;-0.47884035
17:46:13:172;0.19153613;10.247183;-0.47884035
17:46:13:172;0.19153613;10.247183;-0.47884035
17:46:13:172;0.19153613;10.247183;-0.47884035
17:46:13:172;0.19153613;10.247183;-0.47884035
17:46:13:172;0.19153613;10.247183;-0.47884035
17:46:13:172;0.19153613;10.247183;-0.47884035
17:46:13:172;0.19153613;10.247183;-0.47884035
17:46:13:172;0.19153613;10.247183;-0.47884035
17:46:13:172;0.19153613;10.247183;-0.47884035
17:46:13:172;0.19153613;10.247183;-0.47884035
17:46:13:172;0.19153613;10.247183;-0.47884035
17:46:13:172;0.19153613;10.247183;-0.47884035
17:46:13:283;-0.36391866;10.419566;0.17238252
17:46:13:283;-0.36391866;10.419566;0.17238252
17:46:13:283;-0.36391866;10.419566;0.17238252
17:46:13:283;-0.36391866;10.419566;0.17238252
17:46:13:283;-0.36391866;10.419566;0.17238252
17:46:13:283;-0.36391866;10.419566;0.17238252
17:46:13:283;-0.36391866;10.419566;0.17238252
17:46:13:283;-0.36391866;10.419566;0.17238252
17:46:13:283;-0.36391866;10.419566;0.17238252
17:46:13:283;-0.36391866;10.419566;0.17238252
17:46:13:283;-0.36391866;10.419566;0.17238252
17:46:13:283;-0.36391866;10.419566;0.17238252
17:46:13:283;-0.36391866;10.419566;0.17238252
17:46:13:283;-0.36391866;10.419566;0.17238252
17:46:13:283;-0.36391866;10.419566;0.17238252
17:46:13:400;-0.22984336;9.289502;0.59376204
17:46:13:400;-0.22984336;9.289502;0.59376204
17:46:13:400;-0.22984336;9.289502;0.59376204
17:46:13:400;-0.22984336;9.289502;0.59376204
17:46:13:400;-0.22984336;9.289502;0.59376204
17:46:13:400;-0.22984336;9.289502;0.59376204
17:46:13:400;-0.22984336;9.289502;0.59376204
17:46:13:400;-0.22984336;9.289502;0.59376204
17:46:13:400;-0.22984336;9.289502;0.59376204
17:46:13:400;-0.22984336;9.289502;0.59376204
17:46:13:400;-0.22984336;9.289502;0.59376204
17:46:13:400;-0.22984336;9.289502;0.59376204
17:46:13:400;-0.22984336;9.289502;0.59376204
17:46:13:502;0.32561144;8.791509;0.038307227
17:46:13:502;0.32561144;8.791509;0.038307227
17:46:13:502;0.32561144;8.791509;0.038307227
17:46:13:502;0.32561144;8.791509;0.038307227
17:46:13:502;0.32561144;8.791509;0.038307227
17:46:13:502;0.32561144;8.791509;0.038307227
17:46:13:502;0.32561144;8.791509;0.038307227
17:46:13:502;0.32561144;8.791509;0.038307227
17:46:13:502;0.32561144;8.791509;0.038307227
17:46:13:502;0.32561144;8.791509;0.038307227
17:46:13:502;0.32561144;8.791509;0.038307227
17:46:13:502;0.32561144;8.791509;0.038307227
17:46:13:502;0.32561144;8.791509;0.038307227
17:46:13:603;0.7469909;8.772355;0.61291564
17:46:13:603;0.7469909;8.772355;0.61291564
17:46:13:603;0.7469909;8.772355;0.61291564
17:46:13:603;0.7469909;8.772355;0.61291564
17:46:13:603;0.7469909;8.772355;0.61291564
17:46:13:603;0.7469909;8.772355;0.61291564
17:46:13:603;0.7469909;8.772355;0.61291564
17:46:13:603;0.7469909;8.772355;0.61291564
17:46:13:603;0.7469909;8.772355;0.61291564
17:46:13:603;0.7469909;8.772355;0.61291564
17:46:13:603;0.7469909;8.772355;0.61291564
17:46:13:603;0.7469909;8.772355;0.61291564
17:46:13:603;0.7469909;8.772355;0.61291564
17:46:13:603;0.7469909;8.772355;0.61291564
17:46:13:715;0.9576807;9.5385;1.2449849
17:46:13:715;0.9576807;9.5385;1.2449849
17:46:13:715;0.9576807;9.5385;1.2449849
17:46:13:715;0.9576807;9.5385;1.2449849
17:46:13:715;0.9576807;9.5385;1.2449849
17:46:13:715;0.9576807;9.5385;1.2449849
17:46:13:715;0.9576807;9.5385;1.2449849
17:46:13:715;0.9576807;9.5385;1.2449849
17:46:13:715;0.9576807;9.5385;1.2449849
17:46:13:715;0.9576807;9.5385;1.2449849
17:46:13:715;0.9576807;9.5385;1.2449849
17:46:13:715;0.9576807;9.5385;1.2449849
17:46:13:715;0.9576807;9.5385;1.2449849
17:46:13:715;0.9576807;9.5385;1.2449849
17:46:13:822;-0.91937345;9.998186;0.1340753
17:46:13:822;-0.91937345;9.998186;0.1340753
17:46:13:822;-0.91937345;9.998186;0.1340753
17:46:13:822;-0.91937345;9.998186;0.1340753
17:46:13:822;-0.91937345;9.998186;0.1340753
17:46:13:822;-0.91937345;9.998186;0.1340753
17:46:13:822;-0.91937345;9.998186;0.1340753
17:46:13:822;-0.91937345;9.998186;0.1340753
17:46:13:822;-0.91937345;9.998186;0.1340753
17:46:13:822;-0.91937345;9.998186;0.1340753
17:46:13:822;-0.91937345;9.998186;0.1340753
17:46:13:822;-0.91937345;9.998186;0.1340753
17:46:13:822;-0.91937345;9.998186;0.1340753
17:46:13:822;-0.91937345;9.998186;0.1340753
17:46:13:932;0.49799395;9.040505;0.51714754
17:46:13:932;0.49799395;9.040505;0.51714754
17:46:13:932;0.49799395;9.040505;0.51714754
17:46:13:932;0.49799395;9.040505;0.51714754
17:46:13:932;0.49799395;9.040505;0.51714754
17:46:13:932;0.49799395;9.040505;0.51714754
17:46:13:932;0.49799395;9.040505;0.51714754
17:46:13:932;0.49799395;9.040505;0.51714754
17:46:13:932;0.49799395;9.040505;0.51714754
17:46:13:932;0.49799395;9.040505;0.51714754
17:46:13:932;0.49799395;9.040505;0.51714754
17:46:13:932;0.49799395;9.040505;0.51714754
17:46:13:932;0.49799395;9.040505;0.51714754
17:46:13:932;0.49799395;9.040505;0.51714754
17:46:13:932;0.49799395;9.040505;0.51714754
17:46:14:048;0.47884035;10.247183;0.6703765
17:46:14:048;0.47884035;10.247183;0.6703765
17:46:14:048;0.47884035;10.247183;0.6703765
17:46:14:048;0.47884035;10.247183;0.6703765
17:46:14:048;0.47884035;10.247183;0.6703765
17:46:14:048;0.47884035;10.247183;0.6703765
17:46:14:048;0.47884035;10.247183;0.6703765
17:46:14:048;0.47884035;10.247183;0.6703765
17:46:14:048;0.47884035;10.247183;0.6703765
17:46:14:048;0.47884035;10.247183;0.6703765
17:46:14:048;0.47884035;10.247183;0.6703765
17:46:14:048;0.47884035;10.247183;0.6703765
17:46:14:048;0.47884035;10.247183;0.6703765
17:46:14:048;0.47884035;10.247183;0.6703765
17:46:14:048;0.47884035;10.247183;0.6703765
17:46:14:166;0.22984336;10.515334;0.59376204
17:46:14:166;0.22984336;10.515334;0.59376204
17:46:14:166;0.22984336;10.515334;0.59376204
17:46:14:166;0.22984336;10.515334;0.59376204
17:46:14:166;0.22984336;10.515334;0.59376204
17:46:14:166;0.22984336;10.515334;0.59376204
17:46:14:166;0.22984336;10.515334;0.59376204
17:46:14:166;0.22984336;10.515334;0.59376204
17:46:14:166;0.22984336;10.515334;0.59376204
17:46:14:166;0.22984336;10.515334;0.59376204
17:46:14:166;0.22984336;10.515334;0.59376204
17:46:14:166;0.22984336;10.515334;0.59376204
17:46:14:166;0.22984336;10.515334;0.59376204
17:46:14:166;0.22984336;10.515334;0.59376204
17:46:14:166;0.22984336;10.515334;0.59376204
17:46:14:282;0.15322891;11.089942;-0.19153613
17:46:14:282;0.15322891;11.089942;-0.19153613
17:46:14:282;0.15322891;11.089942;-0.19153613
17:46:14:282;0.15322891;11.089942;-0.19153613
17:46:14:282;0.15322891;11.089942;-0.19153613
17:46:14:282;0.15322891;11.089942;-0.19153613
17:46:14:282;0.15322891;11.089942;-0.19153613
17:46:14:282;0.15322891;11.089942;-0.19153613
17:46:14:282;0.15322891;11.089942;-0.19153613
17:46:14:282;0.15322891;11.089942;-0.19153613
17:46:14:282;0.15322891;11.089942;-0.19153613
17:46:14:282;0.15322891;11.089942;-0.19153613
17:46:14:282;0.15322891;11.089942;-0.19153613
17:46:14:383;0.59376204;10.247183;0.019153614
17:46:14:383;0.59376204;10.247183;0.019153614
17:46:14:383;0.59376204;10.247183;0.019153614
17:46:14:383;0.59376204;10.247183;0.019153614
17:46:14:383;0.59376204;10.247183;0.019153614
17:46:14:383;0.59376204;10.247183;0.019153614
17:46:14:383;0.59376204;10.247183;0.019153614
17:46:14:383;0.59376204;10.247183;0.019153614
17:46:14:383;0.59376204;10.247183;0.019153614
17:46:14:383;0.59376204;10.247183;0.019153614
17:46:14:383;0.59376204;10.247183;0.019153614
17:46:14:383;0.59376204;10.247183;0.019153614
17:46:14:383;0.59376204;10.247183;0.019153614
17:46:14:383;0.59376204;10.247183;0.019153614
17:46:14:498;-0.1340753;8.983045;0.05746084
17:46:14:498;-0.1340753;8.983045;0.05746084
17:46:14:498;-0.1340753;8.983045;0.05746084
17:46:14:498;-0.1340753;8.983045;0.05746084
17:46:14:498;-0.1340753;8.983045;0.05746084
17:46:14:498;-0.1340753;8.983045;0.05746084
17:46:14:498;-0.1340753;8.983045;0.05746084
17:46:14:498;-0.1340753;8.983045;0.05746084
17:46:14:498;-0.1340753;8.983045;0.05746084
17:46:14:498;-0.1340753;8.983045;0.05746084
17:46:14:498;-0.1340753;8.983045;0.05746084
17:46:14:498;-0.1340753;8.983045;0.05746084
17:46:14:498;-0.1340753;8.983045;0.05746084
17:46:14:498;-0.1340753;8.983045;0.05746084
17:46:14:498;-0.1340753;8.983045;0.05746084
17:46:14:616;0.7086837;10.0748005;0.5363012
17:46:14:616;0.7086837;10.0748005;0.5363012
17:46:14:616;0.7086837;10.0748005;0.5363012
17:46:14:616;0.7086837;10.0748005;0.5363012
17:46:14:616;0.7086837;10.0748005;0.5363012
17:46:14:616;0.7086837;10.0748005;0.5363012
17:46:14:616;0.7086837;10.0748005;0.5363012
17:46:14:616;0.7086837;10.0748005;0.5363012
17:46:14:616;0.7086837;10.0748005;0.5363012
17:46:14:616;0.7086837;10.0748005;0.5363012
17:46:14:616;0.7086837;10.0748005;0.5363012
17:46:14:616;0.7086837;10.0748005;0.5363012
17:46:14:616;0.7086837;10.0748005;0.5363012
17:46:14:616;0.7086837;10.0748005;0.5363012
17:46:14:616;0.7086837;10.0748005;0.5363012
17:46:14:733;0.6703765;9.442732;0.32561144
17:46:14:733;0.6703765;9.442732;0.32561144
17:46:14:733;0.6703765;9.442732;0.32561144
17:46:14:733;0.6703765;9.442732;0.32561144
17:46:14:733;0.6703765;9.442732;0.32561144
17:46:14:733;0.6703765;9.442732;0.32561144
17:46:14:733;0.6703765;9.442732;0.32561144
17:46:14:733;0.6703765;9.442732;0.32561144
17:46:14:733;0.6703765;9.442732;0.32561144
17:46:14:733;0.6703765;9.442732;0.32561144
17:46:14:733;0.6703765;9.442732;0.32561144
17:46:14:733;0.6703765;9.442732;0.32561144
17:46:14:733;0.6703765;9.442732;0.32561144
17:46:14:733;0.6703765;9.442732;0.32561144
17:46:14:733;0.6703765;9.442732;0.32561144
17:46:14:733;0.6703765;9.442732;0.32561144
17:46:14:852;-0.076614454;11.453861;-0.6703765
17:46:14:852;-0.076614454;11.453861;-0.6703765
17:46:14:852;-0.076614454;11.453861;-0.6703765
17:46:14:852;-0.076614454;11.453861;-0.6703765
17:46:14:852;-0.076614454;11.453861;-0.6703765
17:46:14:852;-0.076614454;11.453861;-0.6703765
17:46:14:852;-0.076614454;11.453861;-0.6703765
17:46:14:852;-0.076614454;11.453861;-0.6703765
17:46:14:852;-0.076614454;11.453861;-0.6703765
17:46:14:852;-0.076614454;11.453861;-0.6703765
17:46:14:852;-0.076614454;11.453861;-0.6703765
17:46:14:852;-0.076614454;11.453861;-0.6703765
17:46:14:852;-0.076614454;11.453861;-0.6703765
17:46:14:852;-0.076614454;11.453861;-0.6703765
17:46:14:852;-0.076614454;11.453861;-0.6703765
17:46:14:970;-0.17238252;9.212888;0.24899697
17:46:14:970;-0.17238252;9.212888;0.24899697
17:46:14:970;-0.17238252;9.212888;0.24899697
17:46:14:970;-0.17238252;9.212888;0.24899697
17:46:14:970;-0.17238252;9.212888;0.24899697
17:46:14:970;-0.17238252;9.212888;0.24899697
17:46:14:970;-0.17238252;9.212888;0.24899697
17:46:14:970;-0.17238252;9.212888;0.24899697
17:46:14:970;-0.17238252;9.212888;0.24899697
17:46:14:970;-0.17238252;9.212888;0.24899697
17:46:14:970;-0.17238252;9.212888;0.24899697
17:46:14:970;-0.17238252;9.212888;0.24899697
17:46:14:970;-0.17238252;9.212888;0.24899697
17:46:14:970;-0.17238252;9.212888;0.24899697
17:46:14:970;-0.17238252;9.212888;0.24899697
17:46:15:090;-0.22984336;9.768343;0.59376204
17:46:15:090;-0.22984336;9.768343;0.59376204
17:46:15:090;-0.22984336;9.768343;0.59376204
17:46:15:090;-0.22984336;9.768343;0.59376204
17:46:15:090;-0.22984336;9.768343;0.59376204
17:46:15:090;-0.22984336;9.768343;0.59376204
17:46:15:090;-0.22984336;9.768343;0.59376204
17:46:15:090;-0.22984336;9.768343;0.59376204
17:46:15:090;-0.22984336;9.768343;0.59376204
17:46:15:090;-0.22984336;9.768343;0.59376204
17:46:15:090;-0.22984336;9.768343;0.59376204
17:46:15:090;-0.22984336;9.768343;0.59376204
17:46:15:090;-0.22984336;9.768343;0.59376204
17:46:15:090;-0.22984336;9.768343;0.59376204
17:46:15:090;-0.22984336;9.768343;0.59376204
17:46:15:207;0.4405331;9.557653;0.51714754
17:46:15:207;0.4405331;9.557653;0.51714754
17:46:15:207;0.4405331;9.557653;0.51714754
17:46:15:207;0.4405331;9.557653;0.51714754
17:46:15:207;0.4405331;9.557653;0.51714754
17:46:15:207;0.4405331;9.557653;0.51714754
17:46:15:207;0.4405331;9.557653;0.51714754
17:46:15:207;0.4405331;9.557653;0.51714754
17:46:15:207;0.4405331;9.557653;0.51714754
17:46:15:207;0.4405331;9.557653;0.51714754
17:46:15:207;0.4405331;9.557653;0.51714754
17:46:15:207;0.4405331;9.557653;0.51714754
17:46:15:207;0.4405331;9.557653;0.51714754
17:46:15:207;0.4405331;9.557653;0.51714754
17:46:15:207;0.4405331;9.557653;0.51714754
17:46:15:324;0.38307226;10.400413;0.11492168
17:46:15:324;0.38307226;10.400413;0.11492168
17:46:15:324;0.38307226;10.400413;0.11492168
17:46:15:324;0.38307226;10.400413;0.11492168
17:46:15:324;0.38307226;10.400413;0.11492168
17:46:15:324;0.38307226;10.400413;0.11492168
17:46:15:324;0.38307226;10.400413;0.11492168
17:46:15:324;0.38307226;10.400413;0.11492168
17:46:15:324;0.38307226;10.400413;0.11492168
17:46:15:324;0.38307226;10.400413;0.11492168
17:46:15:324;0.38307226;10.400413;0.11492168
17:46:15:324;0.38307226;10.400413;0.11492168
17:46:15:324;0.38307226;10.400413;0.11492168
17:46:15:425;0.4405331;10.764331;-0.038307227
17:46:15:425;0.4405331;10.764331;-0.038307227
17:46:15:425;0.4405331;10.764331;-0.038307227
17:46:15:425;0.4405331;10.764331;-0.038307227
17:46:15:425;0.4405331;10.764331;-0.038307227
17:46:15:425;0.4405331;10.764331;-0.038307227
17:46:15:425;0.4405331;10.764331;-0.038307227
17:46:15:425;0.4405331;10.764331;-0.038307227
17:46:15:425;0.4405331;10.764331;-0.038307227
17:46:15:425;0.4405331;10.764331;-0.038307227
17:46:15:425;0.4405331;10.764331;-0.038307227
17:46:15:425;0.4405331;10.764331;-0.038307227
17:46:15:425;0.4405331;10.764331;-0.038307227
17:46:15:425;0.4405331;10.764331;-0.038307227
17:46:15:425;0.4405331;10.764331;-0.038307227
17:46:15:542;-0.076614454;9.883265;0.17238252
17:46:15:542;-0.076614454;9.883265;0.17238252
17:46:15:542;-0.076614454;9.883265;0.17238252
17:46:15:542;-0.076614454;9.883265;0.17238252
17:46:15:542;-0.076614454;9.883265;0.17238252
17:46:15:542;-0.076614454;9.883265;0.17238252
17:46:15:542;-0.076614454;9.883265;0.17238252
17:46:15:542;-0.076614454;9.883265;0.17238252
17:46:15:542;-0.076614454;9.883265;0.17238252
17:46:15:542;-0.076614454;9.883265;0.17238252
17:46:15:542;-0.076614454;9.883265;0.17238252
17:46:15:542;-0.076614454;9.883265;0.17238252
17:46:15:542;-0.076614454;9.883265;0.17238252
17:46:15:542;-0.076614454;9.883265;0.17238252
17:46:15:542;-0.076614454;9.883265;0.17238252
17:46:15:658;-0.05746084;11.032481;-0.30645782
17:46:15:658;-0.05746084;11.032481;-0.30645782
17:46:15:658;-0.05746084;11.032481;-0.30645782
17:46:15:658;-0.05746084;11.032481;-0.30645782
17:46:15:658;-0.05746084;11.032481;-0.30645782
17:46:15:658;-0.05746084;11.032481;-0.30645782
17:46:15:658;-0.05746084;11.032481;-0.30645782
17:46:15:658;-0.05746084;11.032481;-0.30645782
17:46:15:658;-0.05746084;11.032481;-0.30645782
17:46:15:658;-0.05746084;11.032481;-0.30645782
17:46:15:658;-0.05746084;11.032481;-0.30645782
17:46:15:658;-0.05746084;11.032481;-0.30645782
17:46:15:658;-0.05746084;11.032481;-0.30645782
17:46:15:658;-0.05746084;11.032481;-0.30645782
17:46:15:658;-0.05746084;11.032481;-0.30645782
17:46:15:658;-0.05746084;11.032481;-0.30645782
17:46:15:658;-0.05746084;11.032481;-0.30645782
17:46:15:658;-0.05746084;11.032481;-0.30645782
17:46:15:797;0.15322891;9.80665;0.038307227
17:46:15:797;0.15322891;9.80665;0.038307227
17:46:15:797;0.15322891;9.80665;0.038307227
17:46:15:797;0.15322891;9.80665;0.038307227
17:46:15:797;0.15322891;9.80665;0.038307227
17:46:15:797;0.15322891;9.80665;0.038307227
17:46:15:797;0.15322891;9.80665;0.038307227
17:46:15:797;0.15322891;9.80665;0.038307227
17:46:15:797;0.15322891;9.80665;0.038307227
17:46:15:797;0.15322891;9.80665;0.038307227
17:46:15:797;0.15322891;9.80665;0.038307227
17:46:15:797;0.15322891;9.80665;0.038307227
17:46:15:797;0.15322891;9.80665;0.038307227
17:46:15:797;0.15322891;9.80665;0.038307227
17:46:15:910;-0.78529817;10.6877165;-0.61291564
17:46:15:910;-0.78529817;10.6877165;-0.61291564
17:46:15:910;-0.78529817;10.6877165;-0.61291564
17:46:15:910;-0.78529817;10.6877165;-0.61291564
17:46:15:910;-0.78529817;10.6877165;-0.61291564
17:46:15:910;-0.78529817;10.6877165;-0.61291564
17:46:15:910;-0.78529817;10.6877165;-0.61291564
17:46:15:910;-0.78529817;10.6877165;-0.61291564
17:46:15:910;-0.78529817;10.6877165;-0.61291564
17:46:15:910;-0.78529817;10.6877165;-0.61291564
17:46:15:910;-0.78529817;10.6877165;-0.61291564
17:46:15:910;-0.78529817;10.6877165;-0.61291564
17:46:15:910;-0.78529817;10.6877165;-0.61291564
17:46:15:910;-0.78529817;10.6877165;-0.61291564
17:46:15:910;-0.78529817;10.6877165;-0.61291564
17:46:16:028;-0.63206923;9.959879;0.38307226
17:46:16:028;-0.63206923;9.959879;0.38307226
17:46:16:028;-0.63206923;9.959879;0.38307226
17:46:16:028;-0.63206923;9.959879;0.38307226
17:46:16:028;-0.63206923;9.959879;0.38307226
17:46:16:028;-0.63206923;9.959879;0.38307226
17:46:16:028;-0.63206923;9.959879;0.38307226
17:46:16:028;-0.63206923;9.959879;0.38307226
17:46:16:028;-0.63206923;9.959879;0.38307226
17:46:16:028;-0.63206923;9.959879;0.38307226
17:46:16:028;-0.63206923;9.959879;0.38307226
17:46:16:028;-0.63206923;9.959879;0.38307226
17:46:16:028;-0.63206923;9.959879;0.38307226
17:46:16:129;-1.0151415;10.228029;0.2681506
17:46:16:129;-1.0151415;10.228029;0.2681506
17:46:16:129;-1.0151415;10.228029;0.2681506
17:46:16:129;-1.0151415;10.228029;0.2681506
17:46:16:129;-1.0151415;10.228029;0.2681506
17:46:16:129;-1.0151415;10.228029;0.2681506
17:46:16:129;-1.0151415;10.228029;0.2681506
17:46:16:129;-1.0151415;10.228029;0.2681506
17:46:16:129;-1.0151415;10.228029;0.2681506
17:46:16:129;-1.0151415;10.228029;0.2681506
17:46:16:129;-1.0151415;10.228029;0.2681506
17:46:16:129;-1.0151415;10.228029;0.2681506
17:46:16:129;-1.0151415;10.228029;0.2681506
17:46:16:129;-1.0151415;10.228029;0.2681506
17:46:16:242;-0.49799395;9.595961;0.17238252
17:46:16:242;-0.49799395;9.595961;0.17238252
17:46:16:242;-0.49799395;9.595961;0.17238252
17:46:16:242;-0.49799395;9.595961;0.17238252
17:46:16:242;-0.49799395;9.595961;0.17238252
17:46:16:242;-0.49799395;9.595961;0.17238252
17:46:16:242;-0.49799395;9.595961;0.17238252
17:46:16:242;-0.49799395;9.595961;0.17238252
17:46:16:242;-0.49799395;9.595961;0.17238252
17:46:16:242;-0.49799395;9.595961;0.17238252
17:46:16:242;-0.49799395;9.595961;0.17238252
17:46:16:242;-0.49799395;9.595961;0.17238252
17:46:16:242;-0.49799395;9.595961;0.17238252
17:46:16:242;-0.49799395;9.595961;0.17238252
17:46:16:242;-0.49799395;9.595961;0.17238252
17:46:16:242;-0.49799395;9.595961;0.17238252
17:46:16:360;0.6703765;9.461885;0.45968673
17:46:16:360;0.6703765;9.461885;0.45968673
17:46:16:360;0.6703765;9.461885;0.45968673
17:46:16:360;0.6703765;9.461885;0.45968673
17:46:16:360;0.6703765;9.461885;0.45968673
17:46:16:360;0.6703765;9.461885;0.45968673
17:46:16:360;0.6703765;9.461885;0.45968673
17:46:16:360;0.6703765;9.461885;0.45968673
17:46:16:360;0.6703765;9.461885;0.45968673
17:46:16:360;0.6703765;9.461885;0.45968673
17:46:16:360;0.6703765;9.461885;0.45968673
17:46:16:360;0.6703765;9.461885;0.45968673
17:46:16:360;0.6703765;9.461885;0.45968673
17:46:16:360;0.6703765;9.461885;0.45968673
17:46:16:360;0.6703765;9.461885;0.45968673
17:46:16:478;-0.7469909;10.266336;1.6472107
17:46:16:478;-0.7469909;10.266336;1.6472107
17:46:16:478;-0.7469909;10.266336;1.6472107
17:46:16:478;-0.7469909;10.266336;1.6472107
17:46:16:478;-0.7469909;10.266336;1.6472107
17:46:16:478;-0.7469909;10.266336;1.6472107
17:46:16:478;-0.7469909;10.266336;1.6472107
17:46:16:478;-0.7469909;10.266336;1.6472107
17:46:16:478;-0.7469909;10.266336;1.6472107
17:46:16:478;-0.7469909;10.266336;1.6472107
17:46:16:478;-0.7469909;10.266336;1.6472107
17:46:16:478;-0.7469909;10.266336;1.6472107
17:46:16:478;-0.7469909;10.266336;1.6472107
17:46:16:478;-0.7469909;10.266336;1.6472107
17:46:16:478;-0.7469909;10.266336;1.6472107
17:46:16:478;-0.7469909;10.266336;1.6472107
17:46:16:478;-0.7469909;10.266336;1.6472107
17:46:16:478;-0.7469909;10.266336;1.6472107
17:46:16:620;0.4213795;10.783484;-0.91937345
17:46:16:620;0.4213795;10.783484;-0.91937345
17:46:16:620;0.4213795;10.783484;-0.91937345
17:46:16:620;0.4213795;10.783484;-0.91937345
17:46:16:620;0.4213795;10.783484;-0.91937345
17:46:16:620;0.4213795;10.783484;-0.91937345
17:46:16:620;0.4213795;10.783484;-0.91937345
17:46:16:620;0.4213795;10.783484;-0.91937345
17:46:16:620;0.4213795;10.783484;-0.91937345
17:46:16:620;0.4213795;10.783484;-0.91937345
17:46:16:620;0.4213795;10.783484;-0.91937345
17:46:16:620;0.4213795;10.783484;-0.91937345
17:46:16:620;0.4213795;10.783484;-0.91937345
17:46:16:620;0.4213795;10.783484;-0.91937345
17:46:16:734;0.40222588;10.91756;-0.51714754
17:46:16:734;0.40222588;10.91756;-0.51714754
17:46:16:734;0.40222588;10.91756;-0.51714754
17:46:16:734;0.40222588;10.91756;-0.51714754
17:46:16:734;0.40222588;10.91756;-0.51714754
17:46:16:734;0.40222588;10.91756;-0.51714754
17:46:16:734;0.40222588;10.91756;-0.51714754
17:46:16:734;0.40222588;10.91756;-0.51714754
17:46:16:734;0.40222588;10.91756;-0.51714754
17:46:16:734;0.40222588;10.91756;-0.51714754
17:46:16:734;0.40222588;10.91756;-0.51714754
17:46:16:734;0.40222588;10.91756;-0.51714754
17:46:16:734;0.40222588;10.91756;-0.51714754
17:46:16:734;0.40222588;10.91756;-0.51714754
17:46:16:734;0.40222588;10.91756;-0.51714754
17:46:16:734;0.40222588;10.91756;-0.51714754
17:46:16:734;0.40222588;10.91756;-0.51714754
17:46:16:734;0.40222588;10.91756;-0.51714754
17:46:16:734;0.40222588;10.91756;-0.51714754
17:46:16:734;0.40222588;10.91756;-0.51714754
17:46:16:734;0.40222588;10.91756;-0.51714754
17:46:16:734;0.40222588;10.91756;-0.51714754
17:46:16:734;0.40222588;10.91756;-0.51714754
17:46:16:734;0.40222588;10.91756;-0.51714754
17:46:16:920;0.49799395;9.825804;0.8619126
17:46:16:920;0.49799395;9.825804;0.8619126
17:46:16:920;0.49799395;9.825804;0.8619126
17:46:16:920;0.49799395;9.825804;0.8619126
17:46:16:920;0.49799395;9.825804;0.8619126
17:46:16:920;0.49799395;9.825804;0.8619126
17:46:16:920;0.49799395;9.825804;0.8619126
17:46:16:920;0.49799395;9.825804;0.8619126
17:46:16:920;0.49799395;9.825804;0.8619126
17:46:16:920;0.49799395;9.825804;0.8619126
17:46:16:920;0.49799395;9.825804;0.8619126
17:46:16:920;0.49799395;9.825804;0.8619126
17:46:16:920;0.49799395;9.825804;0.8619126
17:46:16:920;0.49799395;9.825804;0.8619126
17:46:17:026;0.24899697;10.189722;0.45968673
17:46:17:026;0.24899697;10.189722;0.45968673
17:46:17:026;0.24899697;10.189722;0.45968673
17:46:17:026;0.24899697;10.189722;0.45968673
17:46:17:026;0.24899697;10.189722;0.45968673
17:46:17:026;0.24899697;10.189722;0.45968673
17:46:17:026;0.24899697;10.189722;0.45968673
17:46:17:026;0.24899697;10.189722;0.45968673
17:46:17:026;0.24899697;10.189722;0.45968673
17:46:17:026;0.24899697;10.189722;0.45968673
17:46:17:026;0.24899697;10.189722;0.45968673
17:46:17:026;0.24899697;10.189722;0.45968673
17:46:17:026;0.24899697;10.189722;0.45968673
17:46:17:131;-0.4405331;10.457873;-0.19153613
17:46:17:131;-0.4405331;10.457873;-0.19153613
17:46:17:131;-0.4405331;10.457873;-0.19153613
17:46:17:131;-0.4405331;10.457873;-0.19153613
17:46:17:131;-0.4405331;10.457873;-0.19153613
17:46:17:131;-0.4405331;10.457873;-0.19153613
17:46:17:131;-0.4405331;10.457873;-0.19153613
17:46:17:131;-0.4405331;10.457873;-0.19153613
17:46:17:131;-0.4405331;10.457873;-0.19153613
17:46:17:131;-0.4405331;10.457873;-0.19153613
17:46:17:131;-0.4405331;10.457873;-0.19153613
17:46:17:131;-0.4405331;10.457873;-0.19153613
17:46:17:131;-0.4405331;10.457873;-0.19153613
17:46:17:131;-0.4405331;10.457873;-0.19153613
17:46:17:241;0.80445176;9.519346;0.4405331
17:46:17:241;0.80445176;9.519346;0.4405331
17:46:17:241;0.80445176;9.519346;0.4405331
17:46:17:241;0.80445176;9.519346;0.4405331
17:46:17:241;0.80445176;9.519346;0.4405331
17:46:17:241;0.80445176;9.519346;0.4405331
17:46:17:241;0.80445176;9.519346;0.4405331
17:46:17:241;0.80445176;9.519346;0.4405331
17:46:17:241;0.80445176;9.519346;0.4405331
17:46:17:241;0.80445176;9.519346;0.4405331
17:46:17:241;0.80445176;9.519346;0.4405331
17:46:17:241;0.80445176;9.519346;0.4405331
17:46:17:241;0.80445176;9.519346;0.4405331
17:46:17:241;0.80445176;9.519346;0.4405331
17:46:17:241;0.80445176;9.519346;0.4405331
17:46:17:241;0.80445176;9.519346;0.4405331
17:46:17:241;0.80445176;9.519346;0.4405331
17:46:17:371;0.2873042;8.695741;0.45968673
17:46:17:371;0.2873042;8.695741;0.45968673
17:46:17:371;0.2873042;8.695741;0.45968673
17:46:17:371;0.2873042;8.695741;0.45968673
17:46:17:371;0.2873042;8.695741;0.45968673
17:46:17:371;0.2873042;8.695741;0.45968673
17:46:17:371;0.2873042;8.695741;0.45968673
17:46:17:371;0.2873042;8.695741;0.45968673
17:46:17:371;0.2873042;8.695741;0.45968673
17:46:17:371;0.2873042;8.695741;0.45968673
17:46:17:371;0.2873042;8.695741;0.45968673
17:46:17:371;0.2873042;8.695741;0.45968673
17:46:17:371;0.2873042;8.695741;0.45968673
17:46:17:476;0.82360536;10.572795;-0.15322891
17:46:17:476;0.82360536;10.572795;-0.15322891
17:46:17:476;0.82360536;10.572795;-0.15322891
17:46:17:476;0.82360536;10.572795;-0.15322891
17:46:17:476;0.82360536;10.572795;-0.15322891
17:46:17:476;0.82360536;10.572795;-0.15322891
17:46:17:476;0.82360536;10.572795;-0.15322891
17:46:17:476;0.82360536;10.572795;-0.15322891
17:46:17:476;0.82360536;10.572795;-0.15322891
17:46:17:476;0.82360536;10.572795;-0.15322891
17:46:17:476;0.82360536;10.572795;-0.15322891
17:46:17:476;0.82360536;10.572795;-0.15322891
17:46:17:476;0.82360536;10.572795;-0.15322891
17:46:17:476;0.82360536;10.572795;-0.15322891
17:46:17:476;0.82360536;10.572795;-0.15322891
17:46:17:593;0.7278373;8.887277;0.49799395
17:46:17:593;0.7278373;8.887277;0.49799395
17:46:17:593;0.7278373;8.887277;0.49799395
17:46:17:593;0.7278373;8.887277;0.49799395
17:46:17:593;0.7278373;8.887277;0.49799395
17:46:17:593;0.7278373;8.887277;0.49799395
17:46:17:593;0.7278373;8.887277;0.49799395
17:46:17:593;0.7278373;8.887277;0.49799395
17:46:17:593;0.7278373;8.887277;0.49799395
17:46:17:593;0.7278373;8.887277;0.49799395
17:46:17:593;0.7278373;8.887277;0.49799395
17:46:17:593;0.7278373;8.887277;0.49799395
17:46:17:593;0.7278373;8.887277;0.49799395
17:46:17:593;0.7278373;8.887277;0.49799395
17:46:17:593;0.7278373;8.887277;0.49799395
17:46:17:710;0.17238252;9.5385;0.8810662
17:46:17:710;0.17238252;9.5385;0.8810662
17:46:17:710;0.17238252;9.5385;0.8810662
17:46:17:710;0.17238252;9.5385;0.8810662
17:46:17:710;0.17238252;9.5385;0.8810662
17:46:17:710;0.17238252;9.5385;0.8810662
17:46:17:710;0.17238252;9.5385;0.8810662
17:46:17:710;0.17238252;9.5385;0.8810662
17:46:17:710;0.17238252;9.5385;0.8810662
17:46:17:710;0.17238252;9.5385;0.8810662
17:46:17:710;0.17238252;9.5385;0.8810662
17:46:17:710;0.17238252;9.5385;0.8810662
17:46:17:710;0.17238252;9.5385;0.8810662
17:46:17:710;0.17238252;9.5385;0.8810662
17:46:17:710;0.17238252;9.5385;0.8810662
17:46:17:710;0.17238252;9.5385;0.8810662
17:46:17:829;-0.7086837;12.354081;-0.24899697
17:46:17:829;-0.7086837;12.354081;-0.24899697
17:46:17:829;-0.7086837;12.354081;-0.24899697
17:46:17:829;-0.7086837;12.354081;-0.24899697
17:46:17:829;-0.7086837;12.354081;-0.24899697
17:46:17:829;-0.7086837;12.354081;-0.24899697
17:46:17:829;-0.7086837;12.354081;-0.24899697
17:46:17:829;-0.7086837;12.354081;-0.24899697
17:46:17:829;-0.7086837;12.354081;-0.24899697
17:46:17:829;-0.7086837;12.354081;-0.24899697
17:46:17:829;-0.7086837;12.354081;-0.24899697
17:46:17:829;-0.7086837;12.354081;-0.24899697
17:46:17:829;-0.7086837;12.354081;-0.24899697
17:46:17:829;-0.7086837;12.354081;-0.24899697
17:46:17:829;-0.7086837;12.354081;-0.24899697
17:46:17:829;-0.7086837;12.354081;-0.24899697
17:46:17:829;-0.7086837;12.354081;-0.24899697
17:46:17:961;0.2873042;9.270349;1.0342951
17:46:17:961;0.2873042;9.270349;1.0342951
17:46:17:961;0.2873042;9.270349;1.0342951
17:46:17:961;0.2873042;9.270349;1.0342951
17:46:17:961;0.2873042;9.270349;1.0342951
17:46:17:961;0.2873042;9.270349;1.0342951
17:46:17:961;0.2873042;9.270349;1.0342951
17:46:17:961;0.2873042;9.270349;1.0342951
17:46:17:961;0.2873042;9.270349;1.0342951
17:46:17:961;0.2873042;9.270349;1.0342951
17:46:17:961;0.2873042;9.270349;1.0342951
17:46:17:961;0.2873042;9.270349;1.0342951
17:46:17:961;0.2873042;9.270349;1.0342951
17:46:17:961;0.2873042;9.270349;1.0342951
17:46:17:961;0.2873042;9.270349;1.0342951
17:46:18:081;0.22984336;10.879252;-0.2873042
17:46:18:081;0.22984336;10.879252;-0.2873042
17:46:18:081;0.22984336;10.879252;-0.2873042
17:46:18:081;0.22984336;10.879252;-0.2873042
17:46:18:081;0.22984336;10.879252;-0.2873042
17:46:18:081;0.22984336;10.879252;-0.2873042
17:46:18:081;0.22984336;10.879252;-0.2873042
17:46:18:081;0.22984336;10.879252;-0.2873042
17:46:18:081;0.22984336;10.879252;-0.2873042
17:46:18:081;0.22984336;10.879252;-0.2873042
17:46:18:081;0.22984336;10.879252;-0.2873042
17:46:18:081;0.22984336;10.879252;-0.2873042
17:46:18:081;0.22984336;10.879252;-0.2873042
17:46:18:081;0.22984336;10.879252;-0.2873042
17:46:18:081;0.22984336;10.879252;-0.2873042
17:46:18:198;0.30645782;10.0748005;0.4405331
17:46:18:198;0.30645782;10.0748005;0.4405331
17:46:18:198;0.30645782;10.0748005;0.4405331
17:46:18:198;0.30645782;10.0748005;0.4405331
17:46:18:198;0.30645782;10.0748005;0.4405331
17:46:18:198;0.30645782;10.0748005;0.4405331
17:46:18:198;0.30645782;10.0748005;0.4405331
17:46:18:198;0.30645782;10.0748005;0.4405331
17:46:18:198;0.30645782;10.0748005;0.4405331
17:46:18:198;0.30645782;10.0748005;0.4405331
17:46:18:198;0.30645782;10.0748005;0.4405331
17:46:18:198;0.30645782;10.0748005;0.4405331
17:46:18:198;0.30645782;10.0748005;0.4405331
17:46:18:198;0.30645782;10.0748005;0.4405331
17:46:18:198;0.30645782;10.0748005;0.4405331
17:46:18:316;-0.24899697;10.515334;0.30645782
17:46:18:316;-0.24899697;10.515334;0.30645782
17:46:18:316;-0.24899697;10.515334;0.30645782
17:46:18:316;-0.24899697;10.515334;0.30645782
17:46:18:316;-0.24899697;10.515334;0.30645782
17:46:18:316;-0.24899697;10.515334;0.30645782
17:46:18:316;-0.24899697;10.515334;0.30645782
17:46:18:316;-0.24899697;10.515334;0.30645782
17:46:18:316;-0.24899697;10.515334;0.30645782
17:46:18:316;-0.24899697;10.515334;0.30645782
17:46:18:316;-0.24899697;10.515334;0.30645782
17:46:18:316;-0.24899697;10.515334;0.30645782
17:46:18:316;-0.24899697;10.515334;0.30645782
17:46:18:316;-0.24899697;10.515334;0.30645782
17:46:18:316;-0.24899697;10.515334;0.30645782
17:46:18:433;-0.6512229;10.70687;0.05746084
17:46:18:433;-0.6512229;10.70687;0.05746084
17:46:18:433;-0.6512229;10.70687;0.05746084
17:46:18:433;-0.6512229;10.70687;0.05746084
17:46:18:433;-0.6512229;10.70687;0.05746084
17:46:18:433;-0.6512229;10.70687;0.05746084
17:46:18:433;-0.6512229;10.70687;0.05746084
17:46:18:433;-0.6512229;10.70687;0.05746084
17:46:18:433;-0.6512229;10.70687;0.05746084
17:46:18:433;-0.6512229;10.70687;0.05746084
17:46:18:433;-0.6512229;10.70687;0.05746084
17:46:18:433;-0.6512229;10.70687;0.05746084
17:46:18:433;-0.6512229;10.70687;0.05746084
17:46:18:433;-0.6512229;10.70687;0.05746084
17:46:18:433;-0.6512229;10.70687;0.05746084
17:46:18:551;-0.9576807;10.898406;0.47884035
17:46:18:551;-0.9576807;10.898406;0.47884035
17:46:18:551;-0.9576807;10.898406;0.47884035
17:46:18:551;-0.9576807;10.898406;0.47884035
17:46:18:551;-0.9576807;10.898406;0.47884035
17:46:18:551;-0.9576807;10.898406;0.47884035
17:46:18:551;-0.9576807;10.898406;0.47884035
17:46:18:551;-0.9576807;10.898406;0.47884035
17:46:18:551;-0.9576807;10.898406;0.47884035
17:46:18:551;-0.9576807;10.898406;0.47884035
17:46:18:551;-0.9576807;10.898406;0.47884035
17:46:18:551;-0.9576807;10.898406;0.47884035
17:46:18:551;-0.9576807;10.898406;0.47884035
17:46:18:651;-0.6895301;9.825804;0.4213795
17:46:18:651;-0.6895301;9.825804;0.4213795
17:46:18:651;-0.6895301;9.825804;0.4213795
17:46:18:651;-0.6895301;9.825804;0.4213795
17:46:18:651;-0.6895301;9.825804;0.4213795
17:46:18:651;-0.6895301;9.825804;0.4213795
17:46:18:651;-0.6895301;9.825804;0.4213795
17:46:18:651;-0.6895301;9.825804;0.4213795
17:46:18:651;-0.6895301;9.825804;0.4213795
17:46:18:651;-0.6895301;9.825804;0.4213795
17:46:18:651;-0.6895301;9.825804;0.4213795
17:46:18:651;-0.6895301;9.825804;0.4213795
17:46:18:651;-0.6895301;9.825804;0.4213795
17:46:18:651;-0.6895301;9.825804;0.4213795
17:46:18:651;-0.6895301;9.825804;0.4213795
17:46:18:767;-0.63206923;11.013328;-0.076614454
17:46:18:767;-0.63206923;11.013328;-0.076614454
17:46:18:767;-0.63206923;11.013328;-0.076614454
17:46:18:767;-0.63206923;11.013328;-0.076614454
17:46:18:767;-0.63206923;11.013328;-0.076614454
17:46:18:767;-0.63206923;11.013328;-0.076614454
17:46:18:767;-0.63206923;11.013328;-0.076614454
17:46:18:767;-0.63206923;11.013328;-0.076614454
17:46:18:767;-0.63206923;11.013328;-0.076614454
17:46:18:767;-0.63206923;11.013328;-0.076614454
17:46:18:767;-0.63206923;11.013328;-0.076614454
17:46:18:767;-0.63206923;11.013328;-0.076614454
17:46:18:767;-0.63206923;11.013328;-0.076614454
17:46:18:767;-0.63206923;11.013328;-0.076614454
17:46:18:767;-0.63206923;11.013328;-0.076614454
17:46:18:886;-0.38307226;9.461885;0.9959879
17:46:18:886;-0.38307226;9.461885;0.9959879
17:46:18:886;-0.38307226;9.461885;0.9959879
17:46:18:886;-0.38307226;9.461885;0.9959879
17:46:18:886;-0.38307226;9.461885;0.9959879
17:46:18:886;-0.38307226;9.461885;0.9959879
17:46:18:886;-0.38307226;9.461885;0.9959879
17:46:18:886;-0.38307226;9.461885;0.9959879
17:46:18:886;-0.38307226;9.461885;0.9959879
17:46:18:886;-0.38307226;9.461885;0.9959879
17:46:18:886;-0.38307226;9.461885;0.9959879
17:46:18:886;-0.38307226;9.461885;0.9959879
17:46:18:886;-0.38307226;9.461885;0.9959879
17:46:18:886;-0.38307226;9.461885;0.9959879
17:46:18:886;-0.38307226;9.461885;0.9959879
17:46:19:004;0.90021986;10.611102;0.11492168
17:46:19:004;0.90021986;10.611102;0.11492168
17:46:19:004;0.90021986;10.611102;0.11492168
17:46:19:004;0.90021986;10.611102;0.11492168
17:46:19:004;0.90021986;10.611102;0.11492168
17:46:19:004;0.90021986;10.611102;0.11492168
17:46:19:004;0.90021986;10.611102;0.11492168
17:46:19:004;0.90021986;10.611102;0.11492168
17:46:19:004;0.90021986;10.611102;0.11492168
17:46:19:004;0.90021986;10.611102;0.11492168
17:46:19:004;0.90021986;10.611102;0.11492168
17:46:19:004;0.90021986;10.611102;0.11492168
17:46:19:004;0.90021986;10.611102;0.11492168
17:46:19:004;0.90021986;10.611102;0.11492168
17:46:19:004;0.90021986;10.611102;0.11492168
17:46:19:121;-0.4213795;10.0748005;-0.038307227
17:46:19:121;-0.4213795;10.0748005;-0.038307227
17:46:19:121;-0.4213795;10.0748005;-0.038307227
17:46:19:121;-0.4213795;10.0748005;-0.038307227
17:46:19:121;-0.4213795;10.0748005;-0.038307227
17:46:19:121;-0.4213795;10.0748005;-0.038307227
17:46:19:121;-0.4213795;10.0748005;-0.038307227
17:46:19:121;-0.4213795;10.0748005;-0.038307227
17:46:19:121;-0.4213795;10.0748005;-0.038307227
17:46:19:121;-0.4213795;10.0748005;-0.038307227
17:46:19:121;-0.4213795;10.0748005;-0.038307227
17:46:19:121;-0.4213795;10.0748005;-0.038307227
17:46:19:121;-0.4213795;10.0748005;-0.038307227
17:46:19:121;-0.4213795;10.0748005;-0.038307227
17:46:19:121;-0.4213795;10.0748005;-0.038307227
17:46:19:239;-0.30645782;9.672575;0.61291564
17:46:19:239;-0.30645782;9.672575;0.61291564
17:46:19:239;-0.30645782;9.672575;0.61291564
17:46:19:239;-0.30645782;9.672575;0.61291564
17:46:19:239;-0.30645782;9.672575;0.61291564
17:46:19:239;-0.30645782;9.672575;0.61291564
17:46:19:239;-0.30645782;9.672575;0.61291564
17:46:19:239;-0.30645782;9.672575;0.61291564
17:46:19:239;-0.30645782;9.672575;0.61291564
17:46:19:239;-0.30645782;9.672575;0.61291564
17:46:19:239;-0.30645782;9.672575;0.61291564
17:46:19:239;-0.30645782;9.672575;0.61291564
17:46:19:239;-0.30645782;9.672575;0.61291564
17:46:19:239;-0.30645782;9.672575;0.61291564
17:46:19:239;-0.30645782;9.672575;0.61291564
17:46:19:356;-0.05746084;10.151415;0.7086837
17:46:19:356;-0.05746084;10.151415;0.7086837
17:46:19:356;-0.05746084;10.151415;0.7086837
17:46:19:356;-0.05746084;10.151415;0.7086837
17:46:19:356;-0.05746084;10.151415;0.7086837
17:46:19:356;-0.05746084;10.151415;0.7086837
17:46:19:356;-0.05746084;10.151415;0.7086837
17:46:19:356;-0.05746084;10.151415;0.7086837
17:46:19:356;-0.05746084;10.151415;0.7086837
17:46:19:356;-0.05746084;10.151415;0.7086837
17:46:19:356;-0.05746084;10.151415;0.7086837
17:46:19:356;-0.05746084;10.151415;0.7086837
17:46:19:356;-0.05746084;10.151415;0.7086837
17:46:19:356;-0.05746084;10.151415;0.7086837
17:46:19:461;0.019153614;10.151415;0.7086837
17:46:19:461;0.019153614;10.151415;0.7086837
17:46:19:461;0.019153614;10.151415;0.7086837
17:46:19:461;0.019153614;10.151415;0.7086837
17:46:19:461;0.019153614;10.151415;0.7086837
17:46:19:461;0.019153614;10.151415;0.7086837
17:46:19:461;0.019153614;10.151415;0.7086837
17:46:19:461;0.019153614;10.151415;0.7086837
17:46:19:461;0.019153614;10.151415;0.7086837
17:46:19:461;0.019153614;10.151415;0.7086837
17:46:19:461;0.019153614;10.151415;0.7086837
17:46:19:461;0.019153614;10.151415;0.7086837
17:46:19:461;0.019153614;10.151415;0.7086837
17:46:19:461;0.019153614;10.151415;0.7086837
17:46:19:571;0.038307227;10.70687;-0.11492168
17:46:19:571;0.038307227;10.70687;-0.11492168
17:46:19:571;0.038307227;10.70687;-0.11492168
17:46:19:571;0.038307227;10.70687;-0.11492168
17:46:19:571;0.038307227;10.70687;-0.11492168
17:46:19:571;0.038307227;10.70687;-0.11492168
17:46:19:571;0.038307227;10.70687;-0.11492168
17:46:19:571;0.038307227;10.70687;-0.11492168
17:46:19:571;0.038307227;10.70687;-0.11492168
17:46:19:571;0.038307227;10.70687;-0.11492168
17:46:19:571;0.038307227;10.70687;-0.11492168
17:46:19:571;0.038307227;10.70687;-0.11492168
17:46:19:571;0.038307227;10.70687;-0.11492168
17:46:19:571;0.038307227;10.70687;-0.11492168
17:46:19:571;0.038307227;10.70687;-0.11492168
17:46:19:571;0.038307227;10.70687;-0.11492168
17:46:19:571;0.038307227;10.70687;-0.11492168
17:46:19:571;0.038307227;10.70687;-0.11492168
17:46:19:571;0.038307227;10.70687;-0.11492168
17:46:19:723;0.15322891;9.825804;0.17238252
17:46:19:723;0.15322891;9.825804;0.17238252
17:46:19:723;0.15322891;9.825804;0.17238252
17:46:19:723;0.15322891;9.825804;0.17238252
17:46:19:723;0.15322891;9.825804;0.17238252
17:46:19:723;0.15322891;9.825804;0.17238252
17:46:19:723;0.15322891;9.825804;0.17238252
17:46:19:723;0.15322891;9.825804;0.17238252
17:46:19:723;0.15322891;9.825804;0.17238252
17:46:19:723;0.15322891;9.825804;0.17238252
17:46:19:723;0.15322891;9.825804;0.17238252
17:46:19:723;0.15322891;9.825804;0.17238252
17:46:19:723;0.15322891;9.825804;0.17238252
17:46:19:825;-0.21068975;10.611102;-0.47884035
17:46:19:825;-0.21068975;10.611102;-0.47884035
17:46:19:825;-0.21068975;10.611102;-0.47884035
17:46:19:825;-0.21068975;10.611102;-0.47884035
17:46:19:825;-0.21068975;10.611102;-0.47884035
17:46:19:825;-0.21068975;10.611102;-0.47884035
17:46:19:825;-0.21068975;10.611102;-0.47884035
17:46:19:825;-0.21068975;10.611102;-0.47884035
17:46:19:825;-0.21068975;10.611102;-0.47884035
17:46:19:825;-0.21068975;10.611102;-0.47884035
17:46:19:825;-0.21068975;10.611102;-0.47884035
17:46:19:825;-0.21068975;10.611102;-0.47884035
17:46:19:825;-0.21068975;10.611102;-0.47884035
17:46:19:825;-0.21068975;10.611102;-0.47884035
17:46:19:825;-0.21068975;10.611102;-0.47884035
17:46:19:943;-0.90021986;10.266336;0.019153614
17:46:19:943;-0.90021986;10.266336;0.019153614
17:46:19:943;-0.90021986;10.266336;0.019153614
17:46:19:943;-0.90021986;10.266336;0.019153614
17:46:19:943;-0.90021986;10.266336;0.019153614
17:46:19:943;-0.90021986;10.266336;0.019153614
17:46:19:943;-0.90021986;10.266336;0.019153614
17:46:19:943;-0.90021986;10.266336;0.019153614
17:46:19:943;-0.90021986;10.266336;0.019153614
17:46:19:943;-0.90021986;10.266336;0.019153614
17:46:19:943;-0.90021986;10.266336;0.019153614
17:46:19:943;-0.90021986;10.266336;0.019153614
17:46:19:943;-0.90021986;10.266336;0.019153614
17:46:19:943;-0.90021986;10.266336;0.019153614
17:46:19:943;-0.90021986;10.266336;0.019153614
17:46:20:059;-0.22984336;10.28549;0.7661445
17:46:20:059;-0.22984336;10.28549;0.7661445
17:46:20:059;-0.22984336;10.28549;0.7661445
17:46:20:059;-0.22984336;10.28549;0.7661445
17:46:20:059;-0.22984336;10.28549;0.7661445
17:46:20:059;-0.22984336;10.28549;0.7661445
17:46:20:059;-0.22984336;10.28549;0.7661445
17:46:20:059;-0.22984336;10.28549;0.7661445
17:46:20:059;-0.22984336;10.28549;0.7661445
17:46:20:059;-0.22984336;10.28549;0.7661445
17:46:20:059;-0.22984336;10.28549;0.7661445
17:46:20:059;-0.22984336;10.28549;0.7661445
17:46:20:059;-0.22984336;10.28549;0.7661445
17:46:20:059;-0.22984336;10.28549;0.7661445
17:46:20:059;-0.22984336;10.28549;0.7661445
17:46:20:059;-0.22984336;10.28549;0.7661445
17:46:20:059;-0.22984336;10.28549;0.7661445
17:46:20:059;-0.22984336;10.28549;0.7661445
17:46:20:059;-0.22984336;10.28549;0.7661445
17:46:20:204;-0.38307226;10.515334;0.90021986
17:46:20:204;-0.38307226;10.515334;0.90021986
17:46:20:204;-0.38307226;10.515334;0.90021986
17:46:20:204;-0.38307226;10.515334;0.90021986
17:46:20:204;-0.38307226;10.515334;0.90021986
17:46:20:204;-0.38307226;10.515334;0.90021986
17:46:20:204;-0.38307226;10.515334;0.90021986
17:46:20:204;-0.38307226;10.515334;0.90021986
17:46:20:204;-0.38307226;10.515334;0.90021986
17:46:20:204;-0.38307226;10.515334;0.90021986
17:46:20:204;-0.38307226;10.515334;0.90021986
17:46:20:204;-0.38307226;10.515334;0.90021986
17:46:20:204;-0.38307226;10.515334;0.90021986
17:46:20:204;-0.38307226;10.515334;0.90021986
17:46:20:313;0.80445176;9.021352;1.3982137
17:46:20:313;0.80445176;9.021352;1.3982137
17:46:20:313;0.80445176;9.021352;1.3982137
17:46:20:313;0.80445176;9.021352;1.3982137
17:46:20:313;0.80445176;9.021352;1.3982137
17:46:20:313;0.80445176;9.021352;1.3982137
17:46:20:313;0.80445176;9.021352;1.3982137
17:46:20:313;0.80445176;9.021352;1.3982137
17:46:20:313;0.80445176;9.021352;1.3982137
17:46:20:313;0.80445176;9.021352;1.3982137
17:46:20:313;0.80445176;9.021352;1.3982137
17:46:20:313;0.80445176;9.021352;1.3982137
17:46:20:313;0.80445176;9.021352;1.3982137
17:46:20:313;0.80445176;9.021352;1.3982137
17:46:20:313;0.80445176;9.021352;1.3982137
17:46:20:431;0.30645782;10.726024;0.8619126
17:46:20:431;0.30645782;10.726024;0.8619126
17:46:20:431;0.30645782;10.726024;0.8619126
17:46:20:431;0.30645782;10.726024;0.8619126
17:46:20:431;0.30645782;10.726024;0.8619126
17:46:20:431;0.30645782;10.726024;0.8619126
17:46:20:431;0.30645782;10.726024;0.8619126
17:46:20:431;0.30645782;10.726024;0.8619126
17:46:20:431;0.30645782;10.726024;0.8619126
17:46:20:431;0.30645782;10.726024;0.8619126
17:46:20:431;0.30645782;10.726024;0.8619126
17:46:20:431;0.30645782;10.726024;0.8619126
17:46:20:431;0.30645782;10.726024;0.8619126
17:46:20:431;0.30645782;10.726024;0.8619126
17:46:20:431;0.30645782;10.726024;0.8619126
17:46:20:549;-0.21068975;8.389283;0.63206923
17:46:20:549;-0.21068975;8.389283;0.63206923
17:46:20:549;-0.21068975;8.389283;0.63206923
17:46:20:549;-0.21068975;8.389283;0.63206923
17:46:20:549;-0.21068975;8.389283;0.63206923
17:46:20:549;-0.21068975;8.389283;0.63206923
17:46:20:549;-0.21068975;8.389283;0.63206923
17:46:20:549;-0.21068975;8.389283;0.63206923
17:46:20:549;-0.21068975;8.389283;0.63206923
17:46:20:549;-0.21068975;8.389283;0.63206923
17:46:20:549;-0.21068975;8.389283;0.63206923
17:46:20:549;-0.21068975;8.389283;0.63206923
17:46:20:549;-0.21068975;8.389283;0.63206923
17:46:20:650;0.32561144;10.70687;-0.019153614
17:46:20:650;0.32561144;10.70687;-0.019153614
17:46:20:650;0.32561144;10.70687;-0.019153614
17:46:20:650;0.32561144;10.70687;-0.019153614
17:46:20:650;0.32561144;10.70687;-0.019153614
17:46:20:650;0.32561144;10.70687;-0.019153614
17:46:20:650;0.32561144;10.70687;-0.019153614
17:46:20:650;0.32561144;10.70687;-0.019153614
17:46:20:650;0.32561144;10.70687;-0.019153614
17:46:20:650;0.32561144;10.70687;-0.019153614
17:46:20:650;0.32561144;10.70687;-0.019153614
17:46:20:650;0.32561144;10.70687;-0.019153614
17:46:20:650;0.32561144;10.70687;-0.019153614
17:46:20:650;0.32561144;10.70687;-0.019153614
17:46:20:650;0.32561144;10.70687;-0.019153614
17:46:20:650;0.32561144;10.70687;-0.019153614
17:46:20:650;0.32561144;10.70687;-0.019153614
17:46:20:650;0.32561144;10.70687;-0.019153614
17:46:20:650;0.32561144;10.70687;-0.019153614
17:46:20:803;-0.019153614;10.036493;0.2873042
17:46:20:803;-0.019153614;10.036493;0.2873042
17:46:20:803;-0.019153614;10.036493;0.2873042
17:46:20:803;-0.019153614;10.036493;0.2873042
17:46:20:803;-0.019153614;10.036493;0.2873042
17:46:20:803;-0.019153614;10.036493;0.2873042
17:46:20:803;-0.019153614;10.036493;0.2873042
17:46:20:803;-0.019153614;10.036493;0.2873042
17:46:20:803;-0.019153614;10.036493;0.2873042
17:46:20:803;-0.019153614;10.036493;0.2873042
17:46:20:803;-0.019153614;10.036493;0.2873042
17:46:20:803;-0.019153614;10.036493;0.2873042
17:46:20:803;-0.019153614;10.036493;0.2873042
17:46:20:904;0.4405331;9.998186;0.38307226
17:46:20:904;0.4405331;9.998186;0.38307226
17:46:20:904;0.4405331;9.998186;0.38307226
17:46:20:904;0.4405331;9.998186;0.38307226
17:46:20:904;0.4405331;9.998186;0.38307226
17:46:20:904;0.4405331;9.998186;0.38307226
17:46:20:904;0.4405331;9.998186;0.38307226
17:46:20:904;0.4405331;9.998186;0.38307226
17:46:20:904;0.4405331;9.998186;0.38307226
17:46:20:904;0.4405331;9.998186;0.38307226
17:46:20:904;0.4405331;9.998186;0.38307226
17:46:20:904;0.4405331;9.998186;0.38307226
17:46:20:904;0.4405331;9.998186;0.38307226
17:46:20:904;0.4405331;9.998186;0.38307226
17:46:20:904;0.4405331;9.998186;0.38307226
17:46:20:904;0.4405331;9.998186;0.38307226
17:46:21:024;-0.2681506;10.611102;0.30645782
17:46:21:024;-0.2681506;10.611102;0.30645782
17:46:21:024;-0.2681506;10.611102;0.30645782
17:46:21:024;-0.2681506;10.611102;0.30645782
17:46:21:024;-0.2681506;10.611102;0.30645782
17:46:21:024;-0.2681506;10.611102;0.30645782
17:46:21:024;-0.2681506;10.611102;0.30645782
17:46:21:024;-0.2681506;10.611102;0.30645782
17:46:21:024;-0.2681506;10.611102;0.30645782
17:46:21:024;-0.2681506;10.611102;0.30645782
17:46:21:024;-0.2681506;10.611102;0.30645782
17:46:21:024;-0.2681506;10.611102;0.30645782
17:46:21:024;-0.2681506;10.611102;0.30645782
17:46:21:024;-0.2681506;10.611102;0.30645782
17:46:21:024;-0.2681506;10.611102;0.30645782
17:46:21:142;-0.4405331;10.247183;0.842759
17:46:21:142;-0.4405331;10.247183;0.842759
17:46:21:142;-0.4405331;10.247183;0.842759
17:46:21:142;-0.4405331;10.247183;0.842759
17:46:21:142;-0.4405331;10.247183;0.842759
17:46:21:142;-0.4405331;10.247183;0.842759
17:46:21:142;-0.4405331;10.247183;0.842759
17:46:21:142;-0.4405331;10.247183;0.842759
17:46:21:142;-0.4405331;10.247183;0.842759
17:46:21:142;-0.4405331;10.247183;0.842759
17:46:21:142;-0.4405331;10.247183;0.842759
17:46:21:142;-0.4405331;10.247183;0.842759
17:46:21:142;-0.4405331;10.247183;0.842759
17:46:21:142;-0.4405331;10.247183;0.842759
17:46:21:142;-0.4405331;10.247183;0.842759
17:46:21:265;-0.7469909;10.496181;0.019153614
17:46:21:265;-0.7469909;10.496181;0.019153614
17:46:21:265;-0.7469909;10.496181;0.019153614
17:46:21:265;-0.7469909;10.496181;0.019153614
17:46:21:265;-0.7469909;10.496181;0.019153614
17:46:21:265;-0.7469909;10.496181;0.019153614
17:46:21:265;-0.7469909;10.496181;0.019153614
17:46:21:265;-0.7469909;10.496181;0.019153614
17:46:21:265;-0.7469909;10.496181;0.019153614
17:46:21:265;-0.7469909;10.496181;0.019153614
17:46:21:265;-0.7469909;10.496181;0.019153614
17:46:21:265;-0.7469909;10.496181;0.019153614
17:46:21:265;-0.7469909;10.496181;0.019153614
17:46:21:265;-0.7469909;10.496181;0.019153614
17:46:21:265;-0.7469909;10.496181;0.019153614
17:46:21:265;-0.7469909;10.496181;0.019153614
17:46:21:390;-0.17238252;10.323798;0.19153613
17:46:21:390;-0.17238252;10.323798;0.19153613
17:46:21:390;-0.17238252;10.323798;0.19153613
17:46:21:390;-0.17238252;10.323798;0.19153613
17:46:21:390;-0.17238252;10.323798;0.19153613
17:46:21:390;-0.17238252;10.323798;0.19153613
17:46:21:390;-0.17238252;10.323798;0.19153613
17:46:21:390;-0.17238252;10.323798;0.19153613
17:46:21:390;-0.17238252;10.323798;0.19153613
17:46:21:390;-0.17238252;10.323798;0.19153613
17:46:21:390;-0.17238252;10.323798;0.19153613
17:46:21:390;-0.17238252;10.323798;0.19153613
17:46:21:390;-0.17238252;10.323798;0.19153613
17:46:21:492;-0.5554548;10.093954;0.21068975
17:46:21:492;-0.5554548;10.093954;0.21068975
17:46:21:492;-0.5554548;10.093954;0.21068975
17:46:21:492;-0.5554548;10.093954;0.21068975
17:46:21:492;-0.5554548;10.093954;0.21068975
17:46:21:492;-0.5554548;10.093954;0.21068975
17:46:21:492;-0.5554548;10.093954;0.21068975
17:46:21:492;-0.5554548;10.093954;0.21068975
17:46:21:492;-0.5554548;10.093954;0.21068975
17:46:21:492;-0.5554548;10.093954;0.21068975
17:46:21:492;-0.5554548;10.093954;0.21068975
17:46:21:492;-0.5554548;10.093954;0.21068975
17:46:21:492;-0.5554548;10.093954;0.21068975
17:46:21:492;-0.5554548;10.093954;0.21068975
17:46:21:492;-0.5554548;10.093954;0.21068975
17:46:21:492;-0.5554548;10.093954;0.21068975
17:46:21:610;0.17238252;10.764331;-0.17238252
17:46:21:610;0.17238252;10.764331;-0.17238252
17:46:21:610;0.17238252;10.764331;-0.17238252
17:46:21:610;0.17238252;10.764331;-0.17238252
17:46:21:610;0.17238252;10.764331;-0.17238252
17:46:21:610;0.17238252;10.764331;-0.17238252
17:46:21:610;0.17238252;10.764331;-0.17238252
17:46:21:610;0.17238252;10.764331;-0.17238252
17:46:21:610;0.17238252;10.764331;-0.17238252
17:46:21:610;0.17238252;10.764331;-0.17238252
17:46:21:610;0.17238252;10.764331;-0.17238252
17:46:21:610;0.17238252;10.764331;-0.17238252
17:46:21:610;0.17238252;10.764331;-0.17238252
17:46:21:610;0.17238252;10.764331;-0.17238252
17:46:21:726;-0.30645782;9.730036;0.24899697
17:46:21:726;-0.30645782;9.730036;0.24899697
17:46:21:726;-0.30645782;9.730036;0.24899697
17:46:21:726;-0.30645782;9.730036;0.24899697
17:46:21:726;-0.30645782;9.730036;0.24899697
17:46:21:726;-0.30645782;9.730036;0.24899697
17:46:21:726;-0.30645782;9.730036;0.24899697
17:46:21:726;-0.30645782;9.730036;0.24899697
17:46:21:726;-0.30645782;9.730036;0.24899697
17:46:21:726;-0.30645782;9.730036;0.24899697
17:46:21:726;-0.30645782;9.730036;0.24899697
17:46:21:726;-0.30645782;9.730036;0.24899697
17:46:21:726;-0.30645782;9.730036;0.24899697
17:46:21:726;-0.30645782;9.730036;0.24899697
17:46:21:833;-0.38307226;10.304645;0.38307226
17:46:21:833;-0.38307226;10.304645;0.38307226
17:46:21:833;-0.38307226;10.304645;0.38307226
17:46:21:833;-0.38307226;10.304645;0.38307226
17:46:21:833;-0.38307226;10.304645;0.38307226
17:46:21:833;-0.38307226;10.304645;0.38307226
17:46:21:833;-0.38307226;10.304645;0.38307226
17:46:21:833;-0.38307226;10.304645;0.38307226
17:46:21:833;-0.38307226;10.304645;0.38307226
17:46:21:833;-0.38307226;10.304645;0.38307226
17:46:21:833;-0.38307226;10.304645;0.38307226
17:46:21:833;-0.38307226;10.304645;0.38307226
17:46:21:833;-0.38307226;10.304645;0.38307226
17:46:21:833;-0.38307226;10.304645;0.38307226
17:46:21:944;0.19153613;9.595961;0.82360536
17:46:21:944;0.19153613;9.595961;0.82360536
17:46:21:944;0.19153613;9.595961;0.82360536
17:46:21:944;0.19153613;9.595961;0.82360536
17:46:21:944;0.19153613;9.595961;0.82360536
17:46:21:944;0.19153613;9.595961;0.82360536
17:46:21:944;0.19153613;9.595961;0.82360536
17:46:21:944;0.19153613;9.595961;0.82360536
17:46:21:944;0.19153613;9.595961;0.82360536
17:46:21:944;0.19153613;9.595961;0.82360536
17:46:21:944;0.19153613;9.595961;0.82360536
17:46:21:944;0.19153613;9.595961;0.82360536
17:46:21:944;0.19153613;9.595961;0.82360536
17:46:21:944;0.19153613;9.595961;0.82360536
17:46:21:944;0.19153613;9.595961;0.82360536
17:46:22:061;0.30645782;10.783484;-0.6512229
17:46:22:061;0.30645782;10.783484;-0.6512229
17:46:22:061;0.30645782;10.783484;-0.6512229
17:46:22:061;0.30645782;10.783484;-0.6512229
17:46:22:061;0.30645782;10.783484;-0.6512229
17:46:22:061;0.30645782;10.783484;-0.6512229
17:46:22:061;0.30645782;10.783484;-0.6512229
17:46:22:061;0.30645782;10.783484;-0.6512229
17:46:22:061;0.30645782;10.783484;-0.6512229
17:46:22:061;0.30645782;10.783484;-0.6512229
17:46:22:061;0.30645782;10.783484;-0.6512229
17:46:22:061;0.30645782;10.783484;-0.6512229
17:46:22:061;0.30645782;10.783484;-0.6512229
17:46:22:061;0.30645782;10.783484;-0.6512229
17:46:22:061;0.30645782;10.783484;-0.6512229
17:46:22:061;0.30645782;10.783484;-0.6512229
17:46:22:181;-0.7086837;10.208876;0.15322891
17:46:22:181;-0.7086837;10.208876;0.15322891
17:46:22:181;-0.7086837;10.208876;0.15322891
17:46:22:181;-0.7086837;10.208876;0.15322891
17:46:22:181;-0.7086837;10.208876;0.15322891
17:46:22:181;-0.7086837;10.208876;0.15322891
17:46:22:181;-0.7086837;10.208876;0.15322891
17:46:22:181;-0.7086837;10.208876;0.15322891
17:46:22:181;-0.7086837;10.208876;0.15322891
17:46:22:181;-0.7086837;10.208876;0.15322891
17:46:22:181;-0.7086837;10.208876;0.15322891
17:46:22:181;-0.7086837;10.208876;0.15322891
17:46:22:181;-0.7086837;10.208876;0.15322891
17:46:22:181;-0.7086837;10.208876;0.15322891
17:46:22:181;-0.7086837;10.208876;0.15322891
17:46:22:298;-0.30645782;10.419566;0.4213795
17:46:22:298;-0.30645782;10.419566;0.4213795
17:46:22:298;-0.30645782;10.419566;0.4213795
17:46:22:298;-0.30645782;10.419566;0.4213795
17:46:22:298;-0.30645782;10.419566;0.4213795
17:46:22:298;-0.30645782;10.419566;0.4213795
17:46:22:298;-0.30645782;10.419566;0.4213795
17:46:22:298;-0.30645782;10.419566;0.4213795
