Time_Biotrace;Time_Accel;AccelX;AccelY;AccelZ
14:50:47:007;14:50:46:894;-0.2681506;9.883265;0.019153614
14:50:47:015;14:50:47:009;-0.2873042;9.9790325;0.095768064
14:50:47:023;14:50:47:009;-0.2873042;9.9790325;0.095768064
14:50:47:031;14:50:47:009;-0.2873042;9.9790325;0.095768064
14:50:47:039;14:50:47:009;-0.2873042;9.9790325;0.095768064
14:50:47:046;14:50:47:009;-0.2873042;9.9790325;0.095768064
14:50:47:054;14:50:47:009;-0.2873042;9.9790325;0.095768064
14:50:47:062;14:50:47:009;-0.2873042;9.9790325;0.095768064
14:50:47:070;14:50:47:009;-0.2873042;9.9790325;0.095768064
14:50:47:078;14:50:47:009;-0.2873042;9.9790325;0.095768064
14:50:47:085;14:50:47:009;-0.2873042;9.9790325;0.095768064
14:50:47:093;14:50:47:009;-0.2873042;9.9790325;0.095768064
14:50:47:101;14:50:47:009;-0.2873042;9.9790325;0.095768064
14:50:47:109;14:50:47:009;-0.2873042;9.9790325;0.095768064
14:50:47:117;14:50:47:115;-0.40222588;10.036493;0.15322891
14:50:47:125;14:50:47:115;-0.40222588;10.036493;0.15322891
14:50:47:132;14:50:47:115;-0.40222588;10.036493;0.15322891
14:50:47:140;14:50:47:115;-0.40222588;10.036493;0.15322891
14:50:47:148;14:50:47:115;-0.40222588;10.036493;0.15322891
14:50:47:156;14:50:47:115;-0.40222588;10.036493;0.15322891
14:50:47:164;14:50:47:115;-0.40222588;10.036493;0.15322891
14:50:47:171;14:50:47:115;-0.40222588;10.036493;0.15322891
14:50:47:179;14:50:47:115;-0.40222588;10.036493;0.15322891
14:50:47:187;14:50:47:115;-0.40222588;10.036493;0.15322891
14:50:47:195;14:50:47:115;-0.40222588;10.036493;0.15322891
14:50:47:203;14:50:47:115;-0.40222588;10.036493;0.15322891
14:50:47:210;14:50:47:115;-0.40222588;10.036493;0.15322891
14:50:47:218;14:50:47:115;-0.40222588;10.036493;0.15322891
14:50:47:226;14:50:47:223;-0.2873042;10.055647;0.076614454
14:50:47:234;14:50:47:223;-0.2873042;10.055647;0.076614454
14:50:47:242;14:50:47:223;-0.2873042;10.055647;0.076614454
14:50:47:250;14:50:47:223;-0.2873042;10.055647;0.076614454
14:50:47:257;14:50:47:223;-0.2873042;10.055647;0.076614454
14:50:47:265;14:50:47:223;-0.2873042;10.055647;0.076614454
14:50:47:273;14:50:47:223;-0.2873042;10.055647;0.076614454
14:50:47:281;14:50:47:223;-0.2873042;10.055647;0.076614454
14:50:47:289;14:50:47:223;-0.2873042;10.055647;0.076614454
14:50:47:296;14:50:47:223;-0.2873042;10.055647;0.076614454
14:50:47:304;14:50:47:223;-0.2873042;10.055647;0.076614454
14:50:47:312;14:50:47:223;-0.2873042;10.055647;0.076614454
14:50:47:320;14:50:47:223;-0.2873042;10.055647;0.076614454
14:50:47:328;14:50:47:327;-0.30645782;9.9790325;0.1340753
14:50:47:335;14:50:47:327;-0.30645782;9.9790325;0.1340753
14:50:47:343;14:50:47:327;-0.30645782;9.9790325;0.1340753
14:50:47:351;14:50:47:327;-0.30645782;9.9790325;0.1340753
14:50:47:359;14:50:47:327;-0.30645782;9.9790325;0.1340753
14:50:47:367;14:50:47:327;-0.30645782;9.9790325;0.1340753
14:50:47:375;14:50:47:327;-0.30645782;9.9790325;0.1340753
14:50:47:382;14:50:47:327;-0.30645782;9.9790325;0.1340753
14:50:47:390;14:50:47:327;-0.30645782;9.9790325;0.1340753
14:50:47:398;14:50:47:327;-0.30645782;9.9790325;0.1340753
14:50:47:406;14:50:47:327;-0.30645782;9.9790325;0.1340753
14:50:47:414;14:50:47:327;-0.30645782;9.9790325;0.1340753
14:50:47:421;14:50:47:327;-0.30645782;9.9790325;0.1340753
14:50:47:429;14:50:47:327;-0.30645782;9.9790325;0.1340753
14:50:47:437;14:50:47:327;-0.30645782;9.9790325;0.1340753
14:50:47:445;14:50:47:444;-0.2681506;9.959879;-0.095768064
14:50:47:453;14:50:47:444;-0.2681506;9.959879;-0.095768064
14:50:47:460;14:50:47:444;-0.2681506;9.959879;-0.095768064
14:50:47:468;14:50:47:444;-0.2681506;9.959879;-0.095768064
14:50:47:476;14:50:47:444;-0.2681506;9.959879;-0.095768064
14:50:47:484;14:50:47:444;-0.2681506;9.959879;-0.095768064
14:50:47:492;14:50:47:444;-0.2681506;9.959879;-0.095768064
14:50:47:500;14:50:47:444;-0.2681506;9.959879;-0.095768064
14:50:47:507;14:50:47:444;-0.2681506;9.959879;-0.095768064
14:50:47:515;14:50:47:444;-0.2681506;9.959879;-0.095768064
14:50:47:523;14:50:47:444;-0.2681506;9.959879;-0.095768064
14:50:47:531;14:50:47:444;-0.2681506;9.959879;-0.095768064
14:50:47:539;14:50:47:444;-0.2681506;9.959879;-0.095768064
14:50:47:546;14:50:47:444;-0.2681506;9.959879;-0.095768064
14:50:47:554;14:50:47:547;-0.34476504;9.940725;0.019153614
14:50:47:562;14:50:47:547;-0.34476504;9.940725;0.019153614
14:50:47:570;14:50:47:547;-0.34476504;9.940725;0.019153614
14:50:47:578;14:50:47:547;-0.34476504;9.940725;0.019153614
14:50:47:585;14:50:47:547;-0.34476504;9.940725;0.019153614
14:50:47:593;14:50:47:547;-0.34476504;9.940725;0.019153614
14:50:47:601;14:50:47:547;-0.34476504;9.940725;0.019153614
14:50:47:609;14:50:47:547;-0.34476504;9.940725;0.019153614
14:50:47:617;14:50:47:547;-0.34476504;9.940725;0.019153614
14:50:47:625;14:50:47:547;-0.34476504;9.940725;0.019153614
14:50:47:632;14:50:47:547;-0.34476504;9.940725;0.019153614
14:50:47:640;14:50:47:547;-0.34476504;9.940725;0.019153614
14:50:47:648;14:50:47:547;-0.34476504;9.940725;0.019153614
14:50:47:656;14:50:47:547;-0.34476504;9.940725;0.019153614
14:50:47:664;14:50:47:664;-0.38307226;10.036493;-0.076614454
14:50:47:671;14:50:47:664;-0.38307226;10.036493;-0.076614454
14:50:47:679;14:50:47:664;-0.38307226;10.036493;-0.076614454
14:50:47:687;14:50:47:664;-0.38307226;10.036493;-0.076614454
14:50:47:695;14:50:47:664;-0.38307226;10.036493;-0.076614454
14:50:47:703;14:50:47:664;-0.38307226;10.036493;-0.076614454
14:50:47:710;14:50:47:664;-0.38307226;10.036493;-0.076614454
14:50:47:718;14:50:47:664;-0.38307226;10.036493;-0.076614454
14:50:47:726;14:50:47:664;-0.38307226;10.036493;-0.076614454
14:50:47:734;14:50:47:664;-0.38307226;10.036493;-0.076614454
14:50:47:742;14:50:47:664;-0.38307226;10.036493;-0.076614454
14:50:47:750;14:50:47:664;-0.38307226;10.036493;-0.076614454
14:50:47:757;14:50:47:664;-0.38307226;10.036493;-0.076614454
14:50:47:765;14:50:47:664;-0.38307226;10.036493;-0.076614454
14:50:47:773;14:50:47:664;-0.38307226;10.036493;-0.076614454
14:50:47:781;14:50:47:664;-0.38307226;10.036493;-0.076614454
14:50:47:789;14:50:47:782;-0.21068975;10.01734;-0.05746084
14:50:47:796;14:50:47:782;-0.21068975;10.01734;-0.05746084
14:50:47:804;14:50:47:782;-0.21068975;10.01734;-0.05746084
14:50:47:812;14:50:47:782;-0.21068975;10.01734;-0.05746084
14:50:47:820;14:50:47:782;-0.21068975;10.01734;-0.05746084
14:50:47:828;14:50:47:782;-0.21068975;10.01734;-0.05746084
14:50:47:835;14:50:47:782;-0.21068975;10.01734;-0.05746084
14:50:47:843;14:50:47:782;-0.21068975;10.01734;-0.05746084
14:50:47:851;14:50:47:782;-0.21068975;10.01734;-0.05746084
14:50:47:859;14:50:47:782;-0.21068975;10.01734;-0.05746084
14:50:47:867;14:50:47:782;-0.21068975;10.01734;-0.05746084
14:50:47:875;14:50:47:782;-0.21068975;10.01734;-0.05746084
14:50:47:882;14:50:47:782;-0.21068975;10.01734;-0.05746084
14:50:47:890;14:50:47:782;-0.21068975;10.01734;-0.05746084
14:50:47:898;14:50:47:782;-0.21068975;10.01734;-0.05746084
14:50:47:906;14:50:47:901;-0.2681506;10.01734;-0.038307227
14:50:47:914;14:50:47:901;-0.2681506;10.01734;-0.038307227
14:50:47:921;14:50:47:901;-0.2681506;10.01734;-0.038307227
14:50:47:929;14:50:47:901;-0.2681506;10.01734;-0.038307227
14:50:47:937;14:50:47:901;-0.2681506;10.01734;-0.038307227
14:50:47:945;14:50:47:901;-0.2681506;10.01734;-0.038307227
14:50:47:953;14:50:47:901;-0.2681506;10.01734;-0.038307227
14:50:47:960;14:50:47:901;-0.2681506;10.01734;-0.038307227
14:50:47:968;14:50:47:901;-0.2681506;10.01734;-0.038307227
14:50:47:976;14:50:47:901;-0.2681506;10.01734;-0.038307227
14:50:47:984;14:50:47:901;-0.2681506;10.01734;-0.038307227
14:50:47:992;14:50:47:901;-0.2681506;10.01734;-0.038307227
14:50:48:000;14:50:47:901;-0.2681506;10.01734;-0.038307227
14:50:48:007;14:50:47:901;-0.2681506;10.01734;-0.038307227
14:50:48:015;14:50:47:901;-0.2681506;10.01734;-0.038307227
14:50:48:023;14:50:48:016;-0.2681506;9.883265;0.019153614
14:50:48:031;14:50:48:016;-0.2681506;9.883265;0.019153614
14:50:48:039;14:50:48:016;-0.2681506;9.883265;0.019153614
14:50:48:046;14:50:48:016;-0.2681506;9.883265;0.019153614
14:50:48:054;14:50:48:016;-0.2681506;9.883265;0.019153614
14:50:48:062;14:50:48:016;-0.2681506;9.883265;0.019153614
14:50:48:070;14:50:48:016;-0.2681506;9.883265;0.019153614
14:50:48:078;14:50:48:016;-0.2681506;9.883265;0.019153614
14:50:48:085;14:50:48:016;-0.2681506;9.883265;0.019153614
14:50:48:093;14:50:48:016;-0.2681506;9.883265;0.019153614
14:50:48:101;14:50:48:016;-0.2681506;9.883265;0.019153614
14:50:48:109;14:50:48:016;-0.2681506;9.883265;0.019153614
14:50:48:117;14:50:48:016;-0.2681506;9.883265;0.019153614
14:50:48:125;14:50:48:016;-0.2681506;9.883265;0.019153614
14:50:48:132;14:50:48:016;-0.2681506;9.883265;0.019153614
14:50:48:140;14:50:48:138;-0.2873042;10.01734;-0.038307227
14:50:48:148;14:50:48:138;-0.2873042;10.01734;-0.038307227
14:50:48:156;14:50:48:138;-0.2873042;10.01734;-0.038307227
14:50:48:164;14:50:48:138;-0.2873042;10.01734;-0.038307227
14:50:48:171;14:50:48:138;-0.2873042;10.01734;-0.038307227
14:50:48:179;14:50:48:138;-0.2873042;10.01734;-0.038307227
14:50:48:187;14:50:48:138;-0.2873042;10.01734;-0.038307227
14:50:48:195;14:50:48:138;-0.2873042;10.01734;-0.038307227
14:50:48:203;14:50:48:138;-0.2873042;10.01734;-0.038307227
14:50:48:210;14:50:48:138;-0.2873042;10.01734;-0.038307227
14:50:48:218;14:50:48:138;-0.2873042;10.01734;-0.038307227
14:50:48:226;14:50:48:138;-0.2873042;10.01734;-0.038307227
14:50:48:234;14:50:48:138;-0.2873042;10.01734;-0.038307227
14:50:48:242;14:50:48:241;-0.22984336;9.998186;0.15322891
14:50:48:250;14:50:48:241;-0.22984336;9.998186;0.15322891
14:50:48:257;14:50:48:241;-0.22984336;9.998186;0.15322891
14:50:48:265;14:50:48:241;-0.22984336;9.998186;0.15322891
14:50:48:273;14:50:48:241;-0.22984336;9.998186;0.15322891
14:50:48:281;14:50:48:241;-0.22984336;9.998186;0.15322891
14:50:48:289;14:50:48:241;-0.22984336;9.998186;0.15322891
14:50:48:296;14:50:48:241;-0.22984336;9.998186;0.15322891
14:50:48:304;14:50:48:241;-0.22984336;9.998186;0.15322891
14:50:48:312;14:50:48:241;-0.22984336;9.998186;0.15322891
14:50:48:320;14:50:48:241;-0.22984336;9.998186;0.15322891
14:50:48:328;14:50:48:241;-0.22984336;9.998186;0.15322891
14:50:48:335;14:50:48:241;-0.22984336;9.998186;0.15322891
14:50:48:343;14:50:48:241;-0.22984336;9.998186;0.15322891
14:50:48:351;14:50:48:347;-0.47884035;10.01734;-0.038307227
14:50:48:359;14:50:48:347;-0.47884035;10.01734;-0.038307227
14:50:48:367;14:50:48:347;-0.47884035;10.01734;-0.038307227
14:50:48:375;14:50:48:347;-0.47884035;10.01734;-0.038307227
14:50:48:382;14:50:48:347;-0.47884035;10.01734;-0.038307227
14:50:48:390;14:50:48:347;-0.47884035;10.01734;-0.038307227
14:50:48:398;14:50:48:347;-0.47884035;10.01734;-0.038307227
14:50:48:406;14:50:48:347;-0.47884035;10.01734;-0.038307227
14:50:48:414;14:50:48:347;-0.47884035;10.01734;-0.038307227
14:50:48:421;14:50:48:347;-0.47884035;10.01734;-0.038307227
14:50:48:429;14:50:48:347;-0.47884035;10.01734;-0.038307227
14:50:48:437;14:50:48:347;-0.47884035;10.01734;-0.038307227
14:50:48:445;14:50:48:347;-0.47884035;10.01734;-0.038307227
14:50:48:453;14:50:48:449;-0.32561144;9.940725;0.038307227
14:50:48:460;14:50:48:449;-0.32561144;9.940725;0.038307227
14:50:48:468;14:50:48:449;-0.32561144;9.940725;0.038307227
14:50:48:476;14:50:48:449;-0.32561144;9.940725;0.038307227
14:50:48:484;14:50:48:449;-0.32561144;9.940725;0.038307227
14:50:48:492;14:50:48:449;-0.32561144;9.940725;0.038307227
14:50:48:500;14:50:48:449;-0.32561144;9.940725;0.038307227
14:50:48:507;14:50:48:449;-0.32561144;9.940725;0.038307227
14:50:48:515;14:50:48:449;-0.32561144;9.940725;0.038307227
14:50:48:523;14:50:48:449;-0.32561144;9.940725;0.038307227
14:50:48:531;14:50:48:449;-0.32561144;9.940725;0.038307227
14:50:48:539;14:50:48:449;-0.32561144;9.940725;0.038307227
14:50:48:546;14:50:48:449;-0.32561144;9.940725;0.038307227
14:50:48:554;14:50:48:449;-0.32561144;9.940725;0.038307227
14:50:48:562;14:50:48:449;-0.32561144;9.940725;0.038307227
14:50:48:570;14:50:48:449;-0.32561144;9.940725;0.038307227
14:50:48:578;14:50:48:449;-0.32561144;9.940725;0.038307227
14:50:48:585;14:50:48:582;-0.32561144;9.959879;0.05746084
14:50:48:593;14:50:48:582;-0.32561144;9.959879;0.05746084
14:50:48:601;14:50:48:582;-0.32561144;9.959879;0.05746084
14:50:48:609;14:50:48:582;-0.32561144;9.959879;0.05746084
14:50:48:617;14:50:48:582;-0.32561144;9.959879;0.05746084
14:50:48:625;14:50:48:582;-0.32561144;9.959879;0.05746084
14:50:48:632;14:50:48:582;-0.32561144;9.959879;0.05746084
14:50:48:640;14:50:48:582;-0.32561144;9.959879;0.05746084
14:50:48:648;14:50:48:582;-0.32561144;9.959879;0.05746084
14:50:48:656;14:50:48:582;-0.32561144;9.959879;0.05746084
14:50:48:664;14:50:48:582;-0.32561144;9.959879;0.05746084
14:50:48:671;14:50:48:582;-0.32561144;9.959879;0.05746084
14:50:48:679;14:50:48:582;-0.32561144;9.959879;0.05746084
14:50:48:687;14:50:48:582;-0.32561144;9.959879;0.05746084
14:50:48:695;14:50:48:690;-0.34476504;9.998186;0.1340753
14:50:48:703;14:50:48:690;-0.34476504;9.998186;0.1340753
14:50:48:710;14:50:48:690;-0.34476504;9.998186;0.1340753
14:50:48:718;14:50:48:690;-0.34476504;9.998186;0.1340753
14:50:48:726;14:50:48:690;-0.34476504;9.998186;0.1340753
14:50:48:734;14:50:48:690;-0.34476504;9.998186;0.1340753
14:50:48:742;14:50:48:690;-0.34476504;9.998186;0.1340753
14:50:48:750;14:50:48:690;-0.34476504;9.998186;0.1340753
14:50:48:757;14:50:48:690;-0.34476504;9.998186;0.1340753
14:50:48:765;14:50:48:690;-0.34476504;9.998186;0.1340753
14:50:48:773;14:50:48:690;-0.34476504;9.998186;0.1340753
14:50:48:781;14:50:48:690;-0.34476504;9.998186;0.1340753
14:50:48:789;14:50:48:690;-0.34476504;9.998186;0.1340753
14:50:48:796;14:50:48:792;-0.34476504;9.940725;0.095768064
14:50:48:804;14:50:48:792;-0.34476504;9.940725;0.095768064
14:50:48:812;14:50:48:792;-0.34476504;9.940725;0.095768064
14:50:48:820;14:50:48:792;-0.34476504;9.940725;0.095768064
14:50:48:828;14:50:48:792;-0.34476504;9.940725;0.095768064
14:50:48:835;14:50:48:792;-0.34476504;9.940725;0.095768064
14:50:48:843;14:50:48:792;-0.34476504;9.940725;0.095768064
14:50:48:851;14:50:48:792;-0.34476504;9.940725;0.095768064
14:50:48:859;14:50:48:792;-0.34476504;9.940725;0.095768064
14:50:48:867;14:50:48:792;-0.34476504;9.940725;0.095768064
14:50:48:875;14:50:48:792;-0.34476504;9.940725;0.095768064
14:50:48:882;14:50:48:792;-0.34476504;9.940725;0.095768064
14:50:48:890;14:50:48:792;-0.34476504;9.940725;0.095768064
14:50:48:898;14:50:48:792;-0.34476504;9.940725;0.095768064
14:50:48:906;14:50:48:792;-0.34476504;9.940725;0.095768064
14:50:48:914;14:50:48:913;-0.22984336;10.0748005;-0.076614454
14:50:48:921;14:50:48:913;-0.22984336;10.0748005;-0.076614454
14:50:48:929;14:50:48:913;-0.22984336;10.0748005;-0.076614454
14:50:48:937;14:50:48:913;-0.22984336;10.0748005;-0.076614454
14:50:48:945;14:50:48:913;-0.22984336;10.0748005;-0.076614454
14:50:48:953;14:50:48:913;-0.22984336;10.0748005;-0.076614454
14:50:48:960;14:50:48:913;-0.22984336;10.0748005;-0.076614454
14:50:48:968;14:50:48:913;-0.22984336;10.0748005;-0.076614454
14:50:48:976;14:50:48:913;-0.22984336;10.0748005;-0.076614454
14:50:48:984;14:50:48:913;-0.22984336;10.0748005;-0.076614454
14:50:48:992;14:50:48:913;-0.22984336;10.0748005;-0.076614454
14:50:49:000;14:50:48:913;-0.22984336;10.0748005;-0.076614454
14:50:49:007;14:50:48:913;-0.22984336;10.0748005;-0.076614454
14:50:49:015;14:50:48:913;-0.22984336;10.0748005;-0.076614454
14:50:49:023;14:50:48:913;-0.22984336;10.0748005;-0.076614454
14:50:49:031;14:50:49:030;-0.32561144;9.921572;-0.095768064
14:50:49:039;14:50:49:030;-0.32561144;9.921572;-0.095768064
14:50:49:046;14:50:49:030;-0.32561144;9.921572;-0.095768064
14:50:49:054;14:50:49:030;-0.32561144;9.921572;-0.095768064
14:50:49:062;14:50:49:030;-0.32561144;9.921572;-0.095768064
14:50:49:070;14:50:49:030;-0.32561144;9.921572;-0.095768064
14:50:49:078;14:50:49:030;-0.32561144;9.921572;-0.095768064
14:50:49:085;14:50:49:030;-0.32561144;9.921572;-0.095768064
14:50:49:093;14:50:49:030;-0.32561144;9.921572;-0.095768064
14:50:49:101;14:50:49:030;-0.32561144;9.921572;-0.095768064
14:50:49:109;14:50:49:030;-0.32561144;9.921572;-0.095768064
14:50:49:117;14:50:49:030;-0.32561144;9.921572;-0.095768064
14:50:49:125;14:50:49:030;-0.32561144;9.921572;-0.095768064
14:50:49:132;14:50:49:030;-0.32561144;9.921572;-0.095768064
14:50:49:140;14:50:49:030;-0.32561144;9.921572;-0.095768064
14:50:49:148;14:50:49:030;-0.32561144;9.921572;-0.095768064
14:50:49:156;14:50:49:030;-0.32561144;9.921572;-0.095768064
14:50:49:164;14:50:49:160;-0.2873042;10.01734;0.076614454
14:50:49:171;14:50:49:160;-0.2873042;10.01734;0.076614454
14:50:49:179;14:50:49:160;-0.2873042;10.01734;0.076614454
14:50:49:187;14:50:49:160;-0.2873042;10.01734;0.076614454
14:50:49:195;14:50:49:160;-0.2873042;10.01734;0.076614454
14:50:49:203;14:50:49:160;-0.2873042;10.01734;0.076614454
14:50:49:210;14:50:49:160;-0.2873042;10.01734;0.076614454
14:50:49:218;14:50:49:160;-0.2873042;10.01734;0.076614454
14:50:49:226;14:50:49:160;-0.2873042;10.01734;0.076614454
14:50:49:234;14:50:49:160;-0.2873042;10.01734;0.076614454
14:50:49:242;14:50:49:160;-0.2873042;10.01734;0.076614454
14:50:49:250;14:50:49:160;-0.2873042;10.01734;0.076614454
14:50:49:257;14:50:49:160;-0.2873042;10.01734;0.076614454
14:50:49:265;14:50:49:160;-0.2873042;10.01734;0.076614454
14:50:49:273;14:50:49:160;-0.2873042;10.01734;0.076614454
14:50:49:281;14:50:49:278;-0.32561144;10.01734;0.095768064
14:50:49:289;14:50:49:278;-0.32561144;10.01734;0.095768064
14:50:49:296;14:50:49:278;-0.32561144;10.01734;0.095768064
14:50:49:304;14:50:49:278;-0.32561144;10.01734;0.095768064
14:50:49:312;14:50:49:278;-0.32561144;10.01734;0.095768064
14:50:49:320;14:50:49:278;-0.32561144;10.01734;0.095768064
14:50:49:328;14:50:49:278;-0.32561144;10.01734;0.095768064
14:50:49:335;14:50:49:278;-0.32561144;10.01734;0.095768064
14:50:49:343;14:50:49:278;-0.32561144;10.01734;0.095768064
14:50:49:351;14:50:49:278;-0.32561144;10.01734;0.095768064
14:50:49:359;14:50:49:278;-0.32561144;10.01734;0.095768064
14:50:49:367;14:50:49:278;-0.32561144;10.01734;0.095768064
14:50:49:375;14:50:49:278;-0.32561144;10.01734;0.095768064
14:50:49:382;14:50:49:278;-0.32561144;10.01734;0.095768064
14:50:49:390;14:50:49:278;-0.32561144;10.01734;0.095768064
14:50:49:398;14:50:49:395;-0.36391866;10.055647;0.15322891
14:50:49:406;14:50:49:395;-0.36391866;10.055647;0.15322891
14:50:49:414;14:50:49:395;-0.36391866;10.055647;0.15322891
14:50:49:421;14:50:49:395;-0.36391866;10.055647;0.15322891
14:50:49:429;14:50:49:395;-0.36391866;10.055647;0.15322891
14:50:49:437;14:50:49:395;-0.36391866;10.055647;0.15322891
14:50:49:445;14:50:49:395;-0.36391866;10.055647;0.15322891
14:50:49:453;14:50:49:395;-0.36391866;10.055647;0.15322891
14:50:49:460;14:50:49:395;-0.36391866;10.055647;0.15322891
14:50:49:468;14:50:49:395;-0.36391866;10.055647;0.15322891
14:50:49:476;14:50:49:395;-0.36391866;10.055647;0.15322891
14:50:49:484;14:50:49:395;-0.36391866;10.055647;0.15322891
14:50:49:492;14:50:49:395;-0.36391866;10.055647;0.15322891
14:50:49:500;14:50:49:395;-0.36391866;10.055647;0.15322891
14:50:49:507;14:50:49:395;-0.36391866;10.055647;0.15322891
14:50:49:515;14:50:49:513;-0.24899697;10.0748005;-0.019153614
14:50:49:523;14:50:49:513;-0.24899697;10.0748005;-0.019153614
14:50:49:531;14:50:49:513;-0.24899697;10.0748005;-0.019153614
14:50:49:539;14:50:49:513;-0.24899697;10.0748005;-0.019153614
14:50:49:546;14:50:49:513;-0.24899697;10.0748005;-0.019153614
14:50:49:554;14:50:49:513;-0.24899697;10.0748005;-0.019153614
14:50:49:562;14:50:49:513;-0.24899697;10.0748005;-0.019153614
14:50:49:570;14:50:49:513;-0.24899697;10.0748005;-0.019153614
14:50:49:578;14:50:49:513;-0.24899697;10.0748005;-0.019153614
14:50:49:585;14:50:49:513;-0.24899697;10.0748005;-0.019153614
14:50:49:593;14:50:49:513;-0.24899697;10.0748005;-0.019153614
14:50:49:601;14:50:49:513;-0.24899697;10.0748005;-0.019153614
14:50:49:609;14:50:49:513;-0.24899697;10.0748005;-0.019153614
14:50:49:617;14:50:49:513;-0.24899697;10.0748005;-0.019153614
14:50:49:625;14:50:49:513;-0.24899697;10.0748005;-0.019153614
14:50:49:632;14:50:49:632;-0.38307226;9.921572;-0.076614454
14:50:49:640;14:50:49:632;-0.38307226;9.921572;-0.076614454
14:50:49:648;14:50:49:632;-0.38307226;9.921572;-0.076614454
14:50:49:656;14:50:49:632;-0.38307226;9.921572;-0.076614454
14:50:49:664;14:50:49:632;-0.38307226;9.921572;-0.076614454
14:50:49:671;14:50:49:632;-0.38307226;9.921572;-0.076614454
14:50:49:679;14:50:49:632;-0.38307226;9.921572;-0.076614454
14:50:49:687;14:50:49:632;-0.38307226;9.921572;-0.076614454
14:50:49:695;14:50:49:632;-0.38307226;9.921572;-0.076614454
14:50:49:703;14:50:49:632;-0.38307226;9.921572;-0.076614454
14:50:49:710;14:50:49:632;-0.38307226;9.921572;-0.076614454
14:50:49:718;14:50:49:632;-0.38307226;9.921572;-0.076614454
14:50:49:726;14:50:49:632;-0.38307226;9.921572;-0.076614454
14:50:49:734;14:50:49:632;-0.38307226;9.921572;-0.076614454
14:50:49:742;14:50:49:632;-0.38307226;9.921572;-0.076614454
14:50:49:750;14:50:49:750;-0.45968673;9.864111;0.1340753
14:50:49:757;14:50:49:750;-0.45968673;9.864111;0.1340753
14:50:49:765;14:50:49:750;-0.45968673;9.864111;0.1340753
14:50:49:773;14:50:49:750;-0.45968673;9.864111;0.1340753
14:50:49:781;14:50:49:750;-0.45968673;9.864111;0.1340753
14:50:49:789;14:50:49:750;-0.45968673;9.864111;0.1340753
14:50:49:796;14:50:49:750;-0.45968673;9.864111;0.1340753
14:50:49:804;14:50:49:750;-0.45968673;9.864111;0.1340753
14:50:49:812;14:50:49:750;-0.45968673;9.864111;0.1340753
14:50:49:820;14:50:49:750;-0.45968673;9.864111;0.1340753
14:50:49:828;14:50:49:750;-0.45968673;9.864111;0.1340753
14:50:49:835;14:50:49:750;-0.45968673;9.864111;0.1340753
14:50:49:843;14:50:49:750;-0.45968673;9.864111;0.1340753
14:50:49:851;14:50:49:750;-0.45968673;9.864111;0.1340753
14:50:49:859;14:50:49:750;-0.45968673;9.864111;0.1340753
14:50:49:867;14:50:49:867;-0.32561144;9.959879;0.038307227
14:50:49:875;14:50:49:867;-0.32561144;9.959879;0.038307227
14:50:49:882;14:50:49:867;-0.32561144;9.959879;0.038307227
14:50:49:890;14:50:49:867;-0.32561144;9.959879;0.038307227
14:50:49:898;14:50:49:867;-0.32561144;9.959879;0.038307227
14:50:49:906;14:50:49:867;-0.32561144;9.959879;0.038307227
14:50:49:914;14:50:49:867;-0.32561144;9.959879;0.038307227
14:50:49:921;14:50:49:867;-0.32561144;9.959879;0.038307227
14:50:49:929;14:50:49:867;-0.32561144;9.959879;0.038307227
14:50:49:937;14:50:49:867;-0.32561144;9.959879;0.038307227
14:50:49:945;14:50:49:867;-0.32561144;9.959879;0.038307227
14:50:49:953;14:50:49:867;-0.32561144;9.959879;0.038307227
14:50:49:960;14:50:49:867;-0.32561144;9.959879;0.038307227
14:50:49:968;14:50:49:867;-0.32561144;9.959879;0.038307227
14:50:49:976;14:50:49:867;-0.32561144;9.959879;0.038307227
14:50:49:984;14:50:49:867;-0.32561144;9.959879;0.038307227
14:50:49:992;14:50:49:988;-0.2681506;10.036493;-0.076614454
14:50:50:000;14:50:49:988;-0.2681506;10.036493;-0.076614454
14:50:50:007;14:50:49:988;-0.2681506;10.036493;-0.076614454
14:50:50:015;14:50:49:988;-0.2681506;10.036493;-0.076614454
14:50:50:023;14:50:49:988;-0.2681506;10.036493;-0.076614454
14:50:50:031;14:50:49:988;-0.2681506;10.036493;-0.076614454
14:50:50:039;14:50:49:988;-0.2681506;10.036493;-0.076614454
14:50:50:046;14:50:49:988;-0.2681506;10.036493;-0.076614454
14:50:50:054;14:50:49:988;-0.2681506;10.036493;-0.076614454
14:50:50:062;14:50:49:988;-0.2681506;10.036493;-0.076614454
14:50:50:070;14:50:49:988;-0.2681506;10.036493;-0.076614454
14:50:50:078;14:50:49:988;-0.2681506;10.036493;-0.076614454
14:50:50:085;14:50:49:988;-0.2681506;10.036493;-0.076614454
14:50:50:093;14:50:49:988;-0.2681506;10.036493;-0.076614454
14:50:50:101;14:50:49:988;-0.2681506;10.036493;-0.076614454
14:50:50:109;14:50:50:105;-0.30645782;10.132261;0.05746084
14:50:50:117;14:50:50:105;-0.30645782;10.132261;0.05746084
14:50:50:125;14:50:50:105;-0.30645782;10.132261;0.05746084
14:50:50:132;14:50:50:105;-0.30645782;10.132261;0.05746084
14:50:50:140;14:50:50:105;-0.30645782;10.132261;0.05746084
14:50:50:148;14:50:50:105;-0.30645782;10.132261;0.05746084
14:50:50:156;14:50:50:105;-0.30645782;10.132261;0.05746084
14:50:50:164;14:50:50:105;-0.30645782;10.132261;0.05746084
14:50:50:171;14:50:50:105;-0.30645782;10.132261;0.05746084
14:50:50:179;14:50:50:105;-0.30645782;10.132261;0.05746084
14:50:50:187;14:50:50:105;-0.30645782;10.132261;0.05746084
14:50:50:195;14:50:50:105;-0.30645782;10.132261;0.05746084
14:50:50:203;14:50:50:105;-0.30645782;10.132261;0.05746084
14:50:50:210;14:50:50:206;-0.2681506;10.113108;-0.038307227
14:50:50:218;14:50:50:206;-0.2681506;10.113108;-0.038307227
14:50:50:226;14:50:50:206;-0.2681506;10.113108;-0.038307227
14:50:50:234;14:50:50:206;-0.2681506;10.113108;-0.038307227
14:50:50:242;14:50:50:206;-0.2681506;10.113108;-0.038307227
14:50:50:250;14:50:50:206;-0.2681506;10.113108;-0.038307227
14:50:50:257;14:50:50:206;-0.2681506;10.113108;-0.038307227
14:50:50:265;14:50:50:206;-0.2681506;10.113108;-0.038307227
14:50:50:273;14:50:50:206;-0.2681506;10.113108;-0.038307227
14:50:50:281;14:50:50:206;-0.2681506;10.113108;-0.038307227
14:50:50:289;14:50:50:206;-0.2681506;10.113108;-0.038307227
14:50:50:296;14:50:50:206;-0.2681506;10.113108;-0.038307227
14:50:50:304;14:50:50:206;-0.2681506;10.113108;-0.038307227
14:50:50:312;14:50:50:206;-0.2681506;10.113108;-0.038307227
14:50:50:320;14:50:50:313;-0.2873042;10.151415;0.095768064
14:50:50:328;14:50:50:313;-0.2873042;10.151415;0.095768064
14:50:50:335;14:50:50:313;-0.2873042;10.151415;0.095768064
14:50:50:343;14:50:50:313;-0.2873042;10.151415;0.095768064
14:50:50:351;14:50:50:313;-0.2873042;10.151415;0.095768064
14:50:50:359;14:50:50:313;-0.2873042;10.151415;0.095768064
14:50:50:367;14:50:50:313;-0.2873042;10.151415;0.095768064
14:50:50:375;14:50:50:313;-0.2873042;10.151415;0.095768064
14:50:50:382;14:50:50:313;-0.2873042;10.151415;0.095768064
14:50:50:390;14:50:50:313;-0.2873042;10.151415;0.095768064
14:50:50:398;14:50:50:313;-0.2873042;10.151415;0.095768064
14:50:50:406;14:50:50:313;-0.2873042;10.151415;0.095768064
14:50:50:414;14:50:50:414;-0.36391866;10.036493;0.019153614
14:50:50:421;14:50:50:414;-0.36391866;10.036493;0.019153614
14:50:50:429;14:50:50:414;-0.36391866;10.036493;0.019153614
14:50:50:437;14:50:50:414;-0.36391866;10.036493;0.019153614
14:50:50:445;14:50:50:414;-0.36391866;10.036493;0.019153614
14:50:50:453;14:50:50:414;-0.36391866;10.036493;0.019153614
14:50:50:460;14:50:50:414;-0.36391866;10.036493;0.019153614
14:50:50:468;14:50:50:414;-0.36391866;10.036493;0.019153614
14:50:50:476;14:50:50:414;-0.36391866;10.036493;0.019153614
14:50:50:484;14:50:50:414;-0.36391866;10.036493;0.019153614
14:50:50:492;14:50:50:414;-0.36391866;10.036493;0.019153614
14:50:50:500;14:50:50:414;-0.36391866;10.036493;0.019153614
14:50:50:507;14:50:50:414;-0.36391866;10.036493;0.019153614
14:50:50:515;14:50:50:414;-0.36391866;10.036493;0.019153614
14:50:50:523;14:50:50:414;-0.36391866;10.036493;0.019153614
14:50:50:531;14:50:50:414;-0.36391866;10.036493;0.019153614
14:50:50:539;14:50:50:414;-0.36391866;10.036493;0.019153614
14:50:50:546;14:50:50:414;-0.36391866;10.036493;0.019153614
14:50:50:554;14:50:50:414;-0.36391866;10.036493;0.019153614
14:50:50:562;14:50:50:414;-0.36391866;10.036493;0.019153614
14:50:50:570;14:50:50:414;-0.36391866;10.036493;0.019153614
14:50:50:578;14:50:50:574;-0.22984336;9.940725;0.038307227
14:50:50:585;14:50:50:574;-0.22984336;9.940725;0.038307227
14:50:50:593;14:50:50:574;-0.22984336;9.940725;0.038307227
14:50:50:601;14:50:50:574;-0.22984336;9.940725;0.038307227
14:50:50:609;14:50:50:574;-0.22984336;9.940725;0.038307227
14:50:50:617;14:50:50:574;-0.22984336;9.940725;0.038307227
14:50:50:625;14:50:50:574;-0.22984336;9.940725;0.038307227
14:50:50:632;14:50:50:574;-0.22984336;9.940725;0.038307227
14:50:50:640;14:50:50:574;-0.22984336;9.940725;0.038307227
14:50:50:648;14:50:50:574;-0.22984336;9.940725;0.038307227
14:50:50:656;14:50:50:574;-0.22984336;9.940725;0.038307227
14:50:50:664;14:50:50:574;-0.22984336;9.940725;0.038307227
14:50:50:671;14:50:50:574;-0.22984336;9.940725;0.038307227
14:50:50:679;14:50:50:574;-0.22984336;9.940725;0.038307227
14:50:50:687;14:50:50:574;-0.22984336;9.940725;0.038307227
14:50:50:695;14:50:50:688;-0.24899697;10.093954;0.038307227
14:50:50:703;14:50:50:688;-0.24899697;10.093954;0.038307227
14:50:50:710;14:50:50:688;-0.24899697;10.093954;0.038307227
14:50:50:718;14:50:50:688;-0.24899697;10.093954;0.038307227
14:50:50:726;14:50:50:688;-0.24899697;10.093954;0.038307227
14:50:50:734;14:50:50:688;-0.24899697;10.093954;0.038307227
14:50:50:742;14:50:50:688;-0.24899697;10.093954;0.038307227
14:50:50:750;14:50:50:688;-0.24899697;10.093954;0.038307227
14:50:50:757;14:50:50:688;-0.24899697;10.093954;0.038307227
14:50:50:765;14:50:50:688;-0.24899697;10.093954;0.038307227
14:50:50:773;14:50:50:688;-0.24899697;10.093954;0.038307227
14:50:50:781;14:50:50:688;-0.24899697;10.093954;0.038307227
14:50:50:789;14:50:50:688;-0.24899697;10.093954;0.038307227
14:50:50:796;14:50:50:794;-0.30645782;9.959879;0.05746084
14:50:50:804;14:50:50:794;-0.30645782;9.959879;0.05746084
14:50:50:812;14:50:50:794;-0.30645782;9.959879;0.05746084
14:50:50:820;14:50:50:794;-0.30645782;9.959879;0.05746084
14:50:50:828;14:50:50:794;-0.30645782;9.959879;0.05746084
14:50:50:835;14:50:50:794;-0.30645782;9.959879;0.05746084
14:50:50:843;14:50:50:794;-0.30645782;9.959879;0.05746084
14:50:50:851;14:50:50:794;-0.30645782;9.959879;0.05746084
14:50:50:859;14:50:50:794;-0.30645782;9.959879;0.05746084
14:50:50:867;14:50:50:794;-0.30645782;9.959879;0.05746084
14:50:50:875;14:50:50:794;-0.30645782;9.959879;0.05746084
14:50:50:882;14:50:50:794;-0.30645782;9.959879;0.05746084
14:50:50:890;14:50:50:794;-0.30645782;9.959879;0.05746084
14:50:50:898;14:50:50:794;-0.30645782;9.959879;0.05746084
14:50:50:906;14:50:50:794;-0.30645782;9.959879;0.05746084
14:50:50:914;14:50:50:911;-0.4213795;9.959879;0.22984336
14:50:50:921;14:50:50:911;-0.4213795;9.959879;0.22984336
14:50:50:929;14:50:50:911;-0.4213795;9.959879;0.22984336
14:50:50:937;14:50:50:911;-0.4213795;9.959879;0.22984336
14:50:50:945;14:50:50:911;-0.4213795;9.959879;0.22984336
14:50:50:953;14:50:50:911;-0.4213795;9.959879;0.22984336
14:50:50:960;14:50:50:911;-0.4213795;9.959879;0.22984336
14:50:50:968;14:50:50:911;-0.4213795;9.959879;0.22984336
14:50:50:976;14:50:50:911;-0.4213795;9.959879;0.22984336
14:50:50:984;14:50:50:911;-0.4213795;9.959879;0.22984336
14:50:50:992;14:50:50:911;-0.4213795;9.959879;0.22984336
14:50:51:000;14:50:50:911;-0.4213795;9.959879;0.22984336
14:50:51:007;14:50:50:911;-0.4213795;9.959879;0.22984336
14:50:51:015;14:50:50:911;-0.4213795;9.959879;0.22984336
14:50:51:023;14:50:50:911;-0.4213795;9.959879;0.22984336
14:50:51:031;14:50:50:911;-0.4213795;9.959879;0.22984336
14:50:51:039;14:50:50:911;-0.4213795;9.959879;0.22984336
14:50:51:046;14:50:51:043;-0.2873042;9.959879;0.36391866
14:50:51:054;14:50:51:043;-0.2873042;9.959879;0.36391866
14:50:51:062;14:50:51:043;-0.2873042;9.959879;0.36391866
14:50:51:070;14:50:51:043;-0.2873042;9.959879;0.36391866
14:50:51:078;14:50:51:043;-0.2873042;9.959879;0.36391866
14:50:51:085;14:50:51:043;-0.2873042;9.959879;0.36391866
14:50:51:093;14:50:51:043;-0.2873042;9.959879;0.36391866
14:50:51:101;14:50:51:043;-0.2873042;9.959879;0.36391866
14:50:51:109;14:50:51:043;-0.2873042;9.959879;0.36391866
14:50:51:117;14:50:51:043;-0.2873042;9.959879;0.36391866
14:50:51:125;14:50:51:043;-0.2873042;9.959879;0.36391866
14:50:51:132;14:50:51:043;-0.2873042;9.959879;0.36391866
14:50:51:140;14:50:51:043;-0.2873042;9.959879;0.36391866
14:50:51:148;14:50:51:148;-0.2681506;9.921572;0.24899697
14:50:51:156;14:50:51:148;-0.2681506;9.921572;0.24899697
14:50:51:164;14:50:51:148;-0.2681506;9.921572;0.24899697
14:50:51:171;14:50:51:148;-0.2681506;9.921572;0.24899697
14:50:51:179;14:50:51:148;-0.2681506;9.921572;0.24899697
14:50:51:187;14:50:51:148;-0.2681506;9.921572;0.24899697
14:50:51:195;14:50:51:148;-0.2681506;9.921572;0.24899697
14:50:51:203;14:50:51:148;-0.2681506;9.921572;0.24899697
14:50:51:210;14:50:51:148;-0.2681506;9.921572;0.24899697
14:50:51:218;14:50:51:148;-0.2681506;9.921572;0.24899697
14:50:51:226;14:50:51:148;-0.2681506;9.921572;0.24899697
14:50:51:234;14:50:51:148;-0.2681506;9.921572;0.24899697
14:50:51:242;14:50:51:148;-0.2681506;9.921572;0.24899697
14:50:51:250;14:50:51:148;-0.2681506;9.921572;0.24899697
14:50:51:257;14:50:51:148;-0.2681506;9.921572;0.24899697
14:50:51:265;14:50:51:148;-0.2681506;9.921572;0.24899697
14:50:51:273;14:50:51:148;-0.2681506;9.921572;0.24899697
14:50:51:281;14:50:51:275;-0.2873042;10.151415;0.17238252
14:50:51:289;14:50:51:275;-0.2873042;10.151415;0.17238252
14:50:51:296;14:50:51:275;-0.2873042;10.151415;0.17238252
14:50:51:304;14:50:51:275;-0.2873042;10.151415;0.17238252
14:50:51:312;14:50:51:275;-0.2873042;10.151415;0.17238252
14:50:51:320;14:50:51:275;-0.2873042;10.151415;0.17238252
14:50:51:328;14:50:51:275;-0.2873042;10.151415;0.17238252
14:50:51:335;14:50:51:275;-0.2873042;10.151415;0.17238252
14:50:51:343;14:50:51:275;-0.2873042;10.151415;0.17238252
14:50:51:351;14:50:51:275;-0.2873042;10.151415;0.17238252
14:50:51:359;14:50:51:275;-0.2873042;10.151415;0.17238252
14:50:51:367;14:50:51:275;-0.2873042;10.151415;0.17238252
14:50:51:375;14:50:51:275;-0.2873042;10.151415;0.17238252
14:50:51:382;14:50:51:376;-0.2681506;9.9790325;0.019153614
14:50:51:390;14:50:51:376;-0.2681506;9.9790325;0.019153614
14:50:51:398;14:50:51:376;-0.2681506;9.9790325;0.019153614
14:50:51:406;14:50:51:376;-0.2681506;9.9790325;0.019153614
14:50:51:414;14:50:51:376;-0.2681506;9.9790325;0.019153614
14:50:51:421;14:50:51:376;-0.2681506;9.9790325;0.019153614
14:50:51:429;14:50:51:376;-0.2681506;9.9790325;0.019153614
14:50:51:437;14:50:51:376;-0.2681506;9.9790325;0.019153614
14:50:51:445;14:50:51:376;-0.2681506;9.9790325;0.019153614
14:50:51:453;14:50:51:376;-0.2681506;9.9790325;0.019153614
14:50:51:460;14:50:51:376;-0.2681506;9.9790325;0.019153614
14:50:51:468;14:50:51:376;-0.2681506;9.9790325;0.019153614
14:50:51:476;14:50:51:376;-0.2681506;9.9790325;0.019153614
14:50:51:484;14:50:51:376;-0.2681506;9.9790325;0.019153614
14:50:51:492;14:50:51:376;-0.2681506;9.9790325;0.019153614
14:50:51:500;14:50:51:497;-0.34476504;10.055647;-0.19153613
14:50:51:507;14:50:51:497;-0.34476504;10.055647;-0.19153613
14:50:51:515;14:50:51:497;-0.34476504;10.055647;-0.19153613
14:50:51:523;14:50:51:497;-0.34476504;10.055647;-0.19153613
14:50:51:531;14:50:51:497;-0.34476504;10.055647;-0.19153613
14:50:51:539;14:50:51:497;-0.34476504;10.055647;-0.19153613
14:50:51:546;14:50:51:497;-0.34476504;10.055647;-0.19153613
14:50:51:554;14:50:51:497;-0.34476504;10.055647;-0.19153613
14:50:51:562;14:50:51:497;-0.34476504;10.055647;-0.19153613
14:50:51:570;14:50:51:497;-0.34476504;10.055647;-0.19153613
14:50:51:578;14:50:51:497;-0.34476504;10.055647;-0.19153613
14:50:51:585;14:50:51:497;-0.34476504;10.055647;-0.19153613
14:50:51:593;14:50:51:497;-0.34476504;10.055647;-0.19153613
14:50:51:601;14:50:51:497;-0.34476504;10.055647;-0.19153613
14:50:51:609;14:50:51:497;-0.34476504;10.055647;-0.19153613
14:50:51:617;14:50:51:611;-0.38307226;10.01734;-0.24899697
14:50:51:625;14:50:51:611;-0.38307226;10.01734;-0.24899697
14:50:51:632;14:50:51:611;-0.38307226;10.01734;-0.24899697
14:50:51:640;14:50:51:611;-0.38307226;10.01734;-0.24899697
14:50:51:648;14:50:51:611;-0.38307226;10.01734;-0.24899697
14:50:51:656;14:50:51:611;-0.38307226;10.01734;-0.24899697
14:50:51:664;14:50:51:611;-0.38307226;10.01734;-0.24899697
14:50:51:671;14:50:51:611;-0.38307226;10.01734;-0.24899697
14:50:51:679;14:50:51:611;-0.38307226;10.01734;-0.24899697
14:50:51:687;14:50:51:611;-0.38307226;10.01734;-0.24899697
14:50:51:695;14:50:51:611;-0.38307226;10.01734;-0.24899697
14:50:51:703;14:50:51:611;-0.38307226;10.01734;-0.24899697
14:50:51:710;14:50:51:611;-0.38307226;10.01734;-0.24899697
14:50:51:718;14:50:51:611;-0.38307226;10.01734;-0.24899697
14:50:51:726;14:50:51:611;-0.38307226;10.01734;-0.24899697
14:50:51:734;14:50:51:727;-0.36391866;9.998186;-0.22984336
14:50:51:742;14:50:51:727;-0.36391866;9.998186;-0.22984336
14:50:51:750;14:50:51:727;-0.36391866;9.998186;-0.22984336
14:50:51:757;14:50:51:727;-0.36391866;9.998186;-0.22984336
14:50:51:765;14:50:51:727;-0.36391866;9.998186;-0.22984336
14:50:51:773;14:50:51:727;-0.36391866;9.998186;-0.22984336
14:50:51:781;14:50:51:727;-0.36391866;9.998186;-0.22984336
14:50:51:789;14:50:51:727;-0.36391866;9.998186;-0.22984336
14:50:51:796;14:50:51:727;-0.36391866;9.998186;-0.22984336
14:50:51:804;14:50:51:727;-0.36391866;9.998186;-0.22984336
14:50:51:812;14:50:51:727;-0.36391866;9.998186;-0.22984336
14:50:51:820;14:50:51:727;-0.36391866;9.998186;-0.22984336
14:50:51:828;14:50:51:727;-0.36391866;9.998186;-0.22984336
14:50:51:835;14:50:51:727;-0.36391866;9.998186;-0.22984336
14:50:51:843;14:50:51:727;-0.36391866;9.998186;-0.22984336
14:50:51:851;14:50:51:846;-0.22984336;9.998186;-0.019153614
14:50:51:859;14:50:51:846;-0.22984336;9.998186;-0.019153614
14:50:51:867;14:50:51:846;-0.22984336;9.998186;-0.019153614
14:50:51:875;14:50:51:846;-0.22984336;9.998186;-0.019153614
14:50:51:882;14:50:51:846;-0.22984336;9.998186;-0.019153614
14:50:51:890;14:50:51:846;-0.22984336;9.998186;-0.019153614
14:50:51:898;14:50:51:846;-0.22984336;9.998186;-0.019153614
14:50:51:906;14:50:51:846;-0.22984336;9.998186;-0.019153614
14:50:51:914;14:50:51:846;-0.22984336;9.998186;-0.019153614
14:50:51:921;14:50:51:846;-0.22984336;9.998186;-0.019153614
14:50:51:929;14:50:51:846;-0.22984336;9.998186;-0.019153614
14:50:51:937;14:50:51:846;-0.22984336;9.998186;-0.019153614
14:50:51:945;14:50:51:846;-0.22984336;9.998186;-0.019153614
14:50:51:953;14:50:51:948;-0.24899697;10.01734;0.1340753
14:50:51:960;14:50:51:948;-0.24899697;10.01734;0.1340753
14:50:51:968;14:50:51:948;-0.24899697;10.01734;0.1340753
14:50:51:976;14:50:51:948;-0.24899697;10.01734;0.1340753
14:50:51:984;14:50:51:948;-0.24899697;10.01734;0.1340753
14:50:51:992;14:50:51:948;-0.24899697;10.01734;0.1340753
14:50:52:000;14:50:51:948;-0.24899697;10.01734;0.1340753
14:50:52:007;14:50:51:948;-0.24899697;10.01734;0.1340753
14:50:52:015;14:50:51:948;-0.24899697;10.01734;0.1340753
14:50:52:023;14:50:51:948;-0.24899697;10.01734;0.1340753
14:50:52:031;14:50:51:948;-0.24899697;10.01734;0.1340753
14:50:52:039;14:50:51:948;-0.24899697;10.01734;0.1340753
14:50:52:046;14:50:51:948;-0.24899697;10.01734;0.1340753
14:50:52:054;14:50:51:948;-0.24899697;10.01734;0.1340753
14:50:52:062;14:50:51:948;-0.24899697;10.01734;0.1340753
14:50:52:070;14:50:52:065;-0.45968673;9.825804;0.11492168
14:50:52:078;14:50:52:065;-0.45968673;9.825804;0.11492168
14:50:52:085;14:50:52:065;-0.45968673;9.825804;0.11492168
14:50:52:093;14:50:52:065;-0.45968673;9.825804;0.11492168
14:50:52:101;14:50:52:065;-0.45968673;9.825804;0.11492168
14:50:52:109;14:50:52:065;-0.45968673;9.825804;0.11492168
14:50:52:117;14:50:52:065;-0.45968673;9.825804;0.11492168
14:50:52:125;14:50:52:065;-0.45968673;9.825804;0.11492168
14:50:52:132;14:50:52:065;-0.45968673;9.825804;0.11492168
14:50:52:140;14:50:52:065;-0.45968673;9.825804;0.11492168
14:50:52:148;14:50:52:065;-0.45968673;9.825804;0.11492168
14:50:52:156;14:50:52:065;-0.45968673;9.825804;0.11492168
14:50:52:164;14:50:52:065;-0.45968673;9.825804;0.11492168
14:50:52:171;14:50:52:065;-0.45968673;9.825804;0.11492168
14:50:52:179;14:50:52:065;-0.45968673;9.825804;0.11492168
14:50:52:187;14:50:52:065;-0.45968673;9.825804;0.11492168
14:50:52:195;14:50:52:194;-0.2681506;9.883265;0.19153613
14:50:52:203;14:50:52:194;-0.2681506;9.883265;0.19153613
14:50:52:210;14:50:52:194;-0.2681506;9.883265;0.19153613
14:50:52:218;14:50:52:194;-0.2681506;9.883265;0.19153613
14:50:52:226;14:50:52:194;-0.2681506;9.883265;0.19153613
14:50:52:234;14:50:52:194;-0.2681506;9.883265;0.19153613
14:50:52:242;14:50:52:194;-0.2681506;9.883265;0.19153613
14:50:52:250;14:50:52:194;-0.2681506;9.883265;0.19153613
14:50:52:257;14:50:52:194;-0.2681506;9.883265;0.19153613
14:50:52:265;14:50:52:194;-0.2681506;9.883265;0.19153613
14:50:52:273;14:50:52:194;-0.2681506;9.883265;0.19153613
14:50:52:281;14:50:52:194;-0.2681506;9.883265;0.19153613
14:50:52:289;14:50:52:194;-0.2681506;9.883265;0.19153613
14:50:52:296;14:50:52:295;-0.32561144;10.0748005;0.019153614
14:50:52:304;14:50:52:295;-0.32561144;10.0748005;0.019153614
14:50:52:312;14:50:52:295;-0.32561144;10.0748005;0.019153614
14:50:52:320;14:50:52:295;-0.32561144;10.0748005;0.019153614
14:50:52:328;14:50:52:295;-0.32561144;10.0748005;0.019153614
14:50:52:335;14:50:52:295;-0.32561144;10.0748005;0.019153614
14:50:52:343;14:50:52:295;-0.32561144;10.0748005;0.019153614
14:50:52:351;14:50:52:295;-0.32561144;10.0748005;0.019153614
14:50:52:359;14:50:52:295;-0.32561144;10.0748005;0.019153614
14:50:52:367;14:50:52:295;-0.32561144;10.0748005;0.019153614
14:50:52:375;14:50:52:295;-0.32561144;10.0748005;0.019153614
14:50:52:382;14:50:52:295;-0.32561144;10.0748005;0.019153614
14:50:52:390;14:50:52:295;-0.32561144;10.0748005;0.019153614
14:50:52:398;14:50:52:295;-0.32561144;10.0748005;0.019153614
14:50:52:406;14:50:52:402;-0.38307226;9.9790325;0.11492168
14:50:52:414;14:50:52:402;-0.38307226;9.9790325;0.11492168
14:50:52:421;14:50:52:402;-0.38307226;9.9790325;0.11492168
14:50:52:429;14:50:52:402;-0.38307226;9.9790325;0.11492168
14:50:52:437;14:50:52:402;-0.38307226;9.9790325;0.11492168
14:50:52:445;14:50:52:402;-0.38307226;9.9790325;0.11492168
14:50:52:453;14:50:52:402;-0.38307226;9.9790325;0.11492168
14:50:52:460;14:50:52:402;-0.38307226;9.9790325;0.11492168
14:50:52:468;14:50:52:402;-0.38307226;9.9790325;0.11492168
14:50:52:476;14:50:52:402;-0.38307226;9.9790325;0.11492168
14:50:52:484;14:50:52:402;-0.38307226;9.9790325;0.11492168
14:50:52:492;14:50:52:402;-0.38307226;9.9790325;0.11492168
14:50:52:500;14:50:52:402;-0.38307226;9.9790325;0.11492168
14:50:52:507;14:50:52:402;-0.38307226;9.9790325;0.11492168
14:50:52:515;14:50:52:402;-0.38307226;9.9790325;0.11492168
14:50:52:523;14:50:52:520;-0.36391866;9.9790325;-0.19153613
14:50:52:531;14:50:52:520;-0.36391866;9.9790325;-0.19153613
14:50:52:539;14:50:52:520;-0.36391866;9.9790325;-0.19153613
14:50:52:546;14:50:52:520;-0.36391866;9.9790325;-0.19153613
14:50:52:554;14:50:52:520;-0.36391866;9.9790325;-0.19153613
14:50:52:562;14:50:52:520;-0.36391866;9.9790325;-0.19153613
14:50:52:570;14:50:52:520;-0.36391866;9.9790325;-0.19153613
14:50:52:578;14:50:52:520;-0.36391866;9.9790325;-0.19153613
14:50:52:585;14:50:52:520;-0.36391866;9.9790325;-0.19153613
14:50:52:593;14:50:52:520;-0.36391866;9.9790325;-0.19153613
14:50:52:601;14:50:52:520;-0.36391866;9.9790325;-0.19153613
14:50:52:609;14:50:52:520;-0.36391866;9.9790325;-0.19153613
14:50:52:617;14:50:52:520;-0.36391866;9.9790325;-0.19153613
14:50:52:625;14:50:52:520;-0.36391866;9.9790325;-0.19153613
14:50:52:632;14:50:52:520;-0.36391866;9.9790325;-0.19153613
14:50:52:640;14:50:52:638;-0.36391866;10.01734;-0.1340753
14:50:52:648;14:50:52:638;-0.36391866;10.01734;-0.1340753
14:50:52:656;14:50:52:638;-0.36391866;10.01734;-0.1340753
14:50:52:664;14:50:52:638;-0.36391866;10.01734;-0.1340753
14:50:52:671;14:50:52:638;-0.36391866;10.01734;-0.1340753
14:50:52:679;14:50:52:638;-0.36391866;10.01734;-0.1340753
14:50:52:687;14:50:52:638;-0.36391866;10.01734;-0.1340753
14:50:52:695;14:50:52:638;-0.36391866;10.01734;-0.1340753
14:50:52:703;14:50:52:638;-0.36391866;10.01734;-0.1340753
14:50:52:710;14:50:52:638;-0.36391866;10.01734;-0.1340753
14:50:52:718;14:50:52:638;-0.36391866;10.01734;-0.1340753
14:50:52:726;14:50:52:638;-0.36391866;10.01734;-0.1340753
14:50:52:734;14:50:52:638;-0.36391866;10.01734;-0.1340753
14:50:52:742;14:50:52:638;-0.36391866;10.01734;-0.1340753
14:50:52:750;14:50:52:638;-0.36391866;10.01734;-0.1340753
14:50:52:757;14:50:52:757;-0.32561144;9.9790325;-0.11492168
14:50:52:765;14:50:52:757;-0.32561144;9.9790325;-0.11492168
14:50:52:773;14:50:52:757;-0.32561144;9.9790325;-0.11492168
14:50:52:781;14:50:52:757;-0.32561144;9.9790325;-0.11492168
14:50:52:789;14:50:52:757;-0.32561144;9.9790325;-0.11492168
14:50:52:796;14:50:52:757;-0.32561144;9.9790325;-0.11492168
14:50:52:804;14:50:52:757;-0.32561144;9.9790325;-0.11492168
14:50:52:812;14:50:52:757;-0.32561144;9.9790325;-0.11492168
14:50:52:820;14:50:52:757;-0.32561144;9.9790325;-0.11492168
14:50:52:828;14:50:52:757;-0.32561144;9.9790325;-0.11492168
14:50:52:835;14:50:52:757;-0.32561144;9.9790325;-0.11492168
14:50:52:843;14:50:52:757;-0.32561144;9.9790325;-0.11492168
14:50:52:851;14:50:52:757;-0.32561144;9.9790325;-0.11492168
14:50:52:859;14:50:52:857;-0.4405331;9.998186;0.076614454
14:50:52:867;14:50:52:857;-0.4405331;9.998186;0.076614454
14:50:52:875;14:50:52:857;-0.4405331;9.998186;0.076614454
14:50:52:882;14:50:52:857;-0.4405331;9.998186;0.076614454
14:50:52:890;14:50:52:857;-0.4405331;9.998186;0.076614454
14:50:52:898;14:50:52:857;-0.4405331;9.998186;0.076614454
14:50:52:906;14:50:52:857;-0.4405331;9.998186;0.076614454
14:50:52:914;14:50:52:857;-0.4405331;9.998186;0.076614454
14:50:52:921;14:50:52:857;-0.4405331;9.998186;0.076614454
14:50:52:929;14:50:52:857;-0.4405331;9.998186;0.076614454
14:50:52:937;14:50:52:857;-0.4405331;9.998186;0.076614454
14:50:52:945;14:50:52:857;-0.4405331;9.998186;0.076614454
14:50:52:953;14:50:52:857;-0.4405331;9.998186;0.076614454
14:50:52:960;14:50:52:857;-0.4405331;9.998186;0.076614454
14:50:52:968;14:50:52:965;-0.2681506;10.055647;0.11492168
14:50:52:976;14:50:52:965;-0.2681506;10.055647;0.11492168
14:50:52:984;14:50:52:965;-0.2681506;10.055647;0.11492168
14:50:52:992;14:50:52:965;-0.2681506;10.055647;0.11492168
14:50:53:000;14:50:52:965;-0.2681506;10.055647;0.11492168
14:50:53:007;14:50:52:965;-0.2681506;10.055647;0.11492168
14:50:53:015;14:50:52:965;-0.2681506;10.055647;0.11492168
14:50:53:023;14:50:52:965;-0.2681506;10.055647;0.11492168
14:50:53:031;14:50:52:965;-0.2681506;10.055647;0.11492168
14:50:53:039;14:50:52:965;-0.2681506;10.055647;0.11492168
14:50:53:046;14:50:52:965;-0.2681506;10.055647;0.11492168
14:50:53:054;14:50:52:965;-0.2681506;10.055647;0.11492168
14:50:53:062;14:50:52:965;-0.2681506;10.055647;0.11492168
14:50:53:070;14:50:52:965;-0.2681506;10.055647;0.11492168
14:50:53:078;14:50:52:965;-0.2681506;10.055647;0.11492168
14:50:53:085;14:50:53:084;-0.38307226;10.055647;-0.019153614
14:50:53:093;14:50:53:084;-0.38307226;10.055647;-0.019153614
14:50:53:101;14:50:53:084;-0.38307226;10.055647;-0.019153614
14:50:53:109;14:50:53:084;-0.38307226;10.055647;-0.019153614
14:50:53:117;14:50:53:084;-0.38307226;10.055647;-0.019153614
14:50:53:125;14:50:53:084;-0.38307226;10.055647;-0.019153614
14:50:53:132;14:50:53:084;-0.38307226;10.055647;-0.019153614
14:50:53:140;14:50:53:084;-0.38307226;10.055647;-0.019153614
14:50:53:148;14:50:53:084;-0.38307226;10.055647;-0.019153614
14:50:53:156;14:50:53:084;-0.38307226;10.055647;-0.019153614
14:50:53:164;14:50:53:084;-0.38307226;10.055647;-0.019153614
14:50:53:171;14:50:53:084;-0.38307226;10.055647;-0.019153614
14:50:53:179;14:50:53:084;-0.38307226;10.055647;-0.019153614
14:50:53:187;14:50:53:084;-0.38307226;10.055647;-0.019153614
14:50:53:195;14:50:53:084;-0.38307226;10.055647;-0.019153614
14:50:53:203;14:50:53:084;-0.38307226;10.055647;-0.019153614
14:50:53:210;14:50:53:209;-0.40222588;10.036493;-0.019153614
14:50:53:218;14:50:53:209;-0.40222588;10.036493;-0.019153614
14:50:53:226;14:50:53:209;-0.40222588;10.036493;-0.019153614
14:50:53:234;14:50:53:209;-0.40222588;10.036493;-0.019153614
14:50:53:242;14:50:53:209;-0.40222588;10.036493;-0.019153614
14:50:53:250;14:50:53:209;-0.40222588;10.036493;-0.019153614
14:50:53:257;14:50:53:209;-0.40222588;10.036493;-0.019153614
14:50:53:265;14:50:53:209;-0.40222588;10.036493;-0.019153614
14:50:53:273;14:50:53:209;-0.40222588;10.036493;-0.019153614
14:50:53:281;14:50:53:209;-0.40222588;10.036493;-0.019153614
14:50:53:289;14:50:53:209;-0.40222588;10.036493;-0.019153614
14:50:53:296;14:50:53:209;-0.40222588;10.036493;-0.019153614
14:50:53:304;14:50:53:209;-0.40222588;10.036493;-0.019153614
14:50:53:312;14:50:53:310;-0.34476504;10.055647;0.1340753
14:50:53:320;14:50:53:310;-0.34476504;10.055647;0.1340753
14:50:53:328;14:50:53:310;-0.34476504;10.055647;0.1340753
14:50:53:335;14:50:53:310;-0.34476504;10.055647;0.1340753
14:50:53:343;14:50:53:310;-0.34476504;10.055647;0.1340753
14:50:53:351;14:50:53:310;-0.34476504;10.055647;0.1340753
14:50:53:359;14:50:53:310;-0.34476504;10.055647;0.1340753
14:50:53:367;14:50:53:310;-0.34476504;10.055647;0.1340753
14:50:53:375;14:50:53:310;-0.34476504;10.055647;0.1340753
14:50:53:382;14:50:53:310;-0.34476504;10.055647;0.1340753
14:50:53:390;14:50:53:310;-0.34476504;10.055647;0.1340753
14:50:53:398;14:50:53:310;-0.34476504;10.055647;0.1340753
14:50:53:406;14:50:53:310;-0.34476504;10.055647;0.1340753
14:50:53:414;14:50:53:310;-0.34476504;10.055647;0.1340753
14:50:53:421;14:50:53:310;-0.34476504;10.055647;0.1340753
14:50:53:429;14:50:53:310;-0.34476504;10.055647;0.1340753
14:50:53:437;14:50:53:432;-0.2681506;10.01734;0.019153614
14:50:53:445;14:50:53:432;-0.2681506;10.01734;0.019153614
14:50:53:453;14:50:53:432;-0.2681506;10.01734;0.019153614
14:50:53:460;14:50:53:432;-0.2681506;10.01734;0.019153614
14:50:53:468;14:50:53:432;-0.2681506;10.01734;0.019153614
14:50:53:476;14:50:53:432;-0.2681506;10.01734;0.019153614
14:50:53:484;14:50:53:432;-0.2681506;10.01734;0.019153614
14:50:53:492;14:50:53:432;-0.2681506;10.01734;0.019153614
14:50:53:500;14:50:53:432;-0.2681506;10.01734;0.019153614
14:50:53:507;14:50:53:432;-0.2681506;10.01734;0.019153614
14:50:53:515;14:50:53:432;-0.2681506;10.01734;0.019153614
14:50:53:523;14:50:53:432;-0.2681506;10.01734;0.019153614
14:50:53:531;14:50:53:432;-0.2681506;10.01734;0.019153614
14:50:53:539;14:50:53:432;-0.2681506;10.01734;0.019153614
14:50:53:546;14:50:53:432;-0.2681506;10.01734;0.019153614
14:50:53:554;14:50:53:550;-0.2873042;10.01734;0.076614454
14:50:53:562;14:50:53:550;-0.2873042;10.01734;0.076614454
14:50:53:570;14:50:53:550;-0.2873042;10.01734;0.076614454
14:50:53:578;14:50:53:550;-0.2873042;10.01734;0.076614454
14:50:53:585;14:50:53:550;-0.2873042;10.01734;0.076614454
14:50:53:593;14:50:53:550;-0.2873042;10.01734;0.076614454
14:50:53:601;14:50:53:550;-0.2873042;10.01734;0.076614454
14:50:53:609;14:50:53:550;-0.2873042;10.01734;0.076614454
14:50:53:617;14:50:53:550;-0.2873042;10.01734;0.076614454
14:50:53:625;14:50:53:550;-0.2873042;10.01734;0.076614454
14:50:53:632;14:50:53:550;-0.2873042;10.01734;0.076614454
14:50:53:640;14:50:53:550;-0.2873042;10.01734;0.076614454
14:50:53:648;14:50:53:550;-0.2873042;10.01734;0.076614454
14:50:53:656;14:50:53:653;-0.32561144;10.055647;0.038307227
14:50:53:664;14:50:53:653;-0.32561144;10.055647;0.038307227
14:50:53:671;14:50:53:653;-0.32561144;10.055647;0.038307227
14:50:53:679;14:50:53:653;-0.32561144;10.055647;0.038307227
14:50:53:687;14:50:53:653;-0.32561144;10.055647;0.038307227
14:50:53:695;14:50:53:653;-0.32561144;10.055647;0.038307227
14:50:53:703;14:50:53:653;-0.32561144;10.055647;0.038307227
14:50:53:710;14:50:53:653;-0.32561144;10.055647;0.038307227
14:50:53:718;14:50:53:653;-0.32561144;10.055647;0.038307227
14:50:53:726;14:50:53:653;-0.32561144;10.055647;0.038307227
14:50:53:734;14:50:53:653;-0.32561144;10.055647;0.038307227
14:50:53:742;14:50:53:653;-0.32561144;10.055647;0.038307227
14:50:53:750;14:50:53:653;-0.32561144;10.055647;0.038307227
14:50:53:757;14:50:53:653;-0.32561144;10.055647;0.038307227
14:50:53:765;14:50:53:653;-0.32561144;10.055647;0.038307227
14:50:53:773;14:50:53:770;-0.21068975;10.055647;0.038307227
14:50:53:781;14:50:53:770;-0.21068975;10.055647;0.038307227
14:50:53:789;14:50:53:770;-0.21068975;10.055647;0.038307227
14:50:53:796;14:50:53:770;-0.21068975;10.055647;0.038307227
14:50:53:804;14:50:53:770;-0.21068975;10.055647;0.038307227
14:50:53:812;14:50:53:770;-0.21068975;10.055647;0.038307227
14:50:53:820;14:50:53:770;-0.21068975;10.055647;0.038307227
14:50:53:828;14:50:53:770;-0.21068975;10.055647;0.038307227
14:50:53:835;14:50:53:770;-0.21068975;10.055647;0.038307227
14:50:53:843;14:50:53:770;-0.21068975;10.055647;0.038307227
14:50:53:851;14:50:53:770;-0.21068975;10.055647;0.038307227
14:50:53:859;14:50:53:770;-0.21068975;10.055647;0.038307227
14:50:53:867;14:50:53:770;-0.21068975;10.055647;0.038307227
14:50:53:875;14:50:53:873;-0.2681506;9.9790325;-0.05746084
14:50:53:882;14:50:53:873;-0.2681506;9.9790325;-0.05746084
14:50:53:890;14:50:53:873;-0.2681506;9.9790325;-0.05746084
14:50:53:898;14:50:53:873;-0.2681506;9.9790325;-0.05746084
14:50:53:906;14:50:53:873;-0.2681506;9.9790325;-0.05746084
14:50:53:914;14:50:53:873;-0.2681506;9.9790325;-0.05746084
14:50:53:921;14:50:53:873;-0.2681506;9.9790325;-0.05746084
14:50:53:929;14:50:53:873;-0.2681506;9.9790325;-0.05746084
14:50:53:937;14:50:53:873;-0.2681506;9.9790325;-0.05746084
14:50:53:945;14:50:53:873;-0.2681506;9.9790325;-0.05746084
14:50:53:953;14:50:53:873;-0.2681506;9.9790325;-0.05746084
14:50:53:960;14:50:53:873;-0.2681506;9.9790325;-0.05746084
14:50:53:968;14:50:53:873;-0.2681506;9.9790325;-0.05746084
14:50:53:976;14:50:53:873;-0.2681506;9.9790325;-0.05746084
14:50:53:984;14:50:53:873;-0.2681506;9.9790325;-0.05746084
14:50:53:992;14:50:53:873;-0.2681506;9.9790325;-0.05746084
14:50:54:000;14:50:53:999;-0.24899697;10.01734;0.1340753
14:50:54:007;14:50:53:999;-0.24899697;10.01734;0.1340753
14:50:54:015;14:50:53:999;-0.24899697;10.01734;0.1340753
14:50:54:023;14:50:53:999;-0.24899697;10.01734;0.1340753
14:50:54:031;14:50:53:999;-0.24899697;10.01734;0.1340753
14:50:54:039;14:50:53:999;-0.24899697;10.01734;0.1340753
14:50:54:046;14:50:53:999;-0.24899697;10.01734;0.1340753
14:50:54:054;14:50:53:999;-0.24899697;10.01734;0.1340753
14:50:54:062;14:50:53:999;-0.24899697;10.01734;0.1340753
14:50:54:070;14:50:53:999;-0.24899697;10.01734;0.1340753
14:50:54:078;14:50:53:999;-0.24899697;10.01734;0.1340753
14:50:54:085;14:50:53:999;-0.24899697;10.01734;0.1340753
14:50:54:093;14:50:53:999;-0.24899697;10.01734;0.1340753
14:50:54:101;14:50:53:999;-0.24899697;10.01734;0.1340753
14:50:54:109;14:50:54:108;-0.30645782;10.01734;-0.019153614
14:50:54:117;14:50:54:108;-0.30645782;10.01734;-0.019153614
14:50:54:125;14:50:54:108;-0.30645782;10.01734;-0.019153614
14:50:54:132;14:50:54:108;-0.30645782;10.01734;-0.019153614
14:50:54:140;14:50:54:108;-0.30645782;10.01734;-0.019153614
14:50:54:148;14:50:54:108;-0.30645782;10.01734;-0.019153614
14:50:54:156;14:50:54:108;-0.30645782;10.01734;-0.019153614
14:50:54:164;14:50:54:108;-0.30645782;10.01734;-0.019153614
14:50:54:171;14:50:54:108;-0.30645782;10.01734;-0.019153614
14:50:54:179;14:50:54:108;-0.30645782;10.01734;-0.019153614
14:50:54:187;14:50:54:108;-0.30645782;10.01734;-0.019153614
14:50:54:195;14:50:54:108;-0.30645782;10.01734;-0.019153614
14:50:54:203;14:50:54:108;-0.30645782;10.01734;-0.019153614
14:50:54:210;14:50:54:209;-0.30645782;10.036493;0.05746084
14:50:54:218;14:50:54:209;-0.30645782;10.036493;0.05746084
14:50:54:226;14:50:54:209;-0.30645782;10.036493;0.05746084
14:50:54:234;14:50:54:209;-0.30645782;10.036493;0.05746084
14:50:54:242;14:50:54:209;-0.30645782;10.036493;0.05746084
14:50:54:250;14:50:54:209;-0.30645782;10.036493;0.05746084
14:50:54:257;14:50:54:209;-0.30645782;10.036493;0.05746084
14:50:54:265;14:50:54:209;-0.30645782;10.036493;0.05746084
14:50:54:273;14:50:54:209;-0.30645782;10.036493;0.05746084
14:50:54:281;14:50:54:209;-0.30645782;10.036493;0.05746084
14:50:54:289;14:50:54:209;-0.30645782;10.036493;0.05746084
14:50:54:296;14:50:54:209;-0.30645782;10.036493;0.05746084
14:50:54:304;14:50:54:209;-0.30645782;10.036493;0.05746084
14:50:54:312;14:50:54:209;-0.30645782;10.036493;0.05746084
14:50:54:320;14:50:54:209;-0.30645782;10.036493;0.05746084
14:50:54:328;14:50:54:209;-0.30645782;10.036493;0.05746084
14:50:54:335;14:50:54:209;-0.30645782;10.036493;0.05746084
14:50:54:343;14:50:54:337;-0.32561144;9.959879;-0.095768064
14:50:54:351;14:50:54:337;-0.32561144;9.959879;-0.095768064
14:50:54:359;14:50:54:337;-0.32561144;9.959879;-0.095768064
14:50:54:367;14:50:54:337;-0.32561144;9.959879;-0.095768064
14:50:54:375;14:50:54:337;-0.32561144;9.959879;-0.095768064
14:50:54:382;14:50:54:337;-0.32561144;9.959879;-0.095768064
14:50:54:390;14:50:54:337;-0.32561144;9.959879;-0.095768064
14:50:54:398;14:50:54:337;-0.32561144;9.959879;-0.095768064
14:50:54:406;14:50:54:337;-0.32561144;9.959879;-0.095768064
14:50:54:414;14:50:54:337;-0.32561144;9.959879;-0.095768064
14:50:54:421;14:50:54:337;-0.32561144;9.959879;-0.095768064
14:50:54:429;14:50:54:337;-0.32561144;9.959879;-0.095768064
14:50:54:437;14:50:54:337;-0.32561144;9.959879;-0.095768064
14:50:54:445;14:50:54:444;-0.32561144;10.036493;0.05746084
14:50:54:453;14:50:54:444;-0.32561144;10.036493;0.05746084
14:50:54:460;14:50:54:444;-0.32561144;10.036493;0.05746084
14:50:54:468;14:50:54:444;-0.32561144;10.036493;0.05746084
14:50:54:476;14:50:54:444;-0.32561144;10.036493;0.05746084
14:50:54:484;14:50:54:444;-0.32561144;10.036493;0.05746084
14:50:54:492;14:50:54:444;-0.32561144;10.036493;0.05746084
14:50:54:500;14:50:54:444;-0.32561144;10.036493;0.05746084
14:50:54:507;14:50:54:444;-0.32561144;10.036493;0.05746084
14:50:54:515;14:50:54:444;-0.32561144;10.036493;0.05746084
14:50:54:523;14:50:54:444;-0.32561144;10.036493;0.05746084
14:50:54:531;14:50:54:444;-0.32561144;10.036493;0.05746084
14:50:54:539;14:50:54:444;-0.32561144;10.036493;0.05746084
14:50:54:546;14:50:54:546;-0.2873042;9.998186;0.076614454
14:50:54:554;14:50:54:546;-0.2873042;9.998186;0.076614454
14:50:54:562;14:50:54:546;-0.2873042;9.998186;0.076614454
14:50:54:570;14:50:54:546;-0.2873042;9.998186;0.076614454
14:50:54:578;14:50:54:546;-0.2873042;9.998186;0.076614454
14:50:54:585;14:50:54:546;-0.2873042;9.998186;0.076614454
14:50:54:593;14:50:54:546;-0.2873042;9.998186;0.076614454
14:50:54:601;14:50:54:546;-0.2873042;9.998186;0.076614454
14:50:54:609;14:50:54:546;-0.2873042;9.998186;0.076614454
14:50:54:617;14:50:54:546;-0.2873042;9.998186;0.076614454
14:50:54:625;14:50:54:546;-0.2873042;9.998186;0.076614454
14:50:54:632;14:50:54:546;-0.2873042;9.998186;0.076614454
14:50:54:640;14:50:54:546;-0.2873042;9.998186;0.076614454
14:50:54:648;14:50:54:546;-0.2873042;9.998186;0.076614454
14:50:54:656;14:50:54:652;-0.22984336;10.01734;0.1340753
14:50:54:664;14:50:54:652;-0.22984336;10.01734;0.1340753
14:50:54:671;14:50:54:652;-0.22984336;10.01734;0.1340753
14:50:54:679;14:50:54:652;-0.22984336;10.01734;0.1340753
14:50:54:687;14:50:54:652;-0.22984336;10.01734;0.1340753
14:50:54:695;14:50:54:652;-0.22984336;10.01734;0.1340753
14:50:54:703;14:50:54:652;-0.22984336;10.01734;0.1340753
14:50:54:710;14:50:54:652;-0.22984336;10.01734;0.1340753
14:50:54:718;14:50:54:652;-0.22984336;10.01734;0.1340753
14:50:54:726;14:50:54:652;-0.22984336;10.01734;0.1340753
14:50:54:734;14:50:54:652;-0.22984336;10.01734;0.1340753
14:50:54:742;14:50:54:652;-0.22984336;10.01734;0.1340753
14:50:54:750;14:50:54:652;-0.22984336;10.01734;0.1340753
14:50:54:757;14:50:54:652;-0.22984336;10.01734;0.1340753
14:50:54:765;14:50:54:652;-0.22984336;10.01734;0.1340753
14:50:54:773;14:50:54:769;-0.32561144;10.036493;-0.095768064
14:50:54:781;14:50:54:769;-0.32561144;10.036493;-0.095768064
14:50:54:789;14:50:54:769;-0.32561144;10.036493;-0.095768064
14:50:54:796;14:50:54:769;-0.32561144;10.036493;-0.095768064
14:50:54:804;14:50:54:769;-0.32561144;10.036493;-0.095768064
14:50:54:812;14:50:54:769;-0.32561144;10.036493;-0.095768064
14:50:54:820;14:50:54:769;-0.32561144;10.036493;-0.095768064
14:50:54:828;14:50:54:769;-0.32561144;10.036493;-0.095768064
14:50:54:835;14:50:54:769;-0.32561144;10.036493;-0.095768064
14:50:54:843;14:50:54:769;-0.32561144;10.036493;-0.095768064
14:50:54:851;14:50:54:769;-0.32561144;10.036493;-0.095768064
14:50:54:859;14:50:54:769;-0.32561144;10.036493;-0.095768064
14:50:54:867;14:50:54:769;-0.32561144;10.036493;-0.095768064
14:50:54:875;14:50:54:769;-0.32561144;10.036493;-0.095768064
14:50:54:882;14:50:54:769;-0.32561144;10.036493;-0.095768064
14:50:54:890;14:50:54:888;-0.32561144;9.998186;0.076614454
14:50:54:898;14:50:54:888;-0.32561144;9.998186;0.076614454
14:50:54:906;14:50:54:888;-0.32561144;9.998186;0.076614454
14:50:54:914;14:50:54:888;-0.32561144;9.998186;0.076614454
14:50:54:921;14:50:54:888;-0.32561144;9.998186;0.076614454
14:50:54:929;14:50:54:888;-0.32561144;9.998186;0.076614454
14:50:54:937;14:50:54:888;-0.32561144;9.998186;0.076614454
14:50:54:945;14:50:54:888;-0.32561144;9.998186;0.076614454
14:50:54:953;14:50:54:888;-0.32561144;9.998186;0.076614454
14:50:54:960;14:50:54:888;-0.32561144;9.998186;0.076614454
14:50:54:968;14:50:54:888;-0.32561144;9.998186;0.076614454
14:50:54:976;14:50:54:888;-0.32561144;9.998186;0.076614454
14:50:54:984;14:50:54:888;-0.32561144;9.998186;0.076614454
14:50:54:992;14:50:54:888;-0.32561144;9.998186;0.076614454
14:50:55:000;14:50:54:888;-0.32561144;9.998186;0.076614454
14:50:55:007;14:50:55:005;-0.24899697;10.055647;0.05746084
14:50:55:015;14:50:55:005;-0.24899697;10.055647;0.05746084
14:50:55:023;14:50:55:005;-0.24899697;10.055647;0.05746084
14:50:55:031;14:50:55:005;-0.24899697;10.055647;0.05746084
14:50:55:039;14:50:55:005;-0.24899697;10.055647;0.05746084
14:50:55:046;14:50:55:005;-0.24899697;10.055647;0.05746084
14:50:55:054;14:50:55:005;-0.24899697;10.055647;0.05746084
14:50:55:062;14:50:55:005;-0.24899697;10.055647;0.05746084
14:50:55:070;14:50:55:005;-0.24899697;10.055647;0.05746084
14:50:55:078;14:50:55:005;-0.24899697;10.055647;0.05746084
14:50:55:085;14:50:55:005;-0.24899697;10.055647;0.05746084
14:50:55:093;14:50:55:005;-0.24899697;10.055647;0.05746084
14:50:55:101;14:50:55:005;-0.24899697;10.055647;0.05746084
14:50:55:109;14:50:55:005;-0.24899697;10.055647;0.05746084
14:50:55:117;14:50:55:005;-0.24899697;10.055647;0.05746084
14:50:55:125;14:50:55:124;-0.30645782;10.036493;-0.019153614
14:50:55:132;14:50:55:124;-0.30645782;10.036493;-0.019153614
14:50:55:140;14:50:55:124;-0.30645782;10.036493;-0.019153614
14:50:55:148;14:50:55:124;-0.30645782;10.036493;-0.019153614
14:50:55:156;14:50:55:124;-0.30645782;10.036493;-0.019153614
14:50:55:164;14:50:55:124;-0.30645782;10.036493;-0.019153614
14:50:55:171;14:50:55:124;-0.30645782;10.036493;-0.019153614
14:50:55:179;14:50:55:124;-0.30645782;10.036493;-0.019153614
14:50:55:187;14:50:55:124;-0.30645782;10.036493;-0.019153614
14:50:55:195;14:50:55:124;-0.30645782;10.036493;-0.019153614
14:50:55:203;14:50:55:124;-0.30645782;10.036493;-0.019153614
14:50:55:210;14:50:55:124;-0.30645782;10.036493;-0.019153614
14:50:55:218;14:50:55:124;-0.30645782;10.036493;-0.019153614
14:50:55:226;14:50:55:124;-0.30645782;10.036493;-0.019153614
14:50:55:234;14:50:55:124;-0.30645782;10.036493;-0.019153614
14:50:55:242;14:50:55:235;-0.2873042;9.959879;0.095768064
14:50:55:250;14:50:55:235;-0.2873042;9.959879;0.095768064
14:50:55:257;14:50:55:235;-0.2873042;9.959879;0.095768064
14:50:55:265;14:50:55:235;-0.2873042;9.959879;0.095768064
14:50:55:273;14:50:55:235;-0.2873042;9.959879;0.095768064
14:50:55:281;14:50:55:235;-0.2873042;9.959879;0.095768064
14:50:55:289;14:50:55:235;-0.2873042;9.959879;0.095768064
14:50:55:296;14:50:55:235;-0.2873042;9.959879;0.095768064
14:50:55:304;14:50:55:235;-0.2873042;9.959879;0.095768064
14:50:55:312;14:50:55:235;-0.2873042;9.959879;0.095768064
14:50:55:320;14:50:55:235;-0.2873042;9.959879;0.095768064
14:50:55:328;14:50:55:235;-0.2873042;9.959879;0.095768064
14:50:55:335;14:50:55:235;-0.2873042;9.959879;0.095768064
14:50:55:343;14:50:55:338;-0.30645782;10.036493;0.1340753
14:50:55:351;14:50:55:338;-0.30645782;10.036493;0.1340753
14:50:55:359;14:50:55:338;-0.30645782;10.036493;0.1340753
14:50:55:367;14:50:55:338;-0.30645782;10.036493;0.1340753
14:50:55:375;14:50:55:338;-0.30645782;10.036493;0.1340753
14:50:55:382;14:50:55:338;-0.30645782;10.036493;0.1340753
14:50:55:390;14:50:55:338;-0.30645782;10.036493;0.1340753
14:50:55:398;14:50:55:338;-0.30645782;10.036493;0.1340753
14:50:55:406;14:50:55:338;-0.30645782;10.036493;0.1340753
14:50:55:414;14:50:55:338;-0.30645782;10.036493;0.1340753
14:50:55:421;14:50:55:338;-0.30645782;10.036493;0.1340753
14:50:55:429;14:50:55:338;-0.30645782;10.036493;0.1340753
14:50:55:437;14:50:55:338;-0.30645782;10.036493;0.1340753
14:50:55:445;14:50:55:338;-0.30645782;10.036493;0.1340753
14:50:55:453;14:50:55:338;-0.30645782;10.036493;0.1340753
14:50:55:460;14:50:55:457;-0.40222588;9.902418;0.019153614
14:50:55:468;14:50:55:457;-0.40222588;9.902418;0.019153614
14:50:55:476;14:50:55:457;-0.40222588;9.902418;0.019153614
14:50:55:484;14:50:55:457;-0.40222588;9.902418;0.019153614
14:50:55:492;14:50:55:457;-0.40222588;9.902418;0.019153614
14:50:55:500;14:50:55:457;-0.40222588;9.902418;0.019153614
14:50:55:507;14:50:55:457;-0.40222588;9.902418;0.019153614
14:50:55:515;14:50:55:457;-0.40222588;9.902418;0.019153614
14:50:55:523;14:50:55:457;-0.40222588;9.902418;0.019153614
14:50:55:531;14:50:55:457;-0.40222588;9.902418;0.019153614
14:50:55:539;14:50:55:457;-0.40222588;9.902418;0.019153614
14:50:55:546;14:50:55:457;-0.40222588;9.902418;0.019153614
14:50:55:554;14:50:55:457;-0.40222588;9.902418;0.019153614
14:50:55:562;14:50:55:457;-0.40222588;9.902418;0.019153614
14:50:55:570;14:50:55:566;-0.32561144;10.01734;0.076614454
14:50:55:578;14:50:55:566;-0.32561144;10.01734;0.076614454
14:50:55:585;14:50:55:566;-0.32561144;10.01734;0.076614454
14:50:55:593;14:50:55:566;-0.32561144;10.01734;0.076614454
14:50:55:601;14:50:55:566;-0.32561144;10.01734;0.076614454
14:50:55:609;14:50:55:566;-0.32561144;10.01734;0.076614454
14:50:55:617;14:50:55:566;-0.32561144;10.01734;0.076614454
14:50:55:625;14:50:55:566;-0.32561144;10.01734;0.076614454
14:50:55:632;14:50:55:566;-0.32561144;10.01734;0.076614454
14:50:55:640;14:50:55:566;-0.32561144;10.01734;0.076614454
14:50:55:648;14:50:55:566;-0.32561144;10.01734;0.076614454
14:50:55:656;14:50:55:566;-0.32561144;10.01734;0.076614454
14:50:55:664;14:50:55:566;-0.32561144;10.01734;0.076614454
14:50:55:671;14:50:55:566;-0.32561144;10.01734;0.076614454
14:50:55:679;14:50:55:676;-0.24899697;9.940725;0.095768064
14:50:55:687;14:50:55:676;-0.24899697;9.940725;0.095768064
14:50:55:695;14:50:55:676;-0.24899697;9.940725;0.095768064
14:50:55:703;14:50:55:676;-0.24899697;9.940725;0.095768064
14:50:55:710;14:50:55:676;-0.24899697;9.940725;0.095768064
14:50:55:718;14:50:55:676;-0.24899697;9.940725;0.095768064
14:50:55:726;14:50:55:676;-0.24899697;9.940725;0.095768064
14:50:55:734;14:50:55:676;-0.24899697;9.940725;0.095768064
14:50:55:742;14:50:55:676;-0.24899697;9.940725;0.095768064
14:50:55:750;14:50:55:676;-0.24899697;9.940725;0.095768064
14:50:55:757;14:50:55:676;-0.24899697;9.940725;0.095768064
14:50:55:765;14:50:55:676;-0.24899697;9.940725;0.095768064
14:50:55:773;14:50:55:676;-0.24899697;9.940725;0.095768064
14:50:55:781;14:50:55:778;-0.40222588;10.036493;0.038307227
14:50:55:789;14:50:55:778;-0.40222588;10.036493;0.038307227
14:50:55:796;14:50:55:778;-0.40222588;10.036493;0.038307227
14:50:55:804;14:50:55:778;-0.40222588;10.036493;0.038307227
14:50:55:812;14:50:55:778;-0.40222588;10.036493;0.038307227
14:50:55:820;14:50:55:778;-0.40222588;10.036493;0.038307227
14:50:55:828;14:50:55:778;-0.40222588;10.036493;0.038307227
14:50:55:835;14:50:55:778;-0.40222588;10.036493;0.038307227
14:50:55:843;14:50:55:778;-0.40222588;10.036493;0.038307227
14:50:55:851;14:50:55:778;-0.40222588;10.036493;0.038307227
14:50:55:859;14:50:55:778;-0.40222588;10.036493;0.038307227
14:50:55:867;14:50:55:778;-0.40222588;10.036493;0.038307227
14:50:55:875;14:50:55:778;-0.40222588;10.036493;0.038307227
14:50:55:882;14:50:55:778;-0.40222588;10.036493;0.038307227
14:50:55:890;14:50:55:890;-0.2681506;9.864111;-0.038307227
14:50:55:898;14:50:55:890;-0.2681506;9.864111;-0.038307227
14:50:55:906;14:50:55:890;-0.2681506;9.864111;-0.038307227
14:50:55:914;14:50:55:890;-0.2681506;9.864111;-0.038307227
14:50:55:921;14:50:55:890;-0.2681506;9.864111;-0.038307227
14:50:55:929;14:50:55:890;-0.2681506;9.864111;-0.038307227
14:50:55:937;14:50:55:890;-0.2681506;9.864111;-0.038307227
14:50:55:945;14:50:55:890;-0.2681506;9.864111;-0.038307227
14:50:55:953;14:50:55:890;-0.2681506;9.864111;-0.038307227
14:50:55:960;14:50:55:890;-0.2681506;9.864111;-0.038307227
14:50:55:968;14:50:55:890;-0.2681506;9.864111;-0.038307227
14:50:55:976;14:50:55:890;-0.2681506;9.864111;-0.038307227
14:50:55:984;14:50:55:890;-0.2681506;9.864111;-0.038307227
14:50:55:992;14:50:55:890;-0.2681506;9.864111;-0.038307227
14:50:56:000;14:50:55:996;-0.34476504;9.883265;0.019153614
14:50:56:007;14:50:55:996;-0.34476504;9.883265;0.019153614
14:50:56:015;14:50:55:996;-0.34476504;9.883265;0.019153614
14:50:56:023;14:50:55:996;-0.34476504;9.883265;0.019153614
14:50:56:031;14:50:55:996;-0.34476504;9.883265;0.019153614
14:50:56:039;14:50:55:996;-0.34476504;9.883265;0.019153614
14:50:56:046;14:50:55:996;-0.34476504;9.883265;0.019153614
14:50:56:054;14:50:55:996;-0.34476504;9.883265;0.019153614
14:50:56:062;14:50:55:996;-0.34476504;9.883265;0.019153614
14:50:56:070;14:50:55:996;-0.34476504;9.883265;0.019153614
14:50:56:078;14:50:55:996;-0.34476504;9.883265;0.019153614
14:50:56:085;14:50:55:996;-0.34476504;9.883265;0.019153614
14:50:56:093;14:50:55:996;-0.34476504;9.883265;0.019153614
14:50:56:101;14:50:55:996;-0.34476504;9.883265;0.019153614
14:50:56:109;14:50:55:996;-0.34476504;9.883265;0.019153614
14:50:56:117;14:50:55:996;-0.34476504;9.883265;0.019153614
14:50:56:125;14:50:55:996;-0.34476504;9.883265;0.019153614
14:50:56:132;14:50:55:996;-0.34476504;9.883265;0.019153614
14:50:56:140;14:50:55:996;-0.34476504;9.883265;0.019153614
14:50:56:148;14:50:56:143;-0.2873042;9.883265;0.05746084
14:50:56:156;14:50:56:143;-0.2873042;9.883265;0.05746084
14:50:56:164;14:50:56:143;-0.2873042;9.883265;0.05746084
14:50:56:171;14:50:56:143;-0.2873042;9.883265;0.05746084
14:50:56:179;14:50:56:143;-0.2873042;9.883265;0.05746084
14:50:56:187;14:50:56:143;-0.2873042;9.883265;0.05746084
14:50:56:195;14:50:56:143;-0.2873042;9.883265;0.05746084
14:50:56:203;14:50:56:143;-0.2873042;9.883265;0.05746084
14:50:56:210;14:50:56:143;-0.2873042;9.883265;0.05746084
14:50:56:218;14:50:56:143;-0.2873042;9.883265;0.05746084
14:50:56:226;14:50:56:143;-0.2873042;9.883265;0.05746084
14:50:56:234;14:50:56:143;-0.2873042;9.883265;0.05746084
14:50:56:242;14:50:56:143;-0.2873042;9.883265;0.05746084
14:50:56:250;14:50:56:143;-0.2873042;9.883265;0.05746084
14:50:56:257;14:50:56:251;-0.38307226;10.036493;0.038307227
14:50:56:265;14:50:56:251;-0.38307226;10.036493;0.038307227
14:50:56:273;14:50:56:251;-0.38307226;10.036493;0.038307227
14:50:56:281;14:50:56:251;-0.38307226;10.036493;0.038307227
14:50:56:289;14:50:56:251;-0.38307226;10.036493;0.038307227
14:50:56:296;14:50:56:251;-0.38307226;10.036493;0.038307227
14:50:56:304;14:50:56:251;-0.38307226;10.036493;0.038307227
14:50:56:312;14:50:56:251;-0.38307226;10.036493;0.038307227
14:50:56:320;14:50:56:251;-0.38307226;10.036493;0.038307227
14:50:56:328;14:50:56:251;-0.38307226;10.036493;0.038307227
14:50:56:335;14:50:56:251;-0.38307226;10.036493;0.038307227
14:50:56:343;14:50:56:251;-0.38307226;10.036493;0.038307227
14:50:56:351;14:50:56:251;-0.38307226;10.036493;0.038307227
14:50:56:359;14:50:56:353;-0.32561144;10.055647;0.05746084
14:50:56:367;14:50:56:353;-0.32561144;10.055647;0.05746084
14:50:56:375;14:50:56:353;-0.32561144;10.055647;0.05746084
14:50:56:382;14:50:56:353;-0.32561144;10.055647;0.05746084
14:50:56:390;14:50:56:353;-0.32561144;10.055647;0.05746084
14:50:56:398;14:50:56:353;-0.32561144;10.055647;0.05746084
14:50:56:406;14:50:56:353;-0.32561144;10.055647;0.05746084
14:50:56:414;14:50:56:353;-0.32561144;10.055647;0.05746084
14:50:56:421;14:50:56:353;-0.32561144;10.055647;0.05746084
14:50:56:429;14:50:56:353;-0.32561144;10.055647;0.05746084
14:50:56:437;14:50:56:353;-0.32561144;10.055647;0.05746084
14:50:56:445;14:50:56:353;-0.32561144;10.055647;0.05746084
14:50:56:453;14:50:56:353;-0.32561144;10.055647;0.05746084
14:50:56:460;14:50:56:457;-0.2681506;9.940725;0.11492168
14:50:56:468;14:50:56:457;-0.2681506;9.940725;0.11492168
14:50:56:476;14:50:56:457;-0.2681506;9.940725;0.11492168
14:50:56:484;14:50:56:457;-0.2681506;9.940725;0.11492168
14:50:56:492;14:50:56:457;-0.2681506;9.940725;0.11492168
14:50:56:500;14:50:56:457;-0.2681506;9.940725;0.11492168
14:50:56:507;14:50:56:457;-0.2681506;9.940725;0.11492168
14:50:56:515;14:50:56:457;-0.2681506;9.940725;0.11492168
14:50:56:523;14:50:56:457;-0.2681506;9.940725;0.11492168
14:50:56:531;14:50:56:457;-0.2681506;9.940725;0.11492168
14:50:56:539;14:50:56:457;-0.2681506;9.940725;0.11492168
14:50:56:546;14:50:56:457;-0.2681506;9.940725;0.11492168
14:50:56:554;14:50:56:457;-0.2681506;9.940725;0.11492168
14:50:56:562;14:50:56:457;-0.2681506;9.940725;0.11492168
14:50:56:570;14:50:56:457;-0.2681506;9.940725;0.11492168
14:50:56:578;14:50:56:574;-0.38307226;9.959879;0.1340753
14:50:56:585;14:50:56:574;-0.38307226;9.959879;0.1340753
14:50:56:593;14:50:56:574;-0.38307226;9.959879;0.1340753
14:50:56:601;14:50:56:574;-0.38307226;9.959879;0.1340753
14:50:56:609;14:50:56:574;-0.38307226;9.959879;0.1340753
14:50:56:617;14:50:56:574;-0.38307226;9.959879;0.1340753
14:50:56:625;14:50:56:574;-0.38307226;9.959879;0.1340753
14:50:56:632;14:50:56:574;-0.38307226;9.959879;0.1340753
14:50:56:640;14:50:56:574;-0.38307226;9.959879;0.1340753
14:50:56:648;14:50:56:574;-0.38307226;9.959879;0.1340753
14:50:56:656;14:50:56:574;-0.38307226;9.959879;0.1340753
14:50:56:664;14:50:56:574;-0.38307226;9.959879;0.1340753
14:50:56:671;14:50:56:574;-0.38307226;9.959879;0.1340753
14:50:56:679;14:50:56:574;-0.38307226;9.959879;0.1340753
14:50:56:687;14:50:56:681;-0.34476504;9.998186;-0.019153614
14:50:56:695;14:50:56:681;-0.34476504;9.998186;-0.019153614
14:50:56:703;14:50:56:681;-0.34476504;9.998186;-0.019153614
14:50:56:710;14:50:56:681;-0.34476504;9.998186;-0.019153614
14:50:56:718;14:50:56:681;-0.34476504;9.998186;-0.019153614
14:50:56:726;14:50:56:681;-0.34476504;9.998186;-0.019153614
14:50:56:734;14:50:56:681;-0.34476504;9.998186;-0.019153614
14:50:56:742;14:50:56:681;-0.34476504;9.998186;-0.019153614
14:50:56:750;14:50:56:681;-0.34476504;9.998186;-0.019153614
14:50:56:757;14:50:56:681;-0.34476504;9.998186;-0.019153614
14:50:56:765;14:50:56:681;-0.34476504;9.998186;-0.019153614
14:50:56:773;14:50:56:681;-0.34476504;9.998186;-0.019153614
14:50:56:781;14:50:56:681;-0.34476504;9.998186;-0.019153614
14:50:56:789;14:50:56:681;-0.34476504;9.998186;-0.019153614
14:50:56:796;14:50:56:681;-0.34476504;9.998186;-0.019153614
14:50:56:804;14:50:56:800;-0.2873042;10.055647;-0.038307227
14:50:56:812;14:50:56:800;-0.2873042;10.055647;-0.038307227
14:50:56:820;14:50:56:800;-0.2873042;10.055647;-0.038307227
14:50:56:828;14:50:56:800;-0.2873042;10.055647;-0.038307227
14:50:56:835;14:50:56:800;-0.2873042;10.055647;-0.038307227
14:50:56:843;14:50:56:800;-0.2873042;10.055647;-0.038307227
14:50:56:851;14:50:56:800;-0.2873042;10.055647;-0.038307227
14:50:56:859;14:50:56:800;-0.2873042;10.055647;-0.038307227
14:50:56:867;14:50:56:800;-0.2873042;10.055647;-0.038307227
14:50:56:875;14:50:56:800;-0.2873042;10.055647;-0.038307227
14:50:56:882;14:50:56:800;-0.2873042;10.055647;-0.038307227
14:50:56:890;14:50:56:800;-0.2873042;10.055647;-0.038307227
14:50:56:898;14:50:56:800;-0.2873042;10.055647;-0.038307227
14:50:56:906;14:50:56:800;-0.2873042;10.055647;-0.038307227
14:50:56:914;14:50:56:800;-0.2873042;10.055647;-0.038307227
14:50:56:921;14:50:56:920;-0.2873042;9.998186;0.24899697
14:50:56:929;14:50:56:920;-0.2873042;9.998186;0.24899697
14:50:56:937;14:50:56:920;-0.2873042;9.998186;0.24899697
14:50:56:945;14:50:56:920;-0.2873042;9.998186;0.24899697
14:50:56:953;14:50:56:920;-0.2873042;9.998186;0.24899697
14:50:56:960;14:50:56:920;-0.2873042;9.998186;0.24899697
14:50:56:968;14:50:56:920;-0.2873042;9.998186;0.24899697
14:50:56:976;14:50:56:920;-0.2873042;9.998186;0.24899697
14:50:56:984;14:50:56:920;-0.2873042;9.998186;0.24899697
14:50:56:992;14:50:56:920;-0.2873042;9.998186;0.24899697
14:50:57:000;14:50:56:920;-0.2873042;9.998186;0.24899697
14:50:57:007;14:50:56:920;-0.2873042;9.998186;0.24899697
14:50:57:015;14:50:56:920;-0.2873042;9.998186;0.24899697
14:50:57:023;14:50:56:920;-0.2873042;9.998186;0.24899697
14:50:57:031;14:50:56:920;-0.2873042;9.998186;0.24899697
14:50:57:039;14:50:57:038;-0.22984336;10.0748005;0.15322891
14:50:57:046;14:50:57:038;-0.22984336;10.0748005;0.15322891
14:50:57:054;14:50:57:038;-0.22984336;10.0748005;0.15322891
14:50:57:062;14:50:57:038;-0.22984336;10.0748005;0.15322891
14:50:57:070;14:50:57:038;-0.22984336;10.0748005;0.15322891
14:50:57:078;14:50:57:038;-0.22984336;10.0748005;0.15322891
14:50:57:085;14:50:57:038;-0.22984336;10.0748005;0.15322891
14:50:57:093;14:50:57:038;-0.22984336;10.0748005;0.15322891
14:50:57:101;14:50:57:038;-0.22984336;10.0748005;0.15322891
14:50:57:109;14:50:57:038;-0.22984336;10.0748005;0.15322891
14:50:57:117;14:50:57:038;-0.22984336;10.0748005;0.15322891
14:50:57:125;14:50:57:038;-0.22984336;10.0748005;0.15322891
14:50:57:132;14:50:57:038;-0.22984336;10.0748005;0.15322891
14:50:57:140;14:50:57:038;-0.22984336;10.0748005;0.15322891
14:50:57:148;14:50:57:038;-0.22984336;10.0748005;0.15322891
14:50:57:156;14:50:57:149;-0.34476504;9.959879;0.038307227
14:50:57:164;14:50:57:149;-0.34476504;9.959879;0.038307227
14:50:57:171;14:50:57:149;-0.34476504;9.959879;0.038307227
14:50:57:179;14:50:57:149;-0.34476504;9.959879;0.038307227
14:50:57:187;14:50:57:149;-0.34476504;9.959879;0.038307227
14:50:57:195;14:50:57:149;-0.34476504;9.959879;0.038307227
14:50:57:203;14:50:57:149;-0.34476504;9.959879;0.038307227
14:50:57:210;14:50:57:149;-0.34476504;9.959879;0.038307227
14:50:57:218;14:50:57:149;-0.34476504;9.959879;0.038307227
14:50:57:226;14:50:57:149;-0.34476504;9.959879;0.038307227
14:50:57:234;14:50:57:149;-0.34476504;9.959879;0.038307227
14:50:57:242;14:50:57:149;-0.34476504;9.959879;0.038307227
14:50:57:250;14:50:57:149;-0.34476504;9.959879;0.038307227
14:50:57:257;14:50:57:149;-0.34476504;9.959879;0.038307227
14:50:57:265;14:50:57:260;-0.22984336;10.01734;-0.11492168
14:50:57:273;14:50:57:260;-0.22984336;10.01734;-0.11492168
14:50:57:281;14:50:57:260;-0.22984336;10.01734;-0.11492168
14:50:57:289;14:50:57:260;-0.22984336;10.01734;-0.11492168
14:50:57:296;14:50:57:260;-0.22984336;10.01734;-0.11492168
14:50:57:304;14:50:57:260;-0.22984336;10.01734;-0.11492168
14:50:57:312;14:50:57:260;-0.22984336;10.01734;-0.11492168
14:50:57:320;14:50:57:260;-0.22984336;10.01734;-0.11492168
14:50:57:328;14:50:57:260;-0.22984336;10.01734;-0.11492168
14:50:57:335;14:50:57:260;-0.22984336;10.01734;-0.11492168
14:50:57:343;14:50:57:260;-0.22984336;10.01734;-0.11492168
14:50:57:351;14:50:57:260;-0.22984336;10.01734;-0.11492168
14:50:57:359;14:50:57:260;-0.22984336;10.01734;-0.11492168
14:50:57:367;14:50:57:260;-0.22984336;10.01734;-0.11492168
14:50:57:375;14:50:57:374;-0.2681506;9.787497;0.076614454
14:50:57:382;14:50:57:374;-0.2681506;9.787497;0.076614454
14:50:57:390;14:50:57:374;-0.2681506;9.787497;0.076614454
14:50:57:398;14:50:57:374;-0.2681506;9.787497;0.076614454
14:50:57:406;14:50:57:374;-0.2681506;9.787497;0.076614454
14:50:57:414;14:50:57:374;-0.2681506;9.787497;0.076614454
14:50:57:421;14:50:57:374;-0.2681506;9.787497;0.076614454
14:50:57:429;14:50:57:374;-0.2681506;9.787497;0.076614454
14:50:57:437;14:50:57:374;-0.2681506;9.787497;0.076614454
14:50:57:445;14:50:57:374;-0.2681506;9.787497;0.076614454
14:50:57:453;14:50:57:374;-0.2681506;9.787497;0.076614454
14:50:57:460;14:50:57:374;-0.2681506;9.787497;0.076614454
14:50:57:468;14:50:57:374;-0.2681506;9.787497;0.076614454
14:50:57:476;14:50:57:374;-0.2681506;9.787497;0.076614454
14:50:57:484;14:50:57:477;-0.34476504;9.902418;0.095768064
14:50:57:492;14:50:57:477;-0.34476504;9.902418;0.095768064
14:50:57:500;14:50:57:477;-0.34476504;9.902418;0.095768064
14:50:57:507;14:50:57:477;-0.34476504;9.902418;0.095768064
14:50:57:515;14:50:57:477;-0.34476504;9.902418;0.095768064
14:50:57:523;14:50:57:477;-0.34476504;9.902418;0.095768064
14:50:57:531;14:50:57:477;-0.34476504;9.902418;0.095768064
14:50:57:539;14:50:57:477;-0.34476504;9.902418;0.095768064
14:50:57:546;14:50:57:477;-0.34476504;9.902418;0.095768064
14:50:57:554;14:50:57:477;-0.34476504;9.902418;0.095768064
14:50:57:562;14:50:57:477;-0.34476504;9.902418;0.095768064
14:50:57:570;14:50:57:477;-0.34476504;9.902418;0.095768064
14:50:57:578;14:50:57:477;-0.34476504;9.902418;0.095768064
14:50:57:585;14:50:57:477;-0.34476504;9.902418;0.095768064
14:50:57:593;14:50:57:477;-0.34476504;9.902418;0.095768064
14:50:57:601;14:50:57:596;-0.2681506;9.883265;0.076614454
14:50:57:609;14:50:57:596;-0.2681506;9.883265;0.076614454
14:50:57:617;14:50:57:596;-0.2681506;9.883265;0.076614454
14:50:57:625;14:50:57:596;-0.2681506;9.883265;0.076614454
14:50:57:632;14:50:57:596;-0.2681506;9.883265;0.076614454
14:50:57:640;14:50:57:596;-0.2681506;9.883265;0.076614454
14:50:57:648;14:50:57:596;-0.2681506;9.883265;0.076614454
14:50:57:656;14:50:57:596;-0.2681506;9.883265;0.076614454
14:50:57:664;14:50:57:596;-0.2681506;9.883265;0.076614454
14:50:57:671;14:50:57:596;-0.2681506;9.883265;0.076614454
14:50:57:679;14:50:57:596;-0.2681506;9.883265;0.076614454
14:50:57:687;14:50:57:596;-0.2681506;9.883265;0.076614454
14:50:57:695;14:50:57:596;-0.2681506;9.883265;0.076614454
14:50:57:703;14:50:57:596;-0.2681506;9.883265;0.076614454
14:50:57:710;14:50:57:596;-0.2681506;9.883265;0.076614454
14:50:57:718;14:50:57:713;-0.36391866;9.940725;-0.019153614
14:50:57:726;14:50:57:713;-0.36391866;9.940725;-0.019153614
14:50:57:734;14:50:57:713;-0.36391866;9.940725;-0.019153614
14:50:57:742;14:50:57:713;-0.36391866;9.940725;-0.019153614
14:50:57:750;14:50:57:713;-0.36391866;9.940725;-0.019153614
14:50:57:757;14:50:57:713;-0.36391866;9.940725;-0.019153614
14:50:57:765;14:50:57:713;-0.36391866;9.940725;-0.019153614
14:50:57:773;14:50:57:713;-0.36391866;9.940725;-0.019153614
14:50:57:781;14:50:57:713;-0.36391866;9.940725;-0.019153614
14:50:57:789;14:50:57:713;-0.36391866;9.940725;-0.019153614
14:50:57:796;14:50:57:713;-0.36391866;9.940725;-0.019153614
14:50:57:804;14:50:57:713;-0.36391866;9.940725;-0.019153614
14:50:57:812;14:50:57:713;-0.36391866;9.940725;-0.019153614
14:50:57:820;14:50:57:713;-0.36391866;9.940725;-0.019153614
14:50:57:828;14:50:57:713;-0.36391866;9.940725;-0.019153614
14:50:57:835;14:50:57:832;-0.4213795;9.959879;-0.019153614
14:50:57:843;14:50:57:832;-0.4213795;9.959879;-0.019153614
14:50:57:851;14:50:57:832;-0.4213795;9.959879;-0.019153614
14:50:57:859;14:50:57:832;-0.4213795;9.959879;-0.019153614
14:50:57:867;14:50:57:832;-0.4213795;9.959879;-0.019153614
14:50:57:875;14:50:57:832;-0.4213795;9.959879;-0.019153614
14:50:57:882;14:50:57:832;-0.4213795;9.959879;-0.019153614
14:50:57:890;14:50:57:832;-0.4213795;9.959879;-0.019153614
14:50:57:898;14:50:57:832;-0.4213795;9.959879;-0.019153614
14:50:57:906;14:50:57:832;-0.4213795;9.959879;-0.019153614
14:50:57:914;14:50:57:832;-0.4213795;9.959879;-0.019153614
14:50:57:921;14:50:57:832;-0.4213795;9.959879;-0.019153614
14:50:57:929;14:50:57:832;-0.4213795;9.959879;-0.019153614
14:50:57:937;14:50:57:832;-0.4213795;9.959879;-0.019153614
14:50:57:945;14:50:57:832;-0.4213795;9.959879;-0.019153614
14:50:57:953;14:50:57:832;-0.4213795;9.959879;-0.019153614
14:50:57:960;14:50:57:954;-0.2873042;10.036493;0.038307227
14:50:57:968;14:50:57:954;-0.2873042;10.036493;0.038307227
14:50:57:976;14:50:57:954;-0.2873042;10.036493;0.038307227
14:50:57:984;14:50:57:954;-0.2873042;10.036493;0.038307227
14:50:57:992;14:50:57:954;-0.2873042;10.036493;0.038307227
14:50:58:000;14:50:57:954;-0.2873042;10.036493;0.038307227
14:50:58:007;14:50:57:954;-0.2873042;10.036493;0.038307227
14:50:58:015;14:50:57:954;-0.2873042;10.036493;0.038307227
14:50:58:023;14:50:57:954;-0.2873042;10.036493;0.038307227
14:50:58:031;14:50:57:954;-0.2873042;10.036493;0.038307227
14:50:58:039;14:50:57:954;-0.2873042;10.036493;0.038307227
14:50:58:046;14:50:57:954;-0.2873042;10.036493;0.038307227
14:50:58:054;14:50:57:954;-0.2873042;10.036493;0.038307227
14:50:58:062;14:50:57:954;-0.2873042;10.036493;0.038307227
14:50:58:070;14:50:58:063;-0.1340753;9.9790325;0.11492168
14:50:58:078;14:50:58:063;-0.1340753;9.9790325;0.11492168
14:50:58:085;14:50:58:063;-0.1340753;9.9790325;0.11492168
14:50:58:093;14:50:58:063;-0.1340753;9.9790325;0.11492168
14:50:58:101;14:50:58:063;-0.1340753;9.9790325;0.11492168
14:50:58:109;14:50:58:063;-0.1340753;9.9790325;0.11492168
14:50:58:117;14:50:58:063;-0.1340753;9.9790325;0.11492168
14:50:58:125;14:50:58:063;-0.1340753;9.9790325;0.11492168
14:50:58:132;14:50:58:063;-0.1340753;9.9790325;0.11492168
14:50:58:140;14:50:58:063;-0.1340753;9.9790325;0.11492168
14:50:58:148;14:50:58:063;-0.1340753;9.9790325;0.11492168
14:50:58:156;14:50:58:063;-0.1340753;9.9790325;0.11492168
14:50:58:164;14:50:58:063;-0.1340753;9.9790325;0.11492168
14:50:58:171;14:50:58:063;-0.1340753;9.9790325;0.11492168
14:50:58:179;14:50:58:063;-0.1340753;9.9790325;0.11492168
14:50:58:187;14:50:58:180;-0.24899697;10.093954;0.038307227
14:50:58:195;14:50:58:180;-0.24899697;10.093954;0.038307227
14:50:58:203;14:50:58:180;-0.24899697;10.093954;0.038307227
14:50:58:210;14:50:58:180;-0.24899697;10.093954;0.038307227
14:50:58:218;14:50:58:180;-0.24899697;10.093954;0.038307227
14:50:58:226;14:50:58:180;-0.24899697;10.093954;0.038307227
14:50:58:234;14:50:58:180;-0.24899697;10.093954;0.038307227
14:50:58:242;14:50:58:180;-0.24899697;10.093954;0.038307227
14:50:58:250;14:50:58:180;-0.24899697;10.093954;0.038307227
14:50:58:257;14:50:58:180;-0.24899697;10.093954;0.038307227
14:50:58:265;14:50:58:180;-0.24899697;10.093954;0.038307227
14:50:58:273;14:50:58:180;-0.24899697;10.093954;0.038307227
14:50:58:281;14:50:58:180;-0.24899697;10.093954;0.038307227
14:50:58:289;14:50:58:180;-0.24899697;10.093954;0.038307227
14:50:58:296;14:50:58:290;-0.24899697;9.998186;0.076614454
14:50:58:304;14:50:58:290;-0.24899697;9.998186;0.076614454
14:50:58:312;14:50:58:290;-0.24899697;9.998186;0.076614454
14:50:58:320;14:50:58:290;-0.24899697;9.998186;0.076614454
14:50:58:328;14:50:58:290;-0.24899697;9.998186;0.076614454
14:50:58:335;14:50:58:290;-0.24899697;9.998186;0.076614454
14:50:58:343;14:50:58:290;-0.24899697;9.998186;0.076614454
14:50:58:351;14:50:58:290;-0.24899697;9.998186;0.076614454
14:50:58:359;14:50:58:290;-0.24899697;9.998186;0.076614454
14:50:58:367;14:50:58:290;-0.24899697;9.998186;0.076614454
14:50:58:375;14:50:58:290;-0.24899697;9.998186;0.076614454
14:50:58:382;14:50:58:290;-0.24899697;9.998186;0.076614454
14:50:58:390;14:50:58:290;-0.24899697;9.998186;0.076614454
14:50:58:398;14:50:58:290;-0.24899697;9.998186;0.076614454
14:50:58:406;14:50:58:406;-0.38307226;9.902418;0.05746084
14:50:58:414;14:50:58:406;-0.38307226;9.902418;0.05746084
14:50:58:421;14:50:58:406;-0.38307226;9.902418;0.05746084
14:50:58:429;14:50:58:406;-0.38307226;9.902418;0.05746084
14:50:58:437;14:50:58:406;-0.38307226;9.902418;0.05746084
14:50:58:445;14:50:58:406;-0.38307226;9.902418;0.05746084
14:50:58:453;14:50:58:406;-0.38307226;9.902418;0.05746084
14:50:58:460;14:50:58:406;-0.38307226;9.902418;0.05746084
14:50:58:468;14:50:58:406;-0.38307226;9.902418;0.05746084
14:50:58:476;14:50:58:406;-0.38307226;9.902418;0.05746084
14:50:58:484;14:50:58:406;-0.38307226;9.902418;0.05746084
14:50:58:492;14:50:58:406;-0.38307226;9.902418;0.05746084
14:50:58:500;14:50:58:406;-0.38307226;9.902418;0.05746084
14:50:58:507;14:50:58:406;-0.38307226;9.902418;0.05746084
14:50:58:515;14:50:58:406;-0.38307226;9.902418;0.05746084
14:50:58:523;14:50:58:406;-0.38307226;9.902418;0.05746084
14:50:58:531;14:50:58:524;-0.40222588;10.036493;0.076614454
14:50:58:539;14:50:58:524;-0.40222588;10.036493;0.076614454
14:50:58:546;14:50:58:524;-0.40222588;10.036493;0.076614454
14:50:58:554;14:50:58:524;-0.40222588;10.036493;0.076614454
14:50:58:562;14:50:58:524;-0.40222588;10.036493;0.076614454
14:50:58:570;14:50:58:524;-0.40222588;10.036493;0.076614454
14:50:58:578;14:50:58:524;-0.40222588;10.036493;0.076614454
14:50:58:585;14:50:58:524;-0.40222588;10.036493;0.076614454
14:50:58:593;14:50:58:524;-0.40222588;10.036493;0.076614454
14:50:58:601;14:50:58:524;-0.40222588;10.036493;0.076614454
14:50:58:609;14:50:58:524;-0.40222588;10.036493;0.076614454
14:50:58:617;14:50:58:524;-0.40222588;10.036493;0.076614454
14:50:58:625;14:50:58:524;-0.40222588;10.036493;0.076614454
14:50:58:632;14:50:58:628;-0.19153613;10.036493;0.05746084
14:50:58:640;14:50:58:628;-0.19153613;10.036493;0.05746084
14:50:58:648;14:50:58:628;-0.19153613;10.036493;0.05746084
14:50:58:656;14:50:58:628;-0.19153613;10.036493;0.05746084
14:50:58:664;14:50:58:628;-0.19153613;10.036493;0.05746084
14:50:58:671;14:50:58:628;-0.19153613;10.036493;0.05746084
14:50:58:679;14:50:58:628;-0.19153613;10.036493;0.05746084
14:50:58:687;14:50:58:628;-0.19153613;10.036493;0.05746084
14:50:58:695;14:50:58:628;-0.19153613;10.036493;0.05746084
14:50:58:703;14:50:58:628;-0.19153613;10.036493;0.05746084
14:50:58:710;14:50:58:628;-0.19153613;10.036493;0.05746084
14:50:58:718;14:50:58:628;-0.19153613;10.036493;0.05746084
14:50:58:726;14:50:58:628;-0.19153613;10.036493;0.05746084
14:50:58:734;14:50:58:628;-0.19153613;10.036493;0.05746084
14:50:58:742;14:50:58:628;-0.19153613;10.036493;0.05746084
14:50:58:750;14:50:58:747;-0.24899697;9.844957;-0.038307227
14:50:58:757;14:50:58:747;-0.24899697;9.844957;-0.038307227
14:50:58:765;14:50:58:747;-0.24899697;9.844957;-0.038307227
14:50:58:773;14:50:58:747;-0.24899697;9.844957;-0.038307227
14:50:58:781;14:50:58:747;-0.24899697;9.844957;-0.038307227
14:50:58:789;14:50:58:747;-0.24899697;9.844957;-0.038307227
14:50:58:796;14:50:58:747;-0.24899697;9.844957;-0.038307227
14:50:58:804;14:50:58:747;-0.24899697;9.844957;-0.038307227
14:50:58:812;14:50:58:747;-0.24899697;9.844957;-0.038307227
14:50:58:820;14:50:58:747;-0.24899697;9.844957;-0.038307227
14:50:58:828;14:50:58:747;-0.24899697;9.844957;-0.038307227
14:50:58:835;14:50:58:747;-0.24899697;9.844957;-0.038307227
14:50:58:843;14:50:58:747;-0.24899697;9.844957;-0.038307227
14:50:58:851;14:50:58:747;-0.24899697;9.844957;-0.038307227
14:50:58:859;14:50:58:854;-0.40222588;9.9790325;0.11492168
14:50:58:867;14:50:58:854;-0.40222588;9.9790325;0.11492168
14:50:58:875;14:50:58:854;-0.40222588;9.9790325;0.11492168
14:50:58:882;14:50:58:854;-0.40222588;9.9790325;0.11492168
14:50:58:890;14:50:58:854;-0.40222588;9.9790325;0.11492168
14:50:58:898;14:50:58:854;-0.40222588;9.9790325;0.11492168
14:50:58:906;14:50:58:854;-0.40222588;9.9790325;0.11492168
14:50:58:914;14:50:58:854;-0.40222588;9.9790325;0.11492168
14:50:58:921;14:50:58:854;-0.40222588;9.9790325;0.11492168
14:50:58:929;14:50:58:854;-0.40222588;9.9790325;0.11492168
14:50:58:937;14:50:58:854;-0.40222588;9.9790325;0.11492168
14:50:58:945;14:50:58:854;-0.40222588;9.9790325;0.11492168
14:50:58:953;14:50:58:854;-0.40222588;9.9790325;0.11492168
14:50:58:960;14:50:58:854;-0.40222588;9.9790325;0.11492168
14:50:58:968;14:50:58:964;-0.30645782;10.036493;0.038307227
14:50:58:976;14:50:58:964;-0.30645782;10.036493;0.038307227
14:50:58:984;14:50:58:964;-0.30645782;10.036493;0.038307227
14:50:58:992;14:50:58:964;-0.30645782;10.036493;0.038307227
14:50:59:000;14:50:58:964;-0.30645782;10.036493;0.038307227
14:50:59:007;14:50:58:964;-0.30645782;10.036493;0.038307227
14:50:59:015;14:50:58:964;-0.30645782;10.036493;0.038307227
14:50:59:023;14:50:58:964;-0.30645782;10.036493;0.038307227
14:50:59:031;14:50:58:964;-0.30645782;10.036493;0.038307227
14:50:59:039;14:50:58:964;-0.30645782;10.036493;0.038307227
14:50:59:046;14:50:58:964;-0.30645782;10.036493;0.038307227
14:50:59:054;14:50:58:964;-0.30645782;10.036493;0.038307227
14:50:59:062;14:50:58:964;-0.30645782;10.036493;0.038307227
14:50:59:070;14:50:58:964;-0.30645782;10.036493;0.038307227
14:50:59:078;14:50:58:964;-0.30645782;10.036493;0.038307227
14:50:59:085;14:50:59:082;-0.30645782;9.959879;0.038307227
14:50:59:093;14:50:59:082;-0.30645782;9.959879;0.038307227
14:50:59:101;14:50:59:082;-0.30645782;9.959879;0.038307227
14:50:59:109;14:50:59:082;-0.30645782;9.959879;0.038307227
14:50:59:117;14:50:59:082;-0.30645782;9.959879;0.038307227
14:50:59:125;14:50:59:082;-0.30645782;9.959879;0.038307227
14:50:59:132;14:50:59:082;-0.30645782;9.959879;0.038307227
14:50:59:140;14:50:59:082;-0.30645782;9.959879;0.038307227
14:50:59:148;14:50:59:082;-0.30645782;9.959879;0.038307227
14:50:59:156;14:50:59:082;-0.30645782;9.959879;0.038307227
14:50:59:164;14:50:59:082;-0.30645782;9.959879;0.038307227
14:50:59:171;14:50:59:082;-0.30645782;9.959879;0.038307227
14:50:59:179;14:50:59:082;-0.30645782;9.959879;0.038307227
14:50:59:187;14:50:59:082;-0.30645782;9.959879;0.038307227
14:50:59:195;14:50:59:082;-0.30645782;9.959879;0.038307227
14:50:59:203;14:50:59:199;-0.34476504;10.01734;-0.095768064
14:50:59:210;14:50:59:199;-0.34476504;10.01734;-0.095768064
14:50:59:218;14:50:59:199;-0.34476504;10.01734;-0.095768064
14:50:59:226;14:50:59:199;-0.34476504;10.01734;-0.095768064
14:50:59:234;14:50:59:199;-0.34476504;10.01734;-0.095768064
14:50:59:242;14:50:59:199;-0.34476504;10.01734;-0.095768064
14:50:59:250;14:50:59:199;-0.34476504;10.01734;-0.095768064
14:50:59:257;14:50:59:199;-0.34476504;10.01734;-0.095768064
14:50:59:265;14:50:59:199;-0.34476504;10.01734;-0.095768064
14:50:59:273;14:50:59:199;-0.34476504;10.01734;-0.095768064
14:50:59:281;14:50:59:199;-0.34476504;10.01734;-0.095768064
14:50:59:289;14:50:59:199;-0.34476504;10.01734;-0.095768064
14:50:59:296;14:50:59:199;-0.34476504;10.01734;-0.095768064
14:50:59:304;14:50:59:199;-0.34476504;10.01734;-0.095768064
14:50:59:312;14:50:59:199;-0.34476504;10.01734;-0.095768064
14:50:59:320;14:50:59:319;-0.30645782;9.9790325;0.038307227
14:50:59:328;14:50:59:319;-0.30645782;9.9790325;0.038307227
14:50:59:335;14:50:59:319;-0.30645782;9.9790325;0.038307227
14:50:59:343;14:50:59:319;-0.30645782;9.9790325;0.038307227
14:50:59:351;14:50:59:319;-0.30645782;9.9790325;0.038307227
14:50:59:359;14:50:59:319;-0.30645782;9.9790325;0.038307227
14:50:59:367;14:50:59:319;-0.30645782;9.9790325;0.038307227
14:50:59:375;14:50:59:319;-0.30645782;9.9790325;0.038307227
14:50:59:382;14:50:59:319;-0.30645782;9.9790325;0.038307227
14:50:59:390;14:50:59:319;-0.30645782;9.9790325;0.038307227
14:50:59:398;14:50:59:319;-0.30645782;9.9790325;0.038307227
14:50:59:406;14:50:59:319;-0.30645782;9.9790325;0.038307227
14:50:59:414;14:50:59:319;-0.30645782;9.9790325;0.038307227
14:50:59:421;14:50:59:319;-0.30645782;9.9790325;0.038307227
14:50:59:429;14:50:59:424;-0.24899697;9.998186;0.019153614
14:50:59:437;14:50:59:424;-0.24899697;9.998186;0.019153614
14:50:59:445;14:50:59:424;-0.24899697;9.998186;0.019153614
14:50:59:453;14:50:59:424;-0.24899697;9.998186;0.019153614
14:50:59:460;14:50:59:424;-0.24899697;9.998186;0.019153614
14:50:59:468;14:50:59:424;-0.24899697;9.998186;0.019153614
14:50:59:476;14:50:59:424;-0.24899697;9.998186;0.019153614
14:50:59:484;14:50:59:424;-0.24899697;9.998186;0.019153614
14:50:59:492;14:50:59:424;-0.24899697;9.998186;0.019153614
14:50:59:500;14:50:59:424;-0.24899697;9.998186;0.019153614
14:50:59:507;14:50:59:424;-0.24899697;9.998186;0.019153614
14:50:59:515;14:50:59:424;-0.24899697;9.998186;0.019153614
14:50:59:523;14:50:59:424;-0.24899697;9.998186;0.019153614
14:50:59:531;14:50:59:424;-0.24899697;9.998186;0.019153614
14:50:59:539;14:50:59:538;-0.22984336;9.959879;-0.019153614
14:50:59:546;14:50:59:538;-0.22984336;9.959879;-0.019153614
14:50:59:554;14:50:59:538;-0.22984336;9.959879;-0.019153614
14:50:59:562;14:50:59:538;-0.22984336;9.959879;-0.019153614
14:50:59:570;14:50:59:538;-0.22984336;9.959879;-0.019153614
14:50:59:578;14:50:59:538;-0.22984336;9.959879;-0.019153614
14:50:59:585;14:50:59:538;-0.22984336;9.959879;-0.019153614
14:50:59:593;14:50:59:538;-0.22984336;9.959879;-0.019153614
14:50:59:601;14:50:59:538;-0.22984336;9.959879;-0.019153614
14:50:59:609;14:50:59:538;-0.22984336;9.959879;-0.019153614
14:50:59:617;14:50:59:538;-0.22984336;9.959879;-0.019153614
14:50:59:625;14:50:59:538;-0.22984336;9.959879;-0.019153614
14:50:59:632;14:50:59:538;-0.22984336;9.959879;-0.019153614
14:50:59:640;14:50:59:538;-0.22984336;9.959879;-0.019153614
14:50:59:648;14:50:59:645;-0.2873042;9.940725;-0.019153614
14:50:59:656;14:50:59:645;-0.2873042;9.940725;-0.019153614
14:50:59:664;14:50:59:645;-0.2873042;9.940725;-0.019153614
14:50:59:671;14:50:59:645;-0.2873042;9.940725;-0.019153614
14:50:59:679;14:50:59:645;-0.2873042;9.940725;-0.019153614
14:50:59:687;14:50:59:645;-0.2873042;9.940725;-0.019153614
14:50:59:695;14:50:59:645;-0.2873042;9.940725;-0.019153614
14:50:59:703;14:50:59:645;-0.2873042;9.940725;-0.019153614
14:50:59:710;14:50:59:645;-0.2873042;9.940725;-0.019153614
14:50:59:718;14:50:59:645;-0.2873042;9.940725;-0.019153614
14:50:59:726;14:50:59:645;-0.2873042;9.940725;-0.019153614
14:50:59:734;14:50:59:645;-0.2873042;9.940725;-0.019153614
14:50:59:742;14:50:59:645;-0.2873042;9.940725;-0.019153614
14:50:59:750;14:50:59:645;-0.2873042;9.940725;-0.019153614
14:50:59:757;14:50:59:645;-0.2873042;9.940725;-0.019153614
14:50:59:765;14:50:59:645;-0.2873042;9.940725;-0.019153614
14:50:59:773;14:50:59:767;-0.34476504;9.940725;0.038307227
14:50:59:781;14:50:59:767;-0.34476504;9.940725;0.038307227
14:50:59:789;14:50:59:767;-0.34476504;9.940725;0.038307227
14:50:59:796;14:50:59:767;-0.34476504;9.940725;0.038307227
14:50:59:804;14:50:59:767;-0.34476504;9.940725;0.038307227
14:50:59:812;14:50:59:767;-0.34476504;9.940725;0.038307227
14:50:59:820;14:50:59:767;-0.34476504;9.940725;0.038307227
14:50:59:828;14:50:59:767;-0.34476504;9.940725;0.038307227
14:50:59:835;14:50:59:767;-0.34476504;9.940725;0.038307227
14:50:59:843;14:50:59:767;-0.34476504;9.940725;0.038307227
14:50:59:851;14:50:59:767;-0.34476504;9.940725;0.038307227
14:50:59:859;14:50:59:767;-0.34476504;9.940725;0.038307227
14:50:59:867;14:50:59:767;-0.34476504;9.940725;0.038307227
14:50:59:875;14:50:59:767;-0.34476504;9.940725;0.038307227
14:50:59:882;14:50:59:882;-0.22984336;10.01734;0.076614454
14:50:59:890;14:50:59:882;-0.22984336;10.01734;0.076614454
14:50:59:898;14:50:59:882;-0.22984336;10.01734;0.076614454
14:50:59:906;14:50:59:882;-0.22984336;10.01734;0.076614454
14:50:59:914;14:50:59:882;-0.22984336;10.01734;0.076614454
14:50:59:921;14:50:59:882;-0.22984336;10.01734;0.076614454
14:50:59:929;14:50:59:882;-0.22984336;10.01734;0.076614454
14:50:59:937;14:50:59:882;-0.22984336;10.01734;0.076614454
14:50:59:945;14:50:59:882;-0.22984336;10.01734;0.076614454
14:50:59:953;14:50:59:882;-0.22984336;10.01734;0.076614454
14:50:59:960;14:50:59:882;-0.22984336;10.01734;0.076614454
14:50:59:968;14:50:59:882;-0.22984336;10.01734;0.076614454
14:50:59:976;14:50:59:882;-0.22984336;10.01734;0.076614454
14:50:59:984;14:50:59:882;-0.22984336;10.01734;0.076614454
14:50:59:992;14:50:59:882;-0.22984336;10.01734;0.076614454
14:51:00:000;14:50:59:882;-0.22984336;10.01734;0.076614454
14:51:00:007;14:50:59:882;-0.22984336;10.01734;0.076614454
14:51:00:015;14:51:00:015;-0.38307226;9.959879;0.076614454
14:51:00:023;14:51:00:015;-0.38307226;9.959879;0.076614454
14:51:00:031;14:51:00:015;-0.38307226;9.959879;0.076614454
14:51:00:039;14:51:00:015;-0.38307226;9.959879;0.076614454
14:51:00:046;14:51:00:015;-0.38307226;9.959879;0.076614454
14:51:00:054;14:51:00:015;-0.38307226;9.959879;0.076614454
14:51:00:062;14:51:00:015;-0.38307226;9.959879;0.076614454
14:51:00:070;14:51:00:015;-0.38307226;9.959879;0.076614454
14:51:00:078;14:51:00:015;-0.38307226;9.959879;0.076614454
14:51:00:085;14:51:00:015;-0.38307226;9.959879;0.076614454
14:51:00:093;14:51:00:015;-0.38307226;9.959879;0.076614454
14:51:00:101;14:51:00:015;-0.38307226;9.959879;0.076614454
14:51:00:109;14:51:00:015;-0.38307226;9.959879;0.076614454
14:51:00:117;14:51:00:117;-0.4405331;9.825804;0.019153614
14:51:00:125;14:51:00:117;-0.4405331;9.825804;0.019153614
14:51:00:132;14:51:00:117;-0.4405331;9.825804;0.019153614
14:51:00:140;14:51:00:117;-0.4405331;9.825804;0.019153614
14:51:00:148;14:51:00:117;-0.4405331;9.825804;0.019153614
14:51:00:156;14:51:00:117;-0.4405331;9.825804;0.019153614
14:51:00:164;14:51:00:117;-0.4405331;9.825804;0.019153614
14:51:00:171;14:51:00:117;-0.4405331;9.825804;0.019153614
14:51:00:179;14:51:00:117;-0.4405331;9.825804;0.019153614
14:51:00:187;14:51:00:117;-0.4405331;9.825804;0.019153614
14:51:00:195;14:51:00:117;-0.4405331;9.825804;0.019153614
14:51:00:203;14:51:00:117;-0.4405331;9.825804;0.019153614
14:51:00:210;14:51:00:117;-0.4405331;9.825804;0.019153614
14:51:00:218;14:51:00:218;-0.2873042;9.921572;0.17238252
14:51:00:226;14:51:00:218;-0.2873042;9.921572;0.17238252
14:51:00:234;14:51:00:218;-0.2873042;9.921572;0.17238252
14:51:00:242;14:51:00:218;-0.2873042;9.921572;0.17238252
14:51:00:250;14:51:00:218;-0.2873042;9.921572;0.17238252
14:51:00:257;14:51:00:218;-0.2873042;9.921572;0.17238252
14:51:00:265;14:51:00:218;-0.2873042;9.921572;0.17238252
14:51:00:273;14:51:00:218;-0.2873042;9.921572;0.17238252
14:51:00:281;14:51:00:218;-0.2873042;9.921572;0.17238252
14:51:00:289;14:51:00:218;-0.2873042;9.921572;0.17238252
14:51:00:296;14:51:00:218;-0.2873042;9.921572;0.17238252
14:51:00:304;14:51:00:218;-0.2873042;9.921572;0.17238252
14:51:00:312;14:51:00:218;-0.2873042;9.921572;0.17238252
14:51:00:320;14:51:00:218;-0.2873042;9.921572;0.17238252
14:51:00:328;14:51:00:322;-0.2681506;10.055647;-0.019153614
14:51:00:335;14:51:00:322;-0.2681506;10.055647;-0.019153614
14:51:00:343;14:51:00:322;-0.2681506;10.055647;-0.019153614
14:51:00:351;14:51:00:322;-0.2681506;10.055647;-0.019153614
14:51:00:359;14:51:00:322;-0.2681506;10.055647;-0.019153614
14:51:00:367;14:51:00:322;-0.2681506;10.055647;-0.019153614
14:51:00:375;14:51:00:322;-0.2681506;10.055647;-0.019153614
14:51:00:382;14:51:00:322;-0.2681506;10.055647;-0.019153614
14:51:00:390;14:51:00:322;-0.2681506;10.055647;-0.019153614
14:51:00:398;14:51:00:322;-0.2681506;10.055647;-0.019153614
14:51:00:406;14:51:00:322;-0.2681506;10.055647;-0.019153614
14:51:00:414;14:51:00:322;-0.2681506;10.055647;-0.019153614
14:51:00:421;14:51:00:322;-0.2681506;10.055647;-0.019153614
14:51:00:429;14:51:00:322;-0.2681506;10.055647;-0.019153614
14:51:00:437;14:51:00:434;-0.34476504;9.902418;0.11492168
14:51:00:445;14:51:00:434;-0.34476504;9.902418;0.11492168
14:51:00:453;14:51:00:434;-0.34476504;9.902418;0.11492168
14:51:00:460;14:51:00:434;-0.34476504;9.902418;0.11492168
14:51:00:468;14:51:00:434;-0.34476504;9.902418;0.11492168
14:51:00:476;14:51:00:434;-0.34476504;9.902418;0.11492168
14:51:00:484;14:51:00:434;-0.34476504;9.902418;0.11492168
14:51:00:492;14:51:00:434;-0.34476504;9.902418;0.11492168
14:51:00:500;14:51:00:434;-0.34476504;9.902418;0.11492168
14:51:00:507;14:51:00:434;-0.34476504;9.902418;0.11492168
14:51:00:515;14:51:00:434;-0.34476504;9.902418;0.11492168
14:51:00:523;14:51:00:434;-0.34476504;9.902418;0.11492168
14:51:00:531;14:51:00:434;-0.34476504;9.902418;0.11492168
14:51:00:539;14:51:00:539;-0.19153613;9.902418;0.038307227
14:51:00:546;14:51:00:539;-0.19153613;9.902418;0.038307227
14:51:00:554;14:51:00:539;-0.19153613;9.902418;0.038307227
14:51:00:562;14:51:00:539;-0.19153613;9.902418;0.038307227
14:51:00:570;14:51:00:539;-0.19153613;9.902418;0.038307227
14:51:00:578;14:51:00:539;-0.19153613;9.902418;0.038307227
14:51:00:585;14:51:00:539;-0.19153613;9.902418;0.038307227
14:51:00:593;14:51:00:539;-0.19153613;9.902418;0.038307227
14:51:00:601;14:51:00:539;-0.19153613;9.902418;0.038307227
14:51:00:609;14:51:00:539;-0.19153613;9.902418;0.038307227
14:51:00:617;14:51:00:539;-0.19153613;9.902418;0.038307227
14:51:00:625;14:51:00:539;-0.19153613;9.902418;0.038307227
14:51:00:632;14:51:00:539;-0.19153613;9.902418;0.038307227
14:51:00:640;14:51:00:539;-0.19153613;9.902418;0.038307227
14:51:00:648;14:51:00:539;-0.19153613;9.902418;0.038307227
14:51:00:656;14:51:00:655;-0.2873042;9.844957;-0.019153614
14:51:00:664;14:51:00:655;-0.2873042;9.844957;-0.019153614
14:51:00:671;14:51:00:655;-0.2873042;9.844957;-0.019153614
14:51:00:679;14:51:00:655;-0.2873042;9.844957;-0.019153614
14:51:00:687;14:51:00:655;-0.2873042;9.844957;-0.019153614
14:51:00:695;14:51:00:655;-0.2873042;9.844957;-0.019153614
14:51:00:703;14:51:00:655;-0.2873042;9.844957;-0.019153614
14:51:00:710;14:51:00:655;-0.2873042;9.844957;-0.019153614
14:51:00:718;14:51:00:655;-0.2873042;9.844957;-0.019153614
14:51:00:726;14:51:00:655;-0.2873042;9.844957;-0.019153614
14:51:00:734;14:51:00:655;-0.2873042;9.844957;-0.019153614
14:51:00:742;14:51:00:655;-0.2873042;9.844957;-0.019153614
14:51:00:750;14:51:00:655;-0.2873042;9.844957;-0.019153614
14:51:00:757;14:51:00:655;-0.2873042;9.844957;-0.019153614
14:51:00:765;14:51:00:655;-0.2873042;9.844957;-0.019153614
14:51:00:773;14:51:00:655;-0.2873042;9.844957;-0.019153614
14:51:00:781;14:51:00:655;-0.2873042;9.844957;-0.019153614
14:51:00:789;14:51:00:655;-0.2873042;9.844957;-0.019153614
14:51:00:796;14:51:00:655;-0.2873042;9.844957;-0.019153614
14:51:00:804;14:51:00:655;-0.2873042;9.844957;-0.019153614
14:51:00:812;14:51:00:807;-0.22984336;9.921572;0.095768064
14:51:00:820;14:51:00:807;-0.22984336;9.921572;0.095768064
14:51:00:828;14:51:00:807;-0.22984336;9.921572;0.095768064
14:51:00:835;14:51:00:807;-0.22984336;9.921572;0.095768064
14:51:00:843;14:51:00:807;-0.22984336;9.921572;0.095768064
14:51:00:851;14:51:00:807;-0.22984336;9.921572;0.095768064
14:51:00:859;14:51:00:807;-0.22984336;9.921572;0.095768064
14:51:00:867;14:51:00:807;-0.22984336;9.921572;0.095768064
14:51:00:875;14:51:00:807;-0.22984336;9.921572;0.095768064
14:51:00:882;14:51:00:807;-0.22984336;9.921572;0.095768064
14:51:00:890;14:51:00:807;-0.22984336;9.921572;0.095768064
14:51:00:898;14:51:00:807;-0.22984336;9.921572;0.095768064
14:51:00:906;14:51:00:807;-0.22984336;9.921572;0.095768064
14:51:00:914;14:51:00:807;-0.22984336;9.921572;0.095768064
14:51:00:921;14:51:00:807;-0.22984336;9.921572;0.095768064
14:51:00:929;14:51:00:925;-0.2873042;9.998186;0.076614454
14:51:00:937;14:51:00:925;-0.2873042;9.998186;0.076614454
14:51:00:945;14:51:00:925;-0.2873042;9.998186;0.076614454
14:51:00:953;14:51:00:925;-0.2873042;9.998186;0.076614454
14:51:00:960;14:51:00:925;-0.2873042;9.998186;0.076614454
14:51:00:968;14:51:00:925;-0.2873042;9.998186;0.076614454
14:51:00:976;14:51:00:925;-0.2873042;9.998186;0.076614454
14:51:00:984;14:51:00:925;-0.2873042;9.998186;0.076614454
14:51:00:992;14:51:00:925;-0.2873042;9.998186;0.076614454
14:51:01:000;14:51:00:925;-0.2873042;9.998186;0.076614454
14:51:01:007;14:51:00:925;-0.2873042;9.998186;0.076614454
14:51:01:015;14:51:00:925;-0.2873042;9.998186;0.076614454
14:51:01:023;14:51:00:925;-0.2873042;9.998186;0.076614454
14:51:01:031;14:51:00:925;-0.2873042;9.998186;0.076614454
14:51:01:039;14:51:00:925;-0.2873042;9.998186;0.076614454
14:51:01:046;14:51:01:045;-0.24899697;9.9790325;0.038307227
14:51:01:054;14:51:01:045;-0.24899697;9.9790325;0.038307227
14:51:01:062;14:51:01:045;-0.24899697;9.9790325;0.038307227
14:51:01:070;14:51:01:045;-0.24899697;9.9790325;0.038307227
14:51:01:078;14:51:01:045;-0.24899697;9.9790325;0.038307227
14:51:01:085;14:51:01:045;-0.24899697;9.9790325;0.038307227
14:51:01:093;14:51:01:045;-0.24899697;9.9790325;0.038307227
14:51:01:101;14:51:01:045;-0.24899697;9.9790325;0.038307227
14:51:01:109;14:51:01:045;-0.24899697;9.9790325;0.038307227
14:51:01:117;14:51:01:045;-0.24899697;9.9790325;0.038307227
14:51:01:125;14:51:01:045;-0.24899697;9.9790325;0.038307227
14:51:01:132;14:51:01:045;-0.24899697;9.9790325;0.038307227
14:51:01:140;14:51:01:045;-0.24899697;9.9790325;0.038307227
14:51:01:148;14:51:01:045;-0.24899697;9.9790325;0.038307227
14:51:01:156;14:51:01:045;-0.24899697;9.9790325;0.038307227
14:51:01:164;14:51:01:157;-0.40222588;10.132261;0.11492168
14:51:01:171;14:51:01:157;-0.40222588;10.132261;0.11492168
14:51:01:179;14:51:01:157;-0.40222588;10.132261;0.11492168
14:51:01:187;14:51:01:157;-0.40222588;10.132261;0.11492168
14:51:01:195;14:51:01:157;-0.40222588;10.132261;0.11492168
14:51:01:203;14:51:01:157;-0.40222588;10.132261;0.11492168
14:51:01:210;14:51:01:157;-0.40222588;10.132261;0.11492168
14:51:01:218;14:51:01:157;-0.40222588;10.132261;0.11492168
14:51:01:226;14:51:01:157;-0.40222588;10.132261;0.11492168
14:51:01:234;14:51:01:157;-0.40222588;10.132261;0.11492168
14:51:01:242;14:51:01:157;-0.40222588;10.132261;0.11492168
14:51:01:250;14:51:01:157;-0.40222588;10.132261;0.11492168
14:51:01:257;14:51:01:157;-0.40222588;10.132261;0.11492168
14:51:01:265;14:51:01:258;-0.34476504;10.113108;-0.05746084
14:51:01:273;14:51:01:258;-0.34476504;10.113108;-0.05746084
14:51:01:281;14:51:01:258;-0.34476504;10.113108;-0.05746084
14:51:01:289;14:51:01:258;-0.34476504;10.113108;-0.05746084
14:51:01:296;14:51:01:258;-0.34476504;10.113108;-0.05746084
14:51:01:304;14:51:01:258;-0.34476504;10.113108;-0.05746084
14:51:01:312;14:51:01:258;-0.34476504;10.113108;-0.05746084
14:51:01:320;14:51:01:258;-0.34476504;10.113108;-0.05746084
14:51:01:328;14:51:01:258;-0.34476504;10.113108;-0.05746084
14:51:01:335;14:51:01:258;-0.34476504;10.113108;-0.05746084
14:51:01:343;14:51:01:258;-0.34476504;10.113108;-0.05746084
14:51:01:351;14:51:01:258;-0.34476504;10.113108;-0.05746084
14:51:01:359;14:51:01:258;-0.34476504;10.113108;-0.05746084
14:51:01:367;14:51:01:361;-0.30645782;9.902418;0.076614454
14:51:01:375;14:51:01:361;-0.30645782;9.902418;0.076614454
14:51:01:382;14:51:01:361;-0.30645782;9.902418;0.076614454
14:51:01:390;14:51:01:361;-0.30645782;9.902418;0.076614454
14:51:01:398;14:51:01:361;-0.30645782;9.902418;0.076614454
14:51:01:406;14:51:01:361;-0.30645782;9.902418;0.076614454
14:51:01:414;14:51:01:361;-0.30645782;9.902418;0.076614454
14:51:01:421;14:51:01:361;-0.30645782;9.902418;0.076614454
14:51:01:429;14:51:01:361;-0.30645782;9.902418;0.076614454
14:51:01:437;14:51:01:361;-0.30645782;9.902418;0.076614454
14:51:01:445;14:51:01:361;-0.30645782;9.902418;0.076614454
14:51:01:453;14:51:01:361;-0.30645782;9.902418;0.076614454
14:51:01:460;14:51:01:361;-0.30645782;9.902418;0.076614454
14:51:01:468;14:51:01:361;-0.30645782;9.902418;0.076614454
14:51:01:476;14:51:01:473;-0.2873042;10.036493;0.095768064
14:51:01:484;14:51:01:473;-0.2873042;10.036493;0.095768064
14:51:01:492;14:51:01:473;-0.2873042;10.036493;0.095768064
14:51:01:500;14:51:01:473;-0.2873042;10.036493;0.095768064
14:51:01:507;14:51:01:473;-0.2873042;10.036493;0.095768064
14:51:01:515;14:51:01:473;-0.2873042;10.036493;0.095768064
14:51:01:523;14:51:01:473;-0.2873042;10.036493;0.095768064
14:51:01:531;14:51:01:473;-0.2873042;10.036493;0.095768064
14:51:01:539;14:51:01:473;-0.2873042;10.036493;0.095768064
14:51:01:546;14:51:01:473;-0.2873042;10.036493;0.095768064
14:51:01:554;14:51:01:473;-0.2873042;10.036493;0.095768064
14:51:01:562;14:51:01:473;-0.2873042;10.036493;0.095768064
14:51:01:570;14:51:01:473;-0.2873042;10.036493;0.095768064
14:51:01:578;14:51:01:575;-0.36391866;9.998186;-0.05746084
14:51:01:585;14:51:01:575;-0.36391866;9.998186;-0.05746084
14:51:01:593;14:51:01:575;-0.36391866;9.998186;-0.05746084
14:51:01:601;14:51:01:575;-0.36391866;9.998186;-0.05746084
14:51:01:609;14:51:01:575;-0.36391866;9.998186;-0.05746084
14:51:01:617;14:51:01:575;-0.36391866;9.998186;-0.05746084
14:51:01:625;14:51:01:575;-0.36391866;9.998186;-0.05746084
14:51:01:632;14:51:01:575;-0.36391866;9.998186;-0.05746084
14:51:01:640;14:51:01:575;-0.36391866;9.998186;-0.05746084
14:51:01:648;14:51:01:575;-0.36391866;9.998186;-0.05746084
14:51:01:656;14:51:01:575;-0.36391866;9.998186;-0.05746084
14:51:01:664;14:51:01:575;-0.36391866;9.998186;-0.05746084
14:51:01:671;14:51:01:575;-0.36391866;9.998186;-0.05746084
14:51:01:679;14:51:01:575;-0.36391866;9.998186;-0.05746084
14:51:01:687;14:51:01:575;-0.36391866;9.998186;-0.05746084
14:51:01:695;14:51:01:689;-0.34476504;9.9790325;-0.05746084
14:51:01:703;14:51:01:689;-0.34476504;9.9790325;-0.05746084
14:51:01:710;14:51:01:689;-0.34476504;9.9790325;-0.05746084
14:51:01:718;14:51:01:689;-0.34476504;9.9790325;-0.05746084
14:51:01:726;14:51:01:689;-0.34476504;9.9790325;-0.05746084
14:51:01:734;14:51:01:689;-0.34476504;9.9790325;-0.05746084
14:51:01:742;14:51:01:689;-0.34476504;9.9790325;-0.05746084
14:51:01:750;14:51:01:689;-0.34476504;9.9790325;-0.05746084
14:51:01:757;14:51:01:689;-0.34476504;9.9790325;-0.05746084
14:51:01:765;14:51:01:689;-0.34476504;9.9790325;-0.05746084
14:51:01:773;14:51:01:689;-0.34476504;9.9790325;-0.05746084
14:51:01:781;14:51:01:689;-0.34476504;9.9790325;-0.05746084
14:51:01:789;14:51:01:689;-0.34476504;9.9790325;-0.05746084
14:51:01:796;14:51:01:689;-0.34476504;9.9790325;-0.05746084
14:51:01:804;14:51:01:689;-0.34476504;9.9790325;-0.05746084
14:51:01:812;14:51:01:807;-0.2873042;9.902418;-0.076614454
14:51:01:820;14:51:01:807;-0.2873042;9.902418;-0.076614454
14:51:01:828;14:51:01:807;-0.2873042;9.902418;-0.076614454
14:51:01:835;14:51:01:807;-0.2873042;9.902418;-0.076614454
14:51:01:843;14:51:01:807;-0.2873042;9.902418;-0.076614454
14:51:01:851;14:51:01:807;-0.2873042;9.902418;-0.076614454
14:51:01:859;14:51:01:807;-0.2873042;9.902418;-0.076614454
14:51:01:867;14:51:01:807;-0.2873042;9.902418;-0.076614454
14:51:01:875;14:51:01:807;-0.2873042;9.902418;-0.076614454
14:51:01:882;14:51:01:807;-0.2873042;9.902418;-0.076614454
14:51:01:890;14:51:01:807;-0.2873042;9.902418;-0.076614454
14:51:01:898;14:51:01:807;-0.2873042;9.902418;-0.076614454
14:51:01:906;14:51:01:807;-0.2873042;9.902418;-0.076614454
14:51:01:914;14:51:01:807;-0.2873042;9.902418;-0.076614454
14:51:01:921;14:51:01:807;-0.2873042;9.902418;-0.076614454
14:51:01:929;14:51:01:925;-0.24899697;9.940725;0.17238252
14:51:01:937;14:51:01:925;-0.24899697;9.940725;0.17238252
14:51:01:945;14:51:01:925;-0.24899697;9.940725;0.17238252
14:51:01:953;14:51:01:925;-0.24899697;9.940725;0.17238252
14:51:01:960;14:51:01:925;-0.24899697;9.940725;0.17238252
14:51:01:968;14:51:01:925;-0.24899697;9.940725;0.17238252
14:51:01:976;14:51:01:925;-0.24899697;9.940725;0.17238252
14:51:01:984;14:51:01:925;-0.24899697;9.940725;0.17238252
14:51:01:992;14:51:01:925;-0.24899697;9.940725;0.17238252
14:51:02:000;14:51:01:925;-0.24899697;9.940725;0.17238252
14:51:02:007;14:51:01:925;-0.24899697;9.940725;0.17238252
14:51:02:015;14:51:01:925;-0.24899697;9.940725;0.17238252
14:51:02:023;14:51:01:925;-0.24899697;9.940725;0.17238252
14:51:02:031;14:51:01:925;-0.24899697;9.940725;0.17238252
14:51:02:039;14:51:01:925;-0.24899697;9.940725;0.17238252
14:51:02:046;14:51:01:925;-0.24899697;9.940725;0.17238252
14:51:02:054;14:51:01:925;-0.24899697;9.940725;0.17238252
14:51:02:062;14:51:02:060;-0.19153613;9.959879;0.05746084
14:51:02:070;14:51:02:060;-0.19153613;9.959879;0.05746084
14:51:02:078;14:51:02:060;-0.19153613;9.959879;0.05746084
14:51:02:085;14:51:02:060;-0.19153613;9.959879;0.05746084
14:51:02:093;14:51:02:060;-0.19153613;9.959879;0.05746084
14:51:02:101;14:51:02:060;-0.19153613;9.959879;0.05746084
14:51:02:109;14:51:02:060;-0.19153613;9.959879;0.05746084
14:51:02:117;14:51:02:060;-0.19153613;9.959879;0.05746084
14:51:02:125;14:51:02:060;-0.19153613;9.959879;0.05746084
14:51:02:132;14:51:02:060;-0.19153613;9.959879;0.05746084
14:51:02:140;14:51:02:060;-0.19153613;9.959879;0.05746084
14:51:02:148;14:51:02:060;-0.19153613;9.959879;0.05746084
14:51:02:156;14:51:02:060;-0.19153613;9.959879;0.05746084
14:51:02:164;14:51:02:060;-0.19153613;9.959879;0.05746084
14:51:02:171;14:51:02:060;-0.19153613;9.959879;0.05746084
14:51:02:179;14:51:02:179;-0.22984336;9.902418;0.095768064
14:51:02:187;14:51:02:179;-0.22984336;9.902418;0.095768064
14:51:02:195;14:51:02:179;-0.22984336;9.902418;0.095768064
14:51:02:203;14:51:02:179;-0.22984336;9.902418;0.095768064
14:51:02:210;14:51:02:179;-0.22984336;9.902418;0.095768064
14:51:02:218;14:51:02:179;-0.22984336;9.902418;0.095768064
14:51:02:226;14:51:02:179;-0.22984336;9.902418;0.095768064
14:51:02:234;14:51:02:179;-0.22984336;9.902418;0.095768064
14:51:02:242;14:51:02:179;-0.22984336;9.902418;0.095768064
14:51:02:250;14:51:02:179;-0.22984336;9.902418;0.095768064
14:51:02:257;14:51:02:179;-0.22984336;9.902418;0.095768064
14:51:02:265;14:51:02:179;-0.22984336;9.902418;0.095768064
14:51:02:273;14:51:02:179;-0.22984336;9.902418;0.095768064
14:51:02:281;14:51:02:179;-0.22984336;9.902418;0.095768064
14:51:02:289;14:51:02:283;-0.24899697;9.844957;0.095768064
14:51:02:296;14:51:02:283;-0.24899697;9.844957;0.095768064
14:51:02:304;14:51:02:283;-0.24899697;9.844957;0.095768064
14:51:02:312;14:51:02:283;-0.24899697;9.844957;0.095768064
14:51:02:320;14:51:02:283;-0.24899697;9.844957;0.095768064
14:51:02:328;14:51:02:283;-0.24899697;9.844957;0.095768064
14:51:02:335;14:51:02:283;-0.24899697;9.844957;0.095768064
14:51:02:343;14:51:02:283;-0.24899697;9.844957;0.095768064
14:51:02:351;14:51:02:283;-0.24899697;9.844957;0.095768064
14:51:02:359;14:51:02:283;-0.24899697;9.844957;0.095768064
14:51:02:367;14:51:02:283;-0.24899697;9.844957;0.095768064
14:51:02:375;14:51:02:283;-0.24899697;9.844957;0.095768064
14:51:02:382;14:51:02:283;-0.24899697;9.844957;0.095768064
14:51:02:390;14:51:02:283;-0.24899697;9.844957;0.095768064
14:51:02:398;14:51:02:283;-0.24899697;9.844957;0.095768064
14:51:02:406;14:51:02:283;-0.24899697;9.844957;0.095768064
14:51:02:414;14:51:02:409;-0.36391866;9.959879;0.095768064
14:51:02:421;14:51:02:409;-0.36391866;9.959879;0.095768064
14:51:02:429;14:51:02:409;-0.36391866;9.959879;0.095768064
14:51:02:437;14:51:02:409;-0.36391866;9.959879;0.095768064
14:51:02:445;14:51:02:409;-0.36391866;9.959879;0.095768064
14:51:02:453;14:51:02:409;-0.36391866;9.959879;0.095768064
14:51:02:460;14:51:02:409;-0.36391866;9.959879;0.095768064
14:51:02:468;14:51:02:409;-0.36391866;9.959879;0.095768064
14:51:02:476;14:51:02:409;-0.36391866;9.959879;0.095768064
14:51:02:484;14:51:02:409;-0.36391866;9.959879;0.095768064
14:51:02:492;14:51:02:409;-0.36391866;9.959879;0.095768064
14:51:02:500;14:51:02:409;-0.36391866;9.959879;0.095768064
14:51:02:507;14:51:02:409;-0.36391866;9.959879;0.095768064
14:51:02:515;14:51:02:511;-0.2873042;9.921572;-0.038307227
14:51:02:523;14:51:02:511;-0.2873042;9.921572;-0.038307227
14:51:02:531;14:51:02:511;-0.2873042;9.921572;-0.038307227
14:51:02:539;14:51:02:511;-0.2873042;9.921572;-0.038307227
14:51:02:546;14:51:02:511;-0.2873042;9.921572;-0.038307227
14:51:02:554;14:51:02:511;-0.2873042;9.921572;-0.038307227
14:51:02:562;14:51:02:511;-0.2873042;9.921572;-0.038307227
14:51:02:570;14:51:02:511;-0.2873042;9.921572;-0.038307227
14:51:02:578;14:51:02:511;-0.2873042;9.921572;-0.038307227
14:51:02:585;14:51:02:511;-0.2873042;9.921572;-0.038307227
14:51:02:593;14:51:02:511;-0.2873042;9.921572;-0.038307227
14:51:02:601;14:51:02:511;-0.2873042;9.921572;-0.038307227
14:51:02:609;14:51:02:511;-0.2873042;9.921572;-0.038307227
14:51:02:617;14:51:02:511;-0.2873042;9.921572;-0.038307227
14:51:02:625;14:51:02:511;-0.2873042;9.921572;-0.038307227
14:51:02:632;14:51:02:511;-0.2873042;9.921572;-0.038307227
14:51:02:640;14:51:02:634;-0.30645782;9.864111;0.076614454
14:51:02:648;14:51:02:634;-0.30645782;9.864111;0.076614454
14:51:02:656;14:51:02:634;-0.30645782;9.864111;0.076614454
14:51:02:664;14:51:02:634;-0.30645782;9.864111;0.076614454
14:51:02:671;14:51:02:634;-0.30645782;9.864111;0.076614454
14:51:02:679;14:51:02:634;-0.30645782;9.864111;0.076614454
14:51:02:687;14:51:02:634;-0.30645782;9.864111;0.076614454
14:51:02:695;14:51:02:634;-0.30645782;9.864111;0.076614454
14:51:02:703;14:51:02:634;-0.30645782;9.864111;0.076614454
14:51:02:710;14:51:02:634;-0.30645782;9.864111;0.076614454
14:51:02:718;14:51:02:634;-0.30645782;9.864111;0.076614454
14:51:02:726;14:51:02:634;-0.30645782;9.864111;0.076614454
14:51:02:734;14:51:02:634;-0.30645782;9.864111;0.076614454
14:51:02:742;14:51:02:634;-0.30645782;9.864111;0.076614454
14:51:02:750;14:51:02:747;0.9576807;9.787497;-0.38307226
14:51:02:757;14:51:02:747;0.9576807;9.787497;-0.38307226
14:51:02:765;14:51:02:747;0.9576807;9.787497;-0.38307226
14:51:02:773;14:51:02:747;0.9576807;9.787497;-0.38307226
14:51:02:781;14:51:02:747;0.9576807;9.787497;-0.38307226
14:51:02:789;14:51:02:747;0.9576807;9.787497;-0.38307226
14:51:02:796;14:51:02:747;0.9576807;9.787497;-0.38307226
14:51:02:804;14:51:02:747;0.9576807;9.787497;-0.38307226
14:51:02:812;14:51:02:747;0.9576807;9.787497;-0.38307226
14:51:02:820;14:51:02:747;0.9576807;9.787497;-0.38307226
14:51:02:828;14:51:02:747;0.9576807;9.787497;-0.38307226
14:51:02:835;14:51:02:747;0.9576807;9.787497;-0.38307226
14:51:02:843;14:51:02:747;0.9576807;9.787497;-0.38307226
14:51:02:851;14:51:02:747;0.9576807;9.787497;-0.38307226
14:51:02:859;14:51:02:852;-0.4405331;9.672575;0.30645782
14:51:02:867;14:51:02:852;-0.4405331;9.672575;0.30645782
14:51:02:875;14:51:02:852;-0.4405331;9.672575;0.30645782
14:51:02:882;14:51:02:852;-0.4405331;9.672575;0.30645782
14:51:02:890;14:51:02:852;-0.4405331;9.672575;0.30645782
