Time_Accel;AccelX;AccelY;AccelZ
10:25:25:960;-0.47884035;10.266336;-1.0151415
10:25:25:960;-0.47884035;10.266336;-1.0151415
10:25:25:960;-0.47884035;10.266336;-1.0151415
10:25:25:960;-0.47884035;10.266336;-1.0151415
10:25:25:960;-0.47884035;10.266336;-1.0151415
10:25:25:960;-0.47884035;10.266336;-1.0151415
10:25:25:960;-0.47884035;10.266336;-1.0151415
10:25:25:960;-0.47884035;10.266336;-1.0151415
10:25:25:960;-0.47884035;10.266336;-1.0151415
10:25:25:960;-0.47884035;10.266336;-1.0151415
10:25:25:960;-0.47884035;10.266336;-1.0151415
10:25:25:960;-0.47884035;10.266336;-1.0151415
10:25:26:078;-0.2873042;9.730036;-0.11492168
10:25:26:078;-0.2873042;9.730036;-0.11492168
10:25:26:078;-0.2873042;9.730036;-0.11492168
10:25:26:078;-0.2873042;9.730036;-0.11492168
10:25:26:078;-0.2873042;9.730036;-0.11492168
10:25:26:078;-0.2873042;9.730036;-0.11492168
10:25:26:078;-0.2873042;9.730036;-0.11492168
10:25:26:078;-0.2873042;9.730036;-0.11492168
10:25:26:078;-0.2873042;9.730036;-0.11492168
10:25:26:078;-0.2873042;9.730036;-0.11492168
10:25:26:078;-0.2873042;9.730036;-0.11492168
10:25:26:078;-0.2873042;9.730036;-0.11492168
10:25:26:078;-0.2873042;9.730036;-0.11492168
10:25:26:078;-0.2873042;9.730036;-0.11492168
10:25:26:078;-0.2873042;9.730036;-0.11492168
10:25:26:078;-0.2873042;9.730036;-0.11492168
10:25:26:198;-0.842759;10.323798;-0.49799395
10:25:26:198;-0.842759;10.323798;-0.49799395
10:25:26:198;-0.842759;10.323798;-0.49799395
10:25:26:198;-0.842759;10.323798;-0.49799395
10:25:26:198;-0.842759;10.323798;-0.49799395
10:25:26:198;-0.842759;10.323798;-0.49799395
10:25:26:198;-0.842759;10.323798;-0.49799395
10:25:26:198;-0.842759;10.323798;-0.49799395
10:25:26:198;-0.842759;10.323798;-0.49799395
10:25:26:198;-0.842759;10.323798;-0.49799395
10:25:26:198;-0.842759;10.323798;-0.49799395
10:25:26:198;-0.842759;10.323798;-0.49799395
10:25:26:198;-0.842759;10.323798;-0.49799395
10:25:26:198;-0.842759;10.323798;-0.49799395
10:25:26:198;-0.842759;10.323798;-0.49799395
10:25:26:317;-0.842759;9.9790325;0.11492168
10:25:26:317;-0.842759;9.9790325;0.11492168
10:25:26:317;-0.842759;9.9790325;0.11492168
10:25:26:317;-0.842759;9.9790325;0.11492168
10:25:26:317;-0.842759;9.9790325;0.11492168
10:25:26:317;-0.842759;9.9790325;0.11492168
10:25:26:317;-0.842759;9.9790325;0.11492168
10:25:26:317;-0.842759;9.9790325;0.11492168
10:25:26:317;-0.842759;9.9790325;0.11492168
10:25:26:317;-0.842759;9.9790325;0.11492168
10:25:26:317;-0.842759;9.9790325;0.11492168
10:25:26:317;-0.842759;9.9790325;0.11492168
10:25:26:317;-0.842759;9.9790325;0.11492168
10:25:26:317;-0.842759;9.9790325;0.11492168
10:25:26:317;-0.842759;9.9790325;0.11492168
10:25:26:436;-0.38307226;9.864111;-0.22984336
10:25:26:436;-0.38307226;9.864111;-0.22984336
10:25:26:436;-0.38307226;9.864111;-0.22984336
10:25:26:436;-0.38307226;9.864111;-0.22984336
10:25:26:436;-0.38307226;9.864111;-0.22984336
10:25:26:436;-0.38307226;9.864111;-0.22984336
10:25:26:436;-0.38307226;9.864111;-0.22984336
10:25:26:436;-0.38307226;9.864111;-0.22984336
10:25:26:436;-0.38307226;9.864111;-0.22984336
10:25:26:436;-0.38307226;9.864111;-0.22984336
10:25:26:436;-0.38307226;9.864111;-0.22984336
10:25:26:436;-0.38307226;9.864111;-0.22984336
10:25:26:436;-0.38307226;9.864111;-0.22984336
10:25:26:436;-0.38307226;9.864111;-0.22984336
10:25:26:436;-0.38307226;9.864111;-0.22984336
10:25:26:436;-0.38307226;9.864111;-0.22984336
10:25:26:436;-0.38307226;9.864111;-0.22984336
10:25:26:436;-0.38307226;9.864111;-0.22984336
10:25:26:436;-0.38307226;9.864111;-0.22984336
10:25:26:436;-0.38307226;9.864111;-0.22984336
10:25:26:589;-0.4405331;10.802638;-1.0534488
10:25:26:589;-0.4405331;10.802638;-1.0534488
10:25:26:589;-0.4405331;10.802638;-1.0534488
10:25:26:589;-0.4405331;10.802638;-1.0534488
10:25:26:589;-0.4405331;10.802638;-1.0534488
10:25:26:589;-0.4405331;10.802638;-1.0534488
10:25:26:589;-0.4405331;10.802638;-1.0534488
10:25:26:589;-0.4405331;10.802638;-1.0534488
10:25:26:589;-0.4405331;10.802638;-1.0534488
10:25:26:589;-0.4405331;10.802638;-1.0534488
10:25:26:589;-0.4405331;10.802638;-1.0534488
10:25:26:589;-0.4405331;10.802638;-1.0534488
10:25:26:589;-0.4405331;10.802638;-1.0534488
10:25:26:589;-0.4405331;10.802638;-1.0534488
10:25:26:698;-0.19153613;9.232041;-0.095768064
10:25:26:698;-0.19153613;9.232041;-0.095768064
10:25:26:698;-0.19153613;9.232041;-0.095768064
10:25:26:698;-0.19153613;9.232041;-0.095768064
10:25:26:698;-0.19153613;9.232041;-0.095768064
10:25:26:698;-0.19153613;9.232041;-0.095768064
10:25:26:698;-0.19153613;9.232041;-0.095768064
10:25:26:698;-0.19153613;9.232041;-0.095768064
10:25:26:698;-0.19153613;9.232041;-0.095768064
10:25:26:698;-0.19153613;9.232041;-0.095768064
10:25:26:698;-0.19153613;9.232041;-0.095768064
10:25:26:698;-0.19153613;9.232041;-0.095768064
10:25:26:698;-0.19153613;9.232041;-0.095768064
10:25:26:698;-0.19153613;9.232041;-0.095768064
10:25:26:698;-0.19153613;9.232041;-0.095768064
10:25:26:816;-0.17238252;9.998186;-1.0342951
10:25:26:816;-0.17238252;9.998186;-1.0342951
10:25:26:816;-0.17238252;9.998186;-1.0342951
10:25:26:816;-0.17238252;9.998186;-1.0342951
10:25:26:816;-0.17238252;9.998186;-1.0342951
10:25:26:816;-0.17238252;9.998186;-1.0342951
10:25:26:816;-0.17238252;9.998186;-1.0342951
10:25:26:816;-0.17238252;9.998186;-1.0342951
10:25:26:816;-0.17238252;9.998186;-1.0342951
10:25:26:816;-0.17238252;9.998186;-1.0342951
10:25:26:816;-0.17238252;9.998186;-1.0342951
10:25:26:816;-0.17238252;9.998186;-1.0342951
10:25:26:816;-0.17238252;9.998186;-1.0342951
10:25:26:918;-0.2681506;9.787497;-0.15322891
10:25:26:918;-0.2681506;9.787497;-0.15322891
10:25:26:918;-0.2681506;9.787497;-0.15322891
10:25:26:918;-0.2681506;9.787497;-0.15322891
10:25:26:918;-0.2681506;9.787497;-0.15322891
10:25:26:918;-0.2681506;9.787497;-0.15322891
10:25:26:918;-0.2681506;9.787497;-0.15322891
10:25:26:918;-0.2681506;9.787497;-0.15322891
10:25:26:918;-0.2681506;9.787497;-0.15322891
10:25:26:918;-0.2681506;9.787497;-0.15322891
10:25:26:918;-0.2681506;9.787497;-0.15322891
10:25:26:918;-0.2681506;9.787497;-0.15322891
10:25:26:918;-0.2681506;9.787497;-0.15322891
10:25:26:918;-0.2681506;9.787497;-0.15322891
10:25:27:028;-0.6512229;10.247183;-0.2873042
10:25:27:028;-0.6512229;10.247183;-0.2873042
10:25:27:028;-0.6512229;10.247183;-0.2873042
10:25:27:028;-0.6512229;10.247183;-0.2873042
10:25:27:028;-0.6512229;10.247183;-0.2873042
10:25:27:028;-0.6512229;10.247183;-0.2873042
10:25:27:028;-0.6512229;10.247183;-0.2873042
10:25:27:028;-0.6512229;10.247183;-0.2873042
10:25:27:028;-0.6512229;10.247183;-0.2873042
10:25:27:028;-0.6512229;10.247183;-0.2873042
10:25:27:028;-0.6512229;10.247183;-0.2873042
10:25:27:028;-0.6512229;10.247183;-0.2873042
10:25:27:028;-0.6512229;10.247183;-0.2873042
10:25:27:028;-0.6512229;10.247183;-0.2873042
10:25:27:028;-0.6512229;10.247183;-0.2873042
10:25:27:146;-0.095768064;9.9790325;-0.19153613
10:25:27:146;-0.095768064;9.9790325;-0.19153613
10:25:27:146;-0.095768064;9.9790325;-0.19153613
10:25:27:146;-0.095768064;9.9790325;-0.19153613
10:25:27:146;-0.095768064;9.9790325;-0.19153613
10:25:27:146;-0.095768064;9.9790325;-0.19153613
10:25:27:146;-0.095768064;9.9790325;-0.19153613
10:25:27:146;-0.095768064;9.9790325;-0.19153613
10:25:27:146;-0.095768064;9.9790325;-0.19153613
10:25:27:146;-0.095768064;9.9790325;-0.19153613
10:25:27:146;-0.095768064;9.9790325;-0.19153613
10:25:27:146;-0.095768064;9.9790325;-0.19153613
10:25:27:146;-0.095768064;9.9790325;-0.19153613
10:25:27:146;-0.095768064;9.9790325;-0.19153613
10:25:27:252;-0.63206923;10.01734;-0.7278373
10:25:27:252;-0.63206923;10.01734;-0.7278373
10:25:27:252;-0.63206923;10.01734;-0.7278373
10:25:27:252;-0.63206923;10.01734;-0.7278373
10:25:27:252;-0.63206923;10.01734;-0.7278373
10:25:27:252;-0.63206923;10.01734;-0.7278373
10:25:27:252;-0.63206923;10.01734;-0.7278373
10:25:27:252;-0.63206923;10.01734;-0.7278373
10:25:27:252;-0.63206923;10.01734;-0.7278373
10:25:27:252;-0.63206923;10.01734;-0.7278373
10:25:27:252;-0.63206923;10.01734;-0.7278373
10:25:27:252;-0.63206923;10.01734;-0.7278373
10:25:27:252;-0.63206923;10.01734;-0.7278373
10:25:27:252;-0.63206923;10.01734;-0.7278373
10:25:27:366;-0.49799395;10.208876;-0.78529817
10:25:27:366;-0.49799395;10.208876;-0.78529817
10:25:27:366;-0.49799395;10.208876;-0.78529817
10:25:27:366;-0.49799395;10.208876;-0.78529817
10:25:27:366;-0.49799395;10.208876;-0.78529817
10:25:27:366;-0.49799395;10.208876;-0.78529817
10:25:27:366;-0.49799395;10.208876;-0.78529817
10:25:27:366;-0.49799395;10.208876;-0.78529817
10:25:27:366;-0.49799395;10.208876;-0.78529817
10:25:27:366;-0.49799395;10.208876;-0.78529817
10:25:27:366;-0.49799395;10.208876;-0.78529817
10:25:27:366;-0.49799395;10.208876;-0.78529817
10:25:27:366;-0.49799395;10.208876;-0.78529817
10:25:27:467;0.11492168;9.634268;-0.19153613
10:25:27:467;0.11492168;9.634268;-0.19153613
10:25:27:467;0.11492168;9.634268;-0.19153613
10:25:27:467;0.11492168;9.634268;-0.19153613
10:25:27:467;0.11492168;9.634268;-0.19153613
10:25:27:467;0.11492168;9.634268;-0.19153613
10:25:27:467;0.11492168;9.634268;-0.19153613
10:25:27:467;0.11492168;9.634268;-0.19153613
10:25:27:467;0.11492168;9.634268;-0.19153613
10:25:27:467;0.11492168;9.634268;-0.19153613
10:25:27:467;0.11492168;9.634268;-0.19153613
10:25:27:467;0.11492168;9.634268;-0.19153613
10:25:27:467;0.11492168;9.634268;-0.19153613
10:25:27:467;0.11492168;9.634268;-0.19153613
10:25:27:467;0.11492168;9.634268;-0.19153613
10:25:27:585;-0.076614454;9.481039;0.19153613
10:25:27:585;-0.076614454;9.481039;0.19153613
10:25:27:585;-0.076614454;9.481039;0.19153613
10:25:27:585;-0.076614454;9.481039;0.19153613
10:25:27:585;-0.076614454;9.481039;0.19153613
10:25:27:585;-0.076614454;9.481039;0.19153613
10:25:27:585;-0.076614454;9.481039;0.19153613
10:25:27:585;-0.076614454;9.481039;0.19153613
10:25:27:585;-0.076614454;9.481039;0.19153613
10:25:27:585;-0.076614454;9.481039;0.19153613
10:25:27:585;-0.076614454;9.481039;0.19153613
10:25:27:585;-0.076614454;9.481039;0.19153613
10:25:27:585;-0.076614454;9.481039;0.19153613
10:25:27:686;0.076614454;9.672575;0.095768064
10:25:27:686;0.076614454;9.672575;0.095768064
10:25:27:686;0.076614454;9.672575;0.095768064
10:25:27:686;0.076614454;9.672575;0.095768064
10:25:27:686;0.076614454;9.672575;0.095768064
10:25:27:686;0.076614454;9.672575;0.095768064
10:25:27:686;0.076614454;9.672575;0.095768064
10:25:27:686;0.076614454;9.672575;0.095768064
10:25:27:686;0.076614454;9.672575;0.095768064
10:25:27:686;0.076614454;9.672575;0.095768064
10:25:27:686;0.076614454;9.672575;0.095768064
10:25:27:686;0.076614454;9.672575;0.095768064
10:25:27:686;0.076614454;9.672575;0.095768064
10:25:27:686;0.076614454;9.672575;0.095768064
10:25:27:686;0.076614454;9.672575;0.095768064
10:25:27:802;0.095768064;10.400413;-0.78529817
10:25:27:802;0.095768064;10.400413;-0.78529817
10:25:27:802;0.095768064;10.400413;-0.78529817
10:25:27:802;0.095768064;10.400413;-0.78529817
10:25:27:802;0.095768064;10.400413;-0.78529817
10:25:27:802;0.095768064;10.400413;-0.78529817
10:25:27:802;0.095768064;10.400413;-0.78529817
10:25:27:802;0.095768064;10.400413;-0.78529817
10:25:27:802;0.095768064;10.400413;-0.78529817
10:25:27:802;0.095768064;10.400413;-0.78529817
10:25:27:802;0.095768064;10.400413;-0.78529817
10:25:27:802;0.095768064;10.400413;-0.78529817
10:25:27:802;0.095768064;10.400413;-0.78529817
10:25:27:802;0.095768064;10.400413;-0.78529817
10:25:27:908;-0.076614454;9.691729;-0.47884035
10:25:27:908;-0.076614454;9.691729;-0.47884035
10:25:27:908;-0.076614454;9.691729;-0.47884035
10:25:27:908;-0.076614454;9.691729;-0.47884035
10:25:27:908;-0.076614454;9.691729;-0.47884035
10:25:27:908;-0.076614454;9.691729;-0.47884035
10:25:27:908;-0.076614454;9.691729;-0.47884035
10:25:27:908;-0.076614454;9.691729;-0.47884035
10:25:27:908;-0.076614454;9.691729;-0.47884035
10:25:27:908;-0.076614454;9.691729;-0.47884035
10:25:27:908;-0.076614454;9.691729;-0.47884035
10:25:27:908;-0.076614454;9.691729;-0.47884035
10:25:27:908;-0.076614454;9.691729;-0.47884035
10:25:27:908;-0.076614454;9.691729;-0.47884035
10:25:27:908;-0.076614454;9.691729;-0.47884035
10:25:28:028;0.019153614;9.653421;-0.076614454
10:25:28:028;0.019153614;9.653421;-0.076614454
10:25:28:028;0.019153614;9.653421;-0.076614454
10:25:28:028;0.019153614;9.653421;-0.076614454
10:25:28:028;0.019153614;9.653421;-0.076614454
10:25:28:028;0.019153614;9.653421;-0.076614454
10:25:28:028;0.019153614;9.653421;-0.076614454
10:25:28:028;0.019153614;9.653421;-0.076614454
10:25:28:028;0.019153614;9.653421;-0.076614454
10:25:28:028;0.019153614;9.653421;-0.076614454
10:25:28:028;0.019153614;9.653421;-0.076614454
10:25:28:028;0.019153614;9.653421;-0.076614454
10:25:28:028;0.019153614;9.653421;-0.076614454
10:25:28:028;0.019153614;9.653421;-0.076614454
10:25:28:028;0.019153614;9.653421;-0.076614454
10:25:28:145;0.6703765;9.80665;-0.4213795
10:25:28:145;0.6703765;9.80665;-0.4213795
10:25:28:145;0.6703765;9.80665;-0.4213795
10:25:28:145;0.6703765;9.80665;-0.4213795
10:25:28:145;0.6703765;9.80665;-0.4213795
10:25:28:145;0.6703765;9.80665;-0.4213795
10:25:28:145;0.6703765;9.80665;-0.4213795
10:25:28:145;0.6703765;9.80665;-0.4213795
10:25:28:145;0.6703765;9.80665;-0.4213795
10:25:28:145;0.6703765;9.80665;-0.4213795
10:25:28:145;0.6703765;9.80665;-0.4213795
10:25:28:145;0.6703765;9.80665;-0.4213795
10:25:28:145;0.6703765;9.80665;-0.4213795
10:25:28:145;0.6703765;9.80665;-0.4213795
10:25:28:145;0.6703765;9.80665;-0.4213795
10:25:28:264;0.019153614;10.649409;-0.7661445
10:25:28:264;0.019153614;10.649409;-0.7661445
10:25:28:264;0.019153614;10.649409;-0.7661445
10:25:28:264;0.019153614;10.649409;-0.7661445
10:25:28:264;0.019153614;10.649409;-0.7661445
10:25:28:264;0.019153614;10.649409;-0.7661445
10:25:28:264;0.019153614;10.649409;-0.7661445
10:25:28:264;0.019153614;10.649409;-0.7661445
10:25:28:264;0.019153614;10.649409;-0.7661445
10:25:28:264;0.019153614;10.649409;-0.7661445
10:25:28:264;0.019153614;10.649409;-0.7661445
10:25:28:264;0.019153614;10.649409;-0.7661445
10:25:28:264;0.019153614;10.649409;-0.7661445
10:25:28:264;0.019153614;10.649409;-0.7661445
10:25:28:264;0.019153614;10.649409;-0.7661445
10:25:28:264;0.019153614;10.649409;-0.7661445
10:25:28:383;0.4405331;9.461885;-0.15322891
10:25:28:383;0.4405331;9.461885;-0.15322891
10:25:28:383;0.4405331;9.461885;-0.15322891
10:25:28:383;0.4405331;9.461885;-0.15322891
10:25:28:383;0.4405331;9.461885;-0.15322891
10:25:28:383;0.4405331;9.461885;-0.15322891
10:25:28:383;0.4405331;9.461885;-0.15322891
10:25:28:383;0.4405331;9.461885;-0.15322891
10:25:28:383;0.4405331;9.461885;-0.15322891
10:25:28:383;0.4405331;9.461885;-0.15322891
10:25:28:383;0.4405331;9.461885;-0.15322891
10:25:28:383;0.4405331;9.461885;-0.15322891
10:25:28:383;0.4405331;9.461885;-0.15322891
10:25:28:383;0.4405331;9.461885;-0.15322891
10:25:28:383;0.4405331;9.461885;-0.15322891
10:25:28:383;0.4405331;9.461885;-0.15322891
10:25:28:383;0.4405331;9.461885;-0.15322891
10:25:28:383;0.4405331;9.461885;-0.15322891
10:25:28:383;0.4405331;9.461885;-0.15322891
10:25:28:383;0.4405331;9.461885;-0.15322891
10:25:28:383;0.4405331;9.461885;-0.15322891
10:25:28:383;0.4405331;9.461885;-0.15322891
10:25:28:383;0.4405331;9.461885;-0.15322891
10:25:28:383;0.4405331;9.461885;-0.15322891
10:25:28:573;0.5554548;9.902418;-0.4405331
10:25:28:573;0.5554548;9.902418;-0.4405331
10:25:28:573;0.5554548;9.902418;-0.4405331
10:25:28:573;0.5554548;9.902418;-0.4405331
10:25:28:573;0.5554548;9.902418;-0.4405331
10:25:28:573;0.5554548;9.902418;-0.4405331
10:25:28:573;0.5554548;9.902418;-0.4405331
10:25:28:573;0.5554548;9.902418;-0.4405331
10:25:28:573;0.5554548;9.902418;-0.4405331
10:25:28:573;0.5554548;9.902418;-0.4405331
10:25:28:573;0.5554548;9.902418;-0.4405331
10:25:28:573;0.5554548;9.902418;-0.4405331
10:25:28:573;0.5554548;9.902418;-0.4405331
10:25:28:573;0.5554548;9.902418;-0.4405331
10:25:28:680;0.21068975;9.615114;-0.17238252
10:25:28:680;0.21068975;9.615114;-0.17238252
10:25:28:680;0.21068975;9.615114;-0.17238252
10:25:28:680;0.21068975;9.615114;-0.17238252
10:25:28:680;0.21068975;9.615114;-0.17238252
10:25:28:680;0.21068975;9.615114;-0.17238252
10:25:28:680;0.21068975;9.615114;-0.17238252
10:25:28:680;0.21068975;9.615114;-0.17238252
10:25:28:680;0.21068975;9.615114;-0.17238252
10:25:28:680;0.21068975;9.615114;-0.17238252
10:25:28:680;0.21068975;9.615114;-0.17238252
10:25:28:680;0.21068975;9.615114;-0.17238252
10:25:28:680;0.21068975;9.615114;-0.17238252
10:25:28:680;0.21068975;9.615114;-0.17238252
10:25:28:680;0.21068975;9.615114;-0.17238252
10:25:28:798;0.9576807;9.404425;-0.21068975
10:25:28:798;0.9576807;9.404425;-0.21068975
10:25:28:798;0.9576807;9.404425;-0.21068975
10:25:28:798;0.9576807;9.404425;-0.21068975
10:25:28:798;0.9576807;9.404425;-0.21068975
10:25:28:798;0.9576807;9.404425;-0.21068975
10:25:28:798;0.9576807;9.404425;-0.21068975
10:25:28:798;0.9576807;9.404425;-0.21068975
10:25:28:798;0.9576807;9.404425;-0.21068975
10:25:28:798;0.9576807;9.404425;-0.21068975
10:25:28:798;0.9576807;9.404425;-0.21068975
10:25:28:798;0.9576807;9.404425;-0.21068975
10:25:28:798;0.9576807;9.404425;-0.21068975
10:25:28:905;-0.038307227;9.308656;0.095768064
10:25:28:905;-0.038307227;9.308656;0.095768064
10:25:28:905;-0.038307227;9.308656;0.095768064
10:25:28:905;-0.038307227;9.308656;0.095768064
10:25:28:905;-0.038307227;9.308656;0.095768064
10:25:28:905;-0.038307227;9.308656;0.095768064
10:25:28:905;-0.038307227;9.308656;0.095768064
10:25:28:905;-0.038307227;9.308656;0.095768064
10:25:28:905;-0.038307227;9.308656;0.095768064
10:25:28:905;-0.038307227;9.308656;0.095768064
10:25:28:905;-0.038307227;9.308656;0.095768064
10:25:28:905;-0.038307227;9.308656;0.095768064
10:25:28:905;-0.038307227;9.308656;0.095768064
10:25:28:905;-0.038307227;9.308656;0.095768064
10:25:28:905;-0.038307227;9.308656;0.095768064
10:25:29:023;0.5554548;9.270349;-0.21068975
10:25:29:023;0.5554548;9.270349;-0.21068975
10:25:29:023;0.5554548;9.270349;-0.21068975
10:25:29:023;0.5554548;9.270349;-0.21068975
10:25:29:023;0.5554548;9.270349;-0.21068975
10:25:29:023;0.5554548;9.270349;-0.21068975
10:25:29:023;0.5554548;9.270349;-0.21068975
10:25:29:023;0.5554548;9.270349;-0.21068975
10:25:29:023;0.5554548;9.270349;-0.21068975
10:25:29:023;0.5554548;9.270349;-0.21068975
10:25:29:023;0.5554548;9.270349;-0.21068975
10:25:29:023;0.5554548;9.270349;-0.21068975
10:25:29:023;0.5554548;9.270349;-0.21068975
10:25:29:023;0.5554548;9.270349;-0.21068975
10:25:29:127;0.17238252;9.519346;-0.45968673
10:25:29:127;0.17238252;9.519346;-0.45968673
10:25:29:127;0.17238252;9.519346;-0.45968673
10:25:29:127;0.17238252;9.519346;-0.45968673
10:25:29:127;0.17238252;9.519346;-0.45968673
10:25:29:127;0.17238252;9.519346;-0.45968673
10:25:29:127;0.17238252;9.519346;-0.45968673
10:25:29:127;0.17238252;9.519346;-0.45968673
10:25:29:127;0.17238252;9.519346;-0.45968673
10:25:29:127;0.17238252;9.519346;-0.45968673
10:25:29:127;0.17238252;9.519346;-0.45968673
10:25:29:127;0.17238252;9.519346;-0.45968673
10:25:29:127;0.17238252;9.519346;-0.45968673
10:25:29:127;0.17238252;9.519346;-0.45968673
10:25:29:127;0.17238252;9.519346;-0.45968673
10:25:29:243;-0.4213795;10.228029;-0.7278373
10:25:29:243;-0.4213795;10.228029;-0.7278373
10:25:29:243;-0.4213795;10.228029;-0.7278373
10:25:29:243;-0.4213795;10.228029;-0.7278373
10:25:29:243;-0.4213795;10.228029;-0.7278373
10:25:29:243;-0.4213795;10.228029;-0.7278373
10:25:29:243;-0.4213795;10.228029;-0.7278373
10:25:29:243;-0.4213795;10.228029;-0.7278373
10:25:29:243;-0.4213795;10.228029;-0.7278373
10:25:29:243;-0.4213795;10.228029;-0.7278373
10:25:29:243;-0.4213795;10.228029;-0.7278373
10:25:29:243;-0.4213795;10.228029;-0.7278373
10:25:29:243;-0.4213795;10.228029;-0.7278373
10:25:29:345;0.6703765;10.093954;-0.7469909
10:25:29:345;0.6703765;10.093954;-0.7469909
10:25:29:345;0.6703765;10.093954;-0.7469909
10:25:29:345;0.6703765;10.093954;-0.7469909
10:25:29:345;0.6703765;10.093954;-0.7469909
10:25:29:345;0.6703765;10.093954;-0.7469909
10:25:29:345;0.6703765;10.093954;-0.7469909
10:25:29:345;0.6703765;10.093954;-0.7469909
10:25:29:345;0.6703765;10.093954;-0.7469909
10:25:29:345;0.6703765;10.093954;-0.7469909
10:25:29:345;0.6703765;10.093954;-0.7469909
10:25:29:345;0.6703765;10.093954;-0.7469909
10:25:29:345;0.6703765;10.093954;-0.7469909
10:25:29:447;-0.34476504;10.381259;-0.22984336
10:25:29:447;-0.34476504;10.381259;-0.22984336
10:25:29:447;-0.34476504;10.381259;-0.22984336
10:25:29:447;-0.34476504;10.381259;-0.22984336
10:25:29:447;-0.34476504;10.381259;-0.22984336
10:25:29:447;-0.34476504;10.381259;-0.22984336
10:25:29:447;-0.34476504;10.381259;-0.22984336
10:25:29:447;-0.34476504;10.381259;-0.22984336
10:25:29:447;-0.34476504;10.381259;-0.22984336
10:25:29:447;-0.34476504;10.381259;-0.22984336
10:25:29:447;-0.34476504;10.381259;-0.22984336
10:25:29:447;-0.34476504;10.381259;-0.22984336
10:25:29:447;-0.34476504;10.381259;-0.22984336
10:25:29:548;0.6703765;9.32781;-0.34476504
10:25:29:548;0.6703765;9.32781;-0.34476504
10:25:29:548;0.6703765;9.32781;-0.34476504
10:25:29:548;0.6703765;9.32781;-0.34476504
10:25:29:548;0.6703765;9.32781;-0.34476504
10:25:29:548;0.6703765;9.32781;-0.34476504
10:25:29:548;0.6703765;9.32781;-0.34476504
10:25:29:548;0.6703765;9.32781;-0.34476504
10:25:29:548;0.6703765;9.32781;-0.34476504
10:25:29:548;0.6703765;9.32781;-0.34476504
10:25:29:548;0.6703765;9.32781;-0.34476504
10:25:29:548;0.6703765;9.32781;-0.34476504
10:25:29:548;0.6703765;9.32781;-0.34476504
10:25:29:548;0.6703765;9.32781;-0.34476504
10:25:29:548;0.6703765;9.32781;-0.34476504
10:25:29:548;0.6703765;9.32781;-0.34476504
10:25:29:548;0.6703765;9.32781;-0.34476504
10:25:29:548;0.6703765;9.32781;-0.34476504
10:25:29:693;0.63206923;10.132261;-0.90021986
10:25:29:693;0.63206923;10.132261;-0.90021986
10:25:29:693;0.63206923;10.132261;-0.90021986
10:25:29:693;0.63206923;10.132261;-0.90021986
10:25:29:693;0.63206923;10.132261;-0.90021986
10:25:29:693;0.63206923;10.132261;-0.90021986
10:25:29:693;0.63206923;10.132261;-0.90021986
10:25:29:693;0.63206923;10.132261;-0.90021986
10:25:29:693;0.63206923;10.132261;-0.90021986
10:25:29:693;0.63206923;10.132261;-0.90021986
10:25:29:693;0.63206923;10.132261;-0.90021986
10:25:29:693;0.63206923;10.132261;-0.90021986
10:25:29:693;0.63206923;10.132261;-0.90021986
10:25:29:693;0.63206923;10.132261;-0.90021986
10:25:29:693;0.63206923;10.132261;-0.90021986
10:25:29:807;-1.0534488;10.419566;-1.0151415
10:25:29:807;-1.0534488;10.419566;-1.0151415
10:25:29:807;-1.0534488;10.419566;-1.0151415
10:25:29:807;-1.0534488;10.419566;-1.0151415
10:25:29:807;-1.0534488;10.419566;-1.0151415
10:25:29:807;-1.0534488;10.419566;-1.0151415
10:25:29:807;-1.0534488;10.419566;-1.0151415
10:25:29:807;-1.0534488;10.419566;-1.0151415
10:25:29:807;-1.0534488;10.419566;-1.0151415
10:25:29:807;-1.0534488;10.419566;-1.0151415
10:25:29:807;-1.0534488;10.419566;-1.0151415
10:25:29:807;-1.0534488;10.419566;-1.0151415
10:25:29:807;-1.0534488;10.419566;-1.0151415
10:25:29:807;-1.0534488;10.419566;-1.0151415
10:25:29:807;-1.0534488;10.419566;-1.0151415
10:25:29:925;-1.0342951;10.91756;-0.5554548
10:25:29:925;-1.0342951;10.91756;-0.5554548
10:25:29:925;-1.0342951;10.91756;-0.5554548
10:25:29:925;-1.0342951;10.91756;-0.5554548
10:25:29:925;-1.0342951;10.91756;-0.5554548
10:25:29:925;-1.0342951;10.91756;-0.5554548
10:25:29:925;-1.0342951;10.91756;-0.5554548
10:25:29:925;-1.0342951;10.91756;-0.5554548
10:25:29:925;-1.0342951;10.91756;-0.5554548
10:25:29:925;-1.0342951;10.91756;-0.5554548
10:25:29:925;-1.0342951;10.91756;-0.5554548
10:25:29:925;-1.0342951;10.91756;-0.5554548
10:25:29:925;-1.0342951;10.91756;-0.5554548
10:25:30:030;-1.1492168;9.461885;-0.38307226
10:25:30:030;-1.1492168;9.461885;-0.38307226
10:25:30:030;-1.1492168;9.461885;-0.38307226
10:25:30:030;-1.1492168;9.461885;-0.38307226
10:25:30:030;-1.1492168;9.461885;-0.38307226
10:25:30:030;-1.1492168;9.461885;-0.38307226
10:25:30:030;-1.1492168;9.461885;-0.38307226
10:25:30:030;-1.1492168;9.461885;-0.38307226
10:25:30:030;-1.1492168;9.461885;-0.38307226
10:25:30:030;-1.1492168;9.461885;-0.38307226
10:25:30:030;-1.1492168;9.461885;-0.38307226
10:25:30:030;-1.1492168;9.461885;-0.38307226
10:25:30:030;-1.1492168;9.461885;-0.38307226
10:25:30:030;-1.1492168;9.461885;-0.38307226
10:25:30:030;-1.1492168;9.461885;-0.38307226
10:25:30:148;-1.4939818;10.304645;-1.1875241
10:25:30:148;-1.4939818;10.304645;-1.1875241
10:25:30:148;-1.4939818;10.304645;-1.1875241
10:25:30:148;-1.4939818;10.304645;-1.1875241
10:25:30:148;-1.4939818;10.304645;-1.1875241
10:25:30:148;-1.4939818;10.304645;-1.1875241
10:25:30:148;-1.4939818;10.304645;-1.1875241
10:25:30:148;-1.4939818;10.304645;-1.1875241
10:25:30:148;-1.4939818;10.304645;-1.1875241
10:25:30:148;-1.4939818;10.304645;-1.1875241
10:25:30:148;-1.4939818;10.304645;-1.1875241
10:25:30:148;-1.4939818;10.304645;-1.1875241
10:25:30:148;-1.4939818;10.304645;-1.1875241
10:25:30:148;-1.4939818;10.304645;-1.1875241
10:25:30:253;-0.11492168;9.615114;-0.2681506
10:25:30:253;-0.11492168;9.615114;-0.2681506
10:25:30:253;-0.11492168;9.615114;-0.2681506
10:25:30:253;-0.11492168;9.615114;-0.2681506
10:25:30:253;-0.11492168;9.615114;-0.2681506
10:25:30:253;-0.11492168;9.615114;-0.2681506
10:25:30:253;-0.11492168;9.615114;-0.2681506
10:25:30:253;-0.11492168;9.615114;-0.2681506
10:25:30:253;-0.11492168;9.615114;-0.2681506
10:25:30:253;-0.11492168;9.615114;-0.2681506
10:25:30:253;-0.11492168;9.615114;-0.2681506
10:25:30:253;-0.11492168;9.615114;-0.2681506
10:25:30:253;-0.11492168;9.615114;-0.2681506
10:25:30:253;-0.11492168;9.615114;-0.2681506
10:25:30:253;-0.11492168;9.615114;-0.2681506
10:25:30:369;-0.2873042;9.32781;-0.47884035
10:25:30:369;-0.2873042;9.32781;-0.47884035
10:25:30:369;-0.2873042;9.32781;-0.47884035
10:25:30:369;-0.2873042;9.32781;-0.47884035
10:25:30:369;-0.2873042;9.32781;-0.47884035
10:25:30:369;-0.2873042;9.32781;-0.47884035
10:25:30:369;-0.2873042;9.32781;-0.47884035
10:25:30:369;-0.2873042;9.32781;-0.47884035
10:25:30:369;-0.2873042;9.32781;-0.47884035
10:25:30:369;-0.2873042;9.32781;-0.47884035
10:25:30:369;-0.2873042;9.32781;-0.47884035
10:25:30:369;-0.2873042;9.32781;-0.47884035
10:25:30:369;-0.2873042;9.32781;-0.47884035
10:25:30:472;-1.0726024;10.036493;-0.22984336
10:25:30:472;-1.0726024;10.036493;-0.22984336
10:25:30:472;-1.0726024;10.036493;-0.22984336
10:25:30:472;-1.0726024;10.036493;-0.22984336
10:25:30:472;-1.0726024;10.036493;-0.22984336
10:25:30:472;-1.0726024;10.036493;-0.22984336
10:25:30:472;-1.0726024;10.036493;-0.22984336
10:25:30:472;-1.0726024;10.036493;-0.22984336
10:25:30:472;-1.0726024;10.036493;-0.22984336
10:25:30:472;-1.0726024;10.036493;-0.22984336
10:25:30:472;-1.0726024;10.036493;-0.22984336
10:25:30:472;-1.0726024;10.036493;-0.22984336
10:25:30:472;-1.0726024;10.036493;-0.22984336
10:25:30:472;-1.0726024;10.036493;-0.22984336
10:25:30:472;-1.0726024;10.036493;-0.22984336
10:25:30:472;-1.0726024;10.036493;-0.22984336
10:25:30:472;-1.0726024;10.036493;-0.22984336
10:25:30:472;-1.0726024;10.036493;-0.22984336
10:25:30:610;-0.82360536;10.668563;-0.9959879
10:25:30:610;-0.82360536;10.668563;-0.9959879
10:25:30:610;-0.82360536;10.668563;-0.9959879
10:25:30:610;-0.82360536;10.668563;-0.9959879
10:25:30:610;-0.82360536;10.668563;-0.9959879
10:25:30:610;-0.82360536;10.668563;-0.9959879
10:25:30:610;-0.82360536;10.668563;-0.9959879
10:25:30:610;-0.82360536;10.668563;-0.9959879
10:25:30:610;-0.82360536;10.668563;-0.9959879
10:25:30:610;-0.82360536;10.668563;-0.9959879
10:25:30:610;-0.82360536;10.668563;-0.9959879
10:25:30:610;-0.82360536;10.668563;-0.9959879
10:25:30:610;-0.82360536;10.668563;-0.9959879
10:25:30:610;-0.82360536;10.668563;-0.9959879
10:25:30:720;-0.5746084;10.266336;-0.7661445
10:25:30:720;-0.5746084;10.266336;-0.7661445
10:25:30:720;-0.5746084;10.266336;-0.7661445
10:25:30:720;-0.5746084;10.266336;-0.7661445
10:25:30:720;-0.5746084;10.266336;-0.7661445
10:25:30:720;-0.5746084;10.266336;-0.7661445
10:25:30:720;-0.5746084;10.266336;-0.7661445
10:25:30:720;-0.5746084;10.266336;-0.7661445
10:25:30:720;-0.5746084;10.266336;-0.7661445
10:25:30:720;-0.5746084;10.266336;-0.7661445
10:25:30:720;-0.5746084;10.266336;-0.7661445
10:25:30:720;-0.5746084;10.266336;-0.7661445
10:25:30:720;-0.5746084;10.266336;-0.7661445
10:25:30:826;-0.7661445;9.557653;-0.2873042
10:25:30:826;-0.7661445;9.557653;-0.2873042
10:25:30:826;-0.7661445;9.557653;-0.2873042
10:25:30:826;-0.7661445;9.557653;-0.2873042
10:25:30:826;-0.7661445;9.557653;-0.2873042
10:25:30:826;-0.7661445;9.557653;-0.2873042
10:25:30:826;-0.7661445;9.557653;-0.2873042
10:25:30:826;-0.7661445;9.557653;-0.2873042
10:25:30:826;-0.7661445;9.557653;-0.2873042
10:25:30:826;-0.7661445;9.557653;-0.2873042
10:25:30:826;-0.7661445;9.557653;-0.2873042
10:25:30:826;-0.7661445;9.557653;-0.2873042
10:25:30:826;-0.7661445;9.557653;-0.2873042
10:25:30:826;-0.7661445;9.557653;-0.2873042
10:25:30:826;-0.7661445;9.557653;-0.2873042
10:25:30:826;-0.7661445;9.557653;-0.2873042
10:25:30:946;-0.9576807;10.208876;-0.7661445
10:25:30:946;-0.9576807;10.208876;-0.7661445
10:25:30:946;-0.9576807;10.208876;-0.7661445
10:25:30:946;-0.9576807;10.208876;-0.7661445
10:25:30:946;-0.9576807;10.208876;-0.7661445
10:25:30:946;-0.9576807;10.208876;-0.7661445
10:25:30:946;-0.9576807;10.208876;-0.7661445
10:25:30:946;-0.9576807;10.208876;-0.7661445
10:25:30:946;-0.9576807;10.208876;-0.7661445
10:25:30:946;-0.9576807;10.208876;-0.7661445
10:25:30:946;-0.9576807;10.208876;-0.7661445
10:25:30:946;-0.9576807;10.208876;-0.7661445
10:25:30:946;-0.9576807;10.208876;-0.7661445
10:25:30:946;-0.9576807;10.208876;-0.7661445
10:25:30:946;-0.9576807;10.208876;-0.7661445
10:25:31:063;-1.2449849;9.825804;-0.80445176
10:25:31:063;-1.2449849;9.825804;-0.80445176
10:25:31:063;-1.2449849;9.825804;-0.80445176
10:25:31:063;-1.2449849;9.825804;-0.80445176
10:25:31:063;-1.2449849;9.825804;-0.80445176
10:25:31:063;-1.2449849;9.825804;-0.80445176
10:25:31:063;-1.2449849;9.825804;-0.80445176
10:25:31:063;-1.2449849;9.825804;-0.80445176
10:25:31:063;-1.2449849;9.825804;-0.80445176
10:25:31:063;-1.2449849;9.825804;-0.80445176
10:25:31:063;-1.2449849;9.825804;-0.80445176
10:25:31:063;-1.2449849;9.825804;-0.80445176
10:25:31:063;-1.2449849;9.825804;-0.80445176
10:25:31:063;-1.2449849;9.825804;-0.80445176
10:25:31:063;-1.2449849;9.825804;-0.80445176
10:25:31:183;-0.9959879;9.710882;-0.17238252
10:25:31:183;-0.9959879;9.710882;-0.17238252
10:25:31:183;-0.9959879;9.710882;-0.17238252
10:25:31:183;-0.9959879;9.710882;-0.17238252
10:25:31:183;-0.9959879;9.710882;-0.17238252
10:25:31:183;-0.9959879;9.710882;-0.17238252
10:25:31:183;-0.9959879;9.710882;-0.17238252
10:25:31:183;-0.9959879;9.710882;-0.17238252
10:25:31:183;-0.9959879;9.710882;-0.17238252
10:25:31:183;-0.9959879;9.710882;-0.17238252
10:25:31:183;-0.9959879;9.710882;-0.17238252
10:25:31:183;-0.9959879;9.710882;-0.17238252
10:25:31:183;-0.9959879;9.710882;-0.17238252
10:25:31:183;-0.9959879;9.710882;-0.17238252
10:25:31:183;-0.9959879;9.710882;-0.17238252
10:25:31:301;-1.1300632;10.515334;-1.0151415
10:25:31:301;-1.1300632;10.515334;-1.0151415
10:25:31:301;-1.1300632;10.515334;-1.0151415
10:25:31:301;-1.1300632;10.515334;-1.0151415
10:25:31:301;-1.1300632;10.515334;-1.0151415
10:25:31:301;-1.1300632;10.515334;-1.0151415
10:25:31:301;-1.1300632;10.515334;-1.0151415
10:25:31:301;-1.1300632;10.515334;-1.0151415
10:25:31:301;-1.1300632;10.515334;-1.0151415
10:25:31:301;-1.1300632;10.515334;-1.0151415
10:25:31:301;-1.1300632;10.515334;-1.0151415
10:25:31:301;-1.1300632;10.515334;-1.0151415
10:25:31:301;-1.1300632;10.515334;-1.0151415
10:25:31:402;-0.36391866;10.036493;-0.63206923
10:25:31:402;-0.36391866;10.036493;-0.63206923
10:25:31:402;-0.36391866;10.036493;-0.63206923
10:25:31:402;-0.36391866;10.036493;-0.63206923
10:25:31:402;-0.36391866;10.036493;-0.63206923
10:25:31:402;-0.36391866;10.036493;-0.63206923
10:25:31:402;-0.36391866;10.036493;-0.63206923
10:25:31:402;-0.36391866;10.036493;-0.63206923
10:25:31:402;-0.36391866;10.036493;-0.63206923
10:25:31:402;-0.36391866;10.036493;-0.63206923
10:25:31:402;-0.36391866;10.036493;-0.63206923
10:25:31:402;-0.36391866;10.036493;-0.63206923
10:25:31:402;-0.36391866;10.036493;-0.63206923
10:25:31:505;-0.7086837;9.902418;-1.1683705
10:25:31:505;-0.7086837;9.902418;-1.1683705
10:25:31:505;-0.7086837;9.902418;-1.1683705
10:25:31:505;-0.7086837;9.902418;-1.1683705
10:25:31:505;-0.7086837;9.902418;-1.1683705
10:25:31:505;-0.7086837;9.902418;-1.1683705
10:25:31:505;-0.7086837;9.902418;-1.1683705
10:25:31:505;-0.7086837;9.902418;-1.1683705
10:25:31:505;-0.7086837;9.902418;-1.1683705
10:25:31:505;-0.7086837;9.902418;-1.1683705
10:25:31:505;-0.7086837;9.902418;-1.1683705
10:25:31:505;-0.7086837;9.902418;-1.1683705
10:25:31:505;-0.7086837;9.902418;-1.1683705
10:25:31:505;-0.7086837;9.902418;-1.1683705
10:25:31:617;-0.6512229;9.557653;-0.4405331
10:25:31:617;-0.6512229;9.557653;-0.4405331
10:25:31:617;-0.6512229;9.557653;-0.4405331
10:25:31:617;-0.6512229;9.557653;-0.4405331
10:25:31:617;-0.6512229;9.557653;-0.4405331
10:25:31:617;-0.6512229;9.557653;-0.4405331
10:25:31:617;-0.6512229;9.557653;-0.4405331
10:25:31:617;-0.6512229;9.557653;-0.4405331
10:25:31:617;-0.6512229;9.557653;-0.4405331
10:25:31:617;-0.6512229;9.557653;-0.4405331
10:25:31:617;-0.6512229;9.557653;-0.4405331
10:25:31:617;-0.6512229;9.557653;-0.4405331
10:25:31:617;-0.6512229;9.557653;-0.4405331
10:25:31:617;-0.6512229;9.557653;-0.4405331
10:25:31:720;-0.7469909;10.649409;-0.7661445
10:25:31:720;-0.7469909;10.649409;-0.7661445
10:25:31:720;-0.7469909;10.649409;-0.7661445
10:25:31:720;-0.7469909;10.649409;-0.7661445
10:25:31:720;-0.7469909;10.649409;-0.7661445
10:25:31:720;-0.7469909;10.649409;-0.7661445
10:25:31:720;-0.7469909;10.649409;-0.7661445
10:25:31:720;-0.7469909;10.649409;-0.7661445
10:25:31:720;-0.7469909;10.649409;-0.7661445
10:25:31:720;-0.7469909;10.649409;-0.7661445
10:25:31:720;-0.7469909;10.649409;-0.7661445
10:25:31:720;-0.7469909;10.649409;-0.7661445
10:25:31:720;-0.7469909;10.649409;-0.7661445
10:25:31:720;-0.7469909;10.649409;-0.7661445
10:25:31:720;-0.7469909;10.649409;-0.7661445
10:25:31:720;-0.7469909;10.649409;-0.7661445
10:25:31:720;-0.7469909;10.649409;-0.7661445
10:25:31:720;-0.7469909;10.649409;-0.7661445
10:25:31:720;-0.7469909;10.649409;-0.7661445
10:25:31:872;-0.6512229;9.672575;-0.5746084
10:25:31:872;-0.6512229;9.672575;-0.5746084
10:25:31:872;-0.6512229;9.672575;-0.5746084
10:25:31:872;-0.6512229;9.672575;-0.5746084
10:25:31:872;-0.6512229;9.672575;-0.5746084
10:25:31:872;-0.6512229;9.672575;-0.5746084
10:25:31:872;-0.6512229;9.672575;-0.5746084
10:25:31:872;-0.6512229;9.672575;-0.5746084
10:25:31:872;-0.6512229;9.672575;-0.5746084
10:25:31:872;-0.6512229;9.672575;-0.5746084
10:25:31:872;-0.6512229;9.672575;-0.5746084
10:25:31:872;-0.6512229;9.672575;-0.5746084
10:25:31:872;-0.6512229;9.672575;-0.5746084
10:25:31:975;-0.82360536;9.844957;-0.78529817
10:25:31:975;-0.82360536;9.844957;-0.78529817
10:25:31:975;-0.82360536;9.844957;-0.78529817
10:25:31:975;-0.82360536;9.844957;-0.78529817
10:25:31:975;-0.82360536;9.844957;-0.78529817
10:25:31:975;-0.82360536;9.844957;-0.78529817
10:25:31:975;-0.82360536;9.844957;-0.78529817
10:25:31:975;-0.82360536;9.844957;-0.78529817
10:25:31:975;-0.82360536;9.844957;-0.78529817
10:25:31:975;-0.82360536;9.844957;-0.78529817
10:25:31:975;-0.82360536;9.844957;-0.78529817
10:25:31:975;-0.82360536;9.844957;-0.78529817
10:25:31:975;-0.82360536;9.844957;-0.78529817
10:25:31:975;-0.82360536;9.844957;-0.78529817
10:25:31:975;-0.82360536;9.844957;-0.78529817
10:25:31:975;-0.82360536;9.844957;-0.78529817
10:25:32:095;-0.78529817;9.959879;-0.2873042
10:25:32:095;-0.78529817;9.959879;-0.2873042
10:25:32:095;-0.78529817;9.959879;-0.2873042
10:25:32:095;-0.78529817;9.959879;-0.2873042
10:25:32:095;-0.78529817;9.959879;-0.2873042
10:25:32:095;-0.78529817;9.959879;-0.2873042
10:25:32:095;-0.78529817;9.959879;-0.2873042
10:25:32:095;-0.78529817;9.959879;-0.2873042
10:25:32:095;-0.78529817;9.959879;-0.2873042
10:25:32:095;-0.78529817;9.959879;-0.2873042
10:25:32:095;-0.78529817;9.959879;-0.2873042
10:25:32:095;-0.78529817;9.959879;-0.2873042
10:25:32:095;-0.78529817;9.959879;-0.2873042
10:25:32:095;-0.78529817;9.959879;-0.2873042
10:25:32:210;-0.5554548;9.883265;-1.1492168
10:25:32:210;-0.5554548;9.883265;-1.1492168
10:25:32:210;-0.5554548;9.883265;-1.1492168
10:25:32:210;-0.5554548;9.883265;-1.1492168
10:25:32:210;-0.5554548;9.883265;-1.1492168
10:25:32:210;-0.5554548;9.883265;-1.1492168
10:25:32:210;-0.5554548;9.883265;-1.1492168
10:25:32:210;-0.5554548;9.883265;-1.1492168
10:25:32:210;-0.5554548;9.883265;-1.1492168
10:25:32:210;-0.5554548;9.883265;-1.1492168
10:25:32:210;-0.5554548;9.883265;-1.1492168
10:25:32:210;-0.5554548;9.883265;-1.1492168
10:25:32:210;-0.5554548;9.883265;-1.1492168
10:25:32:311;-1.1875241;10.055647;-1.0342951
10:25:32:311;-1.1875241;10.055647;-1.0342951
10:25:32:311;-1.1875241;10.055647;-1.0342951
10:25:32:311;-1.1875241;10.055647;-1.0342951
10:25:32:311;-1.1875241;10.055647;-1.0342951
10:25:32:311;-1.1875241;10.055647;-1.0342951
10:25:32:311;-1.1875241;10.055647;-1.0342951
10:25:32:311;-1.1875241;10.055647;-1.0342951
10:25:32:311;-1.1875241;10.055647;-1.0342951
10:25:32:311;-1.1875241;10.055647;-1.0342951
10:25:32:311;-1.1875241;10.055647;-1.0342951
10:25:32:311;-1.1875241;10.055647;-1.0342951
10:25:32:311;-1.1875241;10.055647;-1.0342951
10:25:32:311;-1.1875241;10.055647;-1.0342951
10:25:32:311;-1.1875241;10.055647;-1.0342951
10:25:32:429;-0.15322891;9.251195;-0.038307227
10:25:32:429;-0.15322891;9.251195;-0.038307227
10:25:32:429;-0.15322891;9.251195;-0.038307227
10:25:32:429;-0.15322891;9.251195;-0.038307227
10:25:32:429;-0.15322891;9.251195;-0.038307227
10:25:32:429;-0.15322891;9.251195;-0.038307227
10:25:32:429;-0.15322891;9.251195;-0.038307227
10:25:32:429;-0.15322891;9.251195;-0.038307227
10:25:32:429;-0.15322891;9.251195;-0.038307227
10:25:32:429;-0.15322891;9.251195;-0.038307227
10:25:32:429;-0.15322891;9.251195;-0.038307227
10:25:32:429;-0.15322891;9.251195;-0.038307227
10:25:32:429;-0.15322891;9.251195;-0.038307227
10:25:32:429;-0.15322891;9.251195;-0.038307227
10:25:32:429;-0.15322891;9.251195;-0.038307227
10:25:32:429;-0.15322891;9.251195;-0.038307227
10:25:32:550;-0.47884035;10.189722;-0.61291564
10:25:32:550;-0.47884035;10.189722;-0.61291564
10:25:32:550;-0.47884035;10.189722;-0.61291564
10:25:32:550;-0.47884035;10.189722;-0.61291564
10:25:32:550;-0.47884035;10.189722;-0.61291564
10:25:32:550;-0.47884035;10.189722;-0.61291564
10:25:32:550;-0.47884035;10.189722;-0.61291564
10:25:32:550;-0.47884035;10.189722;-0.61291564
10:25:32:550;-0.47884035;10.189722;-0.61291564
10:25:32:550;-0.47884035;10.189722;-0.61291564
10:25:32:550;-0.47884035;10.189722;-0.61291564
10:25:32:550;-0.47884035;10.189722;-0.61291564
10:25:32:550;-0.47884035;10.189722;-0.61291564
10:25:32:550;-0.47884035;10.189722;-0.61291564
10:25:32:550;-0.47884035;10.189722;-0.61291564
10:25:32:669;-0.93852705;10.208876;-0.4213795
10:25:32:669;-0.93852705;10.208876;-0.4213795
10:25:32:669;-0.93852705;10.208876;-0.4213795
10:25:32:669;-0.93852705;10.208876;-0.4213795
10:25:32:669;-0.93852705;10.208876;-0.4213795
10:25:32:669;-0.93852705;10.208876;-0.4213795
10:25:32:669;-0.93852705;10.208876;-0.4213795
10:25:32:669;-0.93852705;10.208876;-0.4213795
10:25:32:669;-0.93852705;10.208876;-0.4213795
10:25:32:669;-0.93852705;10.208876;-0.4213795
10:25:32:669;-0.93852705;10.208876;-0.4213795
10:25:32:669;-0.93852705;10.208876;-0.4213795
10:25:32:669;-0.93852705;10.208876;-0.4213795
10:25:32:669;-0.93852705;10.208876;-0.4213795
10:25:32:669;-0.93852705;10.208876;-0.4213795
10:25:32:786;-0.7278373;10.0748005;-0.019153614
10:25:32:786;-0.7278373;10.0748005;-0.019153614
10:25:32:786;-0.7278373;10.0748005;-0.019153614
10:25:32:786;-0.7278373;10.0748005;-0.019153614
10:25:32:786;-0.7278373;10.0748005;-0.019153614
10:25:32:786;-0.7278373;10.0748005;-0.019153614
10:25:32:786;-0.7278373;10.0748005;-0.019153614
10:25:32:786;-0.7278373;10.0748005;-0.019153614
10:25:32:786;-0.7278373;10.0748005;-0.019153614
10:25:32:786;-0.7278373;10.0748005;-0.019153614
10:25:32:786;-0.7278373;10.0748005;-0.019153614
10:25:32:786;-0.7278373;10.0748005;-0.019153614
10:25:32:786;-0.7278373;10.0748005;-0.019153614
10:25:32:786;-0.7278373;10.0748005;-0.019153614
10:25:32:786;-0.7278373;10.0748005;-0.019153614
10:25:32:904;-0.6512229;9.710882;-0.19153613
10:25:32:904;-0.6512229;9.710882;-0.19153613
10:25:32:904;-0.6512229;9.710882;-0.19153613
10:25:32:904;-0.6512229;9.710882;-0.19153613
10:25:32:904;-0.6512229;9.710882;-0.19153613
10:25:32:904;-0.6512229;9.710882;-0.19153613
10:25:32:904;-0.6512229;9.710882;-0.19153613
10:25:32:904;-0.6512229;9.710882;-0.19153613
10:25:32:904;-0.6512229;9.710882;-0.19153613
10:25:32:904;-0.6512229;9.710882;-0.19153613
10:25:32:904;-0.6512229;9.710882;-0.19153613
10:25:32:904;-0.6512229;9.710882;-0.19153613
10:25:32:904;-0.6512229;9.710882;-0.19153613
10:25:32:904;-0.6512229;9.710882;-0.19153613
10:25:33:009;-0.2873042;8.887277;0.51714754
10:25:33:009;-0.2873042;8.887277;0.51714754
10:25:33:009;-0.2873042;8.887277;0.51714754
10:25:33:009;-0.2873042;8.887277;0.51714754
10:25:33:009;-0.2873042;8.887277;0.51714754
10:25:33:009;-0.2873042;8.887277;0.51714754
10:25:33:009;-0.2873042;8.887277;0.51714754
10:25:33:009;-0.2873042;8.887277;0.51714754
10:25:33:009;-0.2873042;8.887277;0.51714754
10:25:33:009;-0.2873042;8.887277;0.51714754
10:25:33:009;-0.2873042;8.887277;0.51714754
10:25:33:009;-0.2873042;8.887277;0.51714754
10:25:33:009;-0.2873042;8.887277;0.51714754
10:25:33:112;-0.82360536;9.710882;0.6895301
10:25:33:112;-0.82360536;9.710882;0.6895301
10:25:33:112;-0.82360536;9.710882;0.6895301
10:25:33:112;-0.82360536;9.710882;0.6895301
10:25:33:112;-0.82360536;9.710882;0.6895301
10:25:33:112;-0.82360536;9.710882;0.6895301
10:25:33:112;-0.82360536;9.710882;0.6895301
10:25:33:112;-0.82360536;9.710882;0.6895301
10:25:33:112;-0.82360536;9.710882;0.6895301
10:25:33:112;-0.82360536;9.710882;0.6895301
10:25:33:112;-0.82360536;9.710882;0.6895301
10:25:33:112;-0.82360536;9.710882;0.6895301
10:25:33:112;-0.82360536;9.710882;0.6895301
10:25:33:112;-0.82360536;9.710882;0.6895301
10:25:33:112;-0.82360536;9.710882;0.6895301
10:25:33:227;-1.2641385;10.036493;0.19153613
10:25:33:227;-1.2641385;10.036493;0.19153613
10:25:33:227;-1.2641385;10.036493;0.19153613
10:25:33:227;-1.2641385;10.036493;0.19153613
10:25:33:227;-1.2641385;10.036493;0.19153613
10:25:33:227;-1.2641385;10.036493;0.19153613
10:25:33:227;-1.2641385;10.036493;0.19153613
10:25:33:227;-1.2641385;10.036493;0.19153613
10:25:33:227;-1.2641385;10.036493;0.19153613
10:25:33:227;-1.2641385;10.036493;0.19153613
10:25:33:227;-1.2641385;10.036493;0.19153613
10:25:33:227;-1.2641385;10.036493;0.19153613
10:25:33:227;-1.2641385;10.036493;0.19153613
10:25:33:227;-1.2641385;10.036493;0.19153613
10:25:33:227;-1.2641385;10.036493;0.19153613
10:25:33:345;-1.1300632;10.036493;0.80445176
10:25:33:345;-1.1300632;10.036493;0.80445176
10:25:33:345;-1.1300632;10.036493;0.80445176
10:25:33:345;-1.1300632;10.036493;0.80445176
10:25:33:345;-1.1300632;10.036493;0.80445176
10:25:33:345;-1.1300632;10.036493;0.80445176
10:25:33:345;-1.1300632;10.036493;0.80445176
10:25:33:345;-1.1300632;10.036493;0.80445176
10:25:33:345;-1.1300632;10.036493;0.80445176
10:25:33:345;-1.1300632;10.036493;0.80445176
10:25:33:345;-1.1300632;10.036493;0.80445176
10:25:33:345;-1.1300632;10.036493;0.80445176
10:25:33:345;-1.1300632;10.036493;0.80445176
10:25:33:345;-1.1300632;10.036493;0.80445176
10:25:33:345;-1.1300632;10.036493;0.80445176
10:25:33:464;-1.2641385;10.534488;0.076614454
10:25:33:464;-1.2641385;10.534488;0.076614454
10:25:33:464;-1.2641385;10.534488;0.076614454
10:25:33:464;-1.2641385;10.534488;0.076614454
10:25:33:464;-1.2641385;10.534488;0.076614454
10:25:33:464;-1.2641385;10.534488;0.076614454
10:25:33:464;-1.2641385;10.534488;0.076614454
10:25:33:464;-1.2641385;10.534488;0.076614454
10:25:33:464;-1.2641385;10.534488;0.076614454
10:25:33:464;-1.2641385;10.534488;0.076614454
10:25:33:464;-1.2641385;10.534488;0.076614454
10:25:33:464;-1.2641385;10.534488;0.076614454
10:25:33:464;-1.2641385;10.534488;0.076614454
10:25:33:464;-1.2641385;10.534488;0.076614454
10:25:33:464;-1.2641385;10.534488;0.076614454
10:25:33:582;-0.49799395;9.844957;-0.34476504
10:25:33:582;-0.49799395;9.844957;-0.34476504
10:25:33:582;-0.49799395;9.844957;-0.34476504
10:25:33:582;-0.49799395;9.844957;-0.34476504
10:25:33:582;-0.49799395;9.844957;-0.34476504
10:25:33:582;-0.49799395;9.844957;-0.34476504
10:25:33:582;-0.49799395;9.844957;-0.34476504
10:25:33:582;-0.49799395;9.844957;-0.34476504
10:25:33:582;-0.49799395;9.844957;-0.34476504
10:25:33:582;-0.49799395;9.844957;-0.34476504
10:25:33:582;-0.49799395;9.844957;-0.34476504
10:25:33:582;-0.49799395;9.844957;-0.34476504
10:25:33:582;-0.49799395;9.844957;-0.34476504
10:25:33:582;-0.49799395;9.844957;-0.34476504
10:25:33:582;-0.49799395;9.844957;-0.34476504
10:25:33:700;-0.7086837;9.461885;0.6895301
10:25:33:700;-0.7086837;9.461885;0.6895301
10:25:33:700;-0.7086837;9.461885;0.6895301
10:25:33:700;-0.7086837;9.461885;0.6895301
10:25:33:700;-0.7086837;9.461885;0.6895301
10:25:33:700;-0.7086837;9.461885;0.6895301
10:25:33:700;-0.7086837;9.461885;0.6895301
10:25:33:700;-0.7086837;9.461885;0.6895301
10:25:33:700;-0.7086837;9.461885;0.6895301
10:25:33:700;-0.7086837;9.461885;0.6895301
10:25:33:700;-0.7086837;9.461885;0.6895301
10:25:33:700;-0.7086837;9.461885;0.6895301
10:25:33:700;-0.7086837;9.461885;0.6895301
10:25:33:802;-0.78529817;9.9790325;0.4405331
10:25:33:802;-0.78529817;9.9790325;0.4405331
10:25:33:802;-0.78529817;9.9790325;0.4405331
10:25:33:802;-0.78529817;9.9790325;0.4405331
10:25:33:802;-0.78529817;9.9790325;0.4405331
10:25:33:802;-0.78529817;9.9790325;0.4405331
10:25:33:802;-0.78529817;9.9790325;0.4405331
10:25:33:802;-0.78529817;9.9790325;0.4405331
10:25:33:802;-0.78529817;9.9790325;0.4405331
10:25:33:802;-0.78529817;9.9790325;0.4405331
10:25:33:802;-0.78529817;9.9790325;0.4405331
10:25:33:802;-0.78529817;9.9790325;0.4405331
10:25:33:802;-0.78529817;9.9790325;0.4405331
10:25:33:802;-0.78529817;9.9790325;0.4405331
10:25:33:908;-0.38307226;10.208876;-0.038307227
10:25:33:908;-0.38307226;10.208876;-0.038307227
10:25:33:908;-0.38307226;10.208876;-0.038307227
10:25:33:908;-0.38307226;10.208876;-0.038307227
10:25:33:908;-0.38307226;10.208876;-0.038307227
10:25:33:908;-0.38307226;10.208876;-0.038307227
10:25:33:908;-0.38307226;10.208876;-0.038307227
10:25:33:908;-0.38307226;10.208876;-0.038307227
10:25:33:908;-0.38307226;10.208876;-0.038307227
10:25:33:908;-0.38307226;10.208876;-0.038307227
10:25:33:908;-0.38307226;10.208876;-0.038307227
10:25:33:908;-0.38307226;10.208876;-0.038307227
10:25:33:908;-0.38307226;10.208876;-0.038307227
10:25:33:908;-0.38307226;10.208876;-0.038307227
10:25:33:908;-0.38307226;10.208876;-0.038307227
10:25:34:028;-0.49799395;9.902418;0.30645782
10:25:34:028;-0.49799395;9.902418;0.30645782
10:25:34:028;-0.49799395;9.902418;0.30645782
10:25:34:028;-0.49799395;9.902418;0.30645782
10:25:34:028;-0.49799395;9.902418;0.30645782
10:25:34:028;-0.49799395;9.902418;0.30645782
10:25:34:028;-0.49799395;9.902418;0.30645782
10:25:34:028;-0.49799395;9.902418;0.30645782
10:25:34:028;-0.49799395;9.902418;0.30645782
10:25:34:028;-0.49799395;9.902418;0.30645782
10:25:34:028;-0.49799395;9.902418;0.30645782
10:25:34:028;-0.49799395;9.902418;0.30645782
10:25:34:028;-0.49799395;9.902418;0.30645782
10:25:34:028;-0.49799395;9.902418;0.30645782
10:25:34:028;-0.49799395;9.902418;0.30645782
10:25:34:144;0.19153613;9.634268;0.24899697
10:25:34:144;0.19153613;9.634268;0.24899697
10:25:34:144;0.19153613;9.634268;0.24899697
10:25:34:144;0.19153613;9.634268;0.24899697
10:25:34:144;0.19153613;9.634268;0.24899697
10:25:34:144;0.19153613;9.634268;0.24899697
10:25:34:144;0.19153613;9.634268;0.24899697
10:25:34:144;0.19153613;9.634268;0.24899697
10:25:34:144;0.19153613;9.634268;0.24899697
10:25:34:144;0.19153613;9.634268;0.24899697
10:25:34:144;0.19153613;9.634268;0.24899697
10:25:34:144;0.19153613;9.634268;0.24899697
10:25:34:144;0.19153613;9.634268;0.24899697
10:25:34:246;-0.63206923;10.036493;0.17238252
10:25:34:246;-0.63206923;10.036493;0.17238252
10:25:34:246;-0.63206923;10.036493;0.17238252
10:25:34:246;-0.63206923;10.036493;0.17238252
10:25:34:246;-0.63206923;10.036493;0.17238252
10:25:34:246;-0.63206923;10.036493;0.17238252
10:25:34:246;-0.63206923;10.036493;0.17238252
10:25:34:246;-0.63206923;10.036493;0.17238252
10:25:34:246;-0.63206923;10.036493;0.17238252
10:25:34:246;-0.63206923;10.036493;0.17238252
10:25:34:246;-0.63206923;10.036493;0.17238252
10:25:34:246;-0.63206923;10.036493;0.17238252
10:25:34:246;-0.63206923;10.036493;0.17238252
10:25:34:246;-0.63206923;10.036493;0.17238252
10:25:34:246;-0.63206923;10.036493;0.17238252
10:25:34:246;-0.63206923;10.036493;0.17238252
10:25:34:246;-0.63206923;10.036493;0.17238252
10:25:34:376;-0.5746084;9.787497;0.59376204
10:25:34:376;-0.5746084;9.787497;0.59376204
10:25:34:376;-0.5746084;9.787497;0.59376204
10:25:34:376;-0.5746084;9.787497;0.59376204
10:25:34:376;-0.5746084;9.787497;0.59376204
10:25:34:376;-0.5746084;9.787497;0.59376204
10:25:34:376;-0.5746084;9.787497;0.59376204
10:25:34:376;-0.5746084;9.787497;0.59376204
10:25:34:376;-0.5746084;9.787497;0.59376204
10:25:34:376;-0.5746084;9.787497;0.59376204
10:25:34:376;-0.5746084;9.787497;0.59376204
10:25:34:376;-0.5746084;9.787497;0.59376204
10:25:34:376;-0.5746084;9.787497;0.59376204
10:25:34:376;-0.5746084;9.787497;0.59376204
10:25:34:486;-0.32561144;10.381259;0.076614454
10:25:34:486;-0.32561144;10.381259;0.076614454
10:25:34:486;-0.32561144;10.381259;0.076614454
10:25:34:486;-0.32561144;10.381259;0.076614454
10:25:34:486;-0.32561144;10.381259;0.076614454
10:25:34:486;-0.32561144;10.381259;0.076614454
10:25:34:486;-0.32561144;10.381259;0.076614454
10:25:34:486;-0.32561144;10.381259;0.076614454
10:25:34:486;-0.32561144;10.381259;0.076614454
10:25:34:486;-0.32561144;10.381259;0.076614454
10:25:34:486;-0.32561144;10.381259;0.076614454
10:25:34:486;-0.32561144;10.381259;0.076614454
10:25:34:486;-0.32561144;10.381259;0.076614454
10:25:34:589;-0.51714754;9.691729;-0.076614454
10:25:34:589;-0.51714754;9.691729;-0.076614454
10:25:34:589;-0.51714754;9.691729;-0.076614454
10:25:34:589;-0.51714754;9.691729;-0.076614454
10:25:34:589;-0.51714754;9.691729;-0.076614454
10:25:34:589;-0.51714754;9.691729;-0.076614454
10:25:34:589;-0.51714754;9.691729;-0.076614454
10:25:34:589;-0.51714754;9.691729;-0.076614454
10:25:34:589;-0.51714754;9.691729;-0.076614454
10:25:34:589;-0.51714754;9.691729;-0.076614454
10:25:34:589;-0.51714754;9.691729;-0.076614454
10:25:34:589;-0.51714754;9.691729;-0.076614454
10:25:34:589;-0.51714754;9.691729;-0.076614454
10:25:34:589;-0.51714754;9.691729;-0.076614454
10:25:34:589;-0.51714754;9.691729;-0.076614454
10:25:34:706;-0.24899697;10.208876;0.038307227
10:25:34:706;-0.24899697;10.208876;0.038307227
10:25:34:706;-0.24899697;10.208876;0.038307227
10:25:34:706;-0.24899697;10.208876;0.038307227
10:25:34:706;-0.24899697;10.208876;0.038307227
10:25:34:706;-0.24899697;10.208876;0.038307227
10:25:34:706;-0.24899697;10.208876;0.038307227
10:25:34:706;-0.24899697;10.208876;0.038307227
10:25:34:706;-0.24899697;10.208876;0.038307227
10:25:34:706;-0.24899697;10.208876;0.038307227
10:25:34:706;-0.24899697;10.208876;0.038307227
10:25:34:706;-0.24899697;10.208876;0.038307227
10:25:34:706;-0.24899697;10.208876;0.038307227
10:25:34:706;-0.24899697;10.208876;0.038307227
10:25:34:706;-0.24899697;10.208876;0.038307227
10:25:34:825;-0.076614454;9.998186;0.51714754
10:25:34:825;-0.076614454;9.998186;0.51714754
10:25:34:825;-0.076614454;9.998186;0.51714754
10:25:34:825;-0.076614454;9.998186;0.51714754
10:25:34:825;-0.076614454;9.998186;0.51714754
10:25:34:825;-0.076614454;9.998186;0.51714754
10:25:34:825;-0.076614454;9.998186;0.51714754
10:25:34:825;-0.076614454;9.998186;0.51714754
10:25:34:825;-0.076614454;9.998186;0.51714754
10:25:34:825;-0.076614454;9.998186;0.51714754
10:25:34:825;-0.076614454;9.998186;0.51714754
10:25:34:825;-0.076614454;9.998186;0.51714754
10:25:34:825;-0.076614454;9.998186;0.51714754
10:25:34:929;0.05746084;9.921572;0.21068975
10:25:34:929;0.05746084;9.921572;0.21068975
10:25:34:929;0.05746084;9.921572;0.21068975
10:25:34:929;0.05746084;9.921572;0.21068975
10:25:34:929;0.05746084;9.921572;0.21068975
10:25:34:929;0.05746084;9.921572;0.21068975
10:25:34:929;0.05746084;9.921572;0.21068975
10:25:34:929;0.05746084;9.921572;0.21068975
10:25:34:929;0.05746084;9.921572;0.21068975
10:25:34:929;0.05746084;9.921572;0.21068975
10:25:34:929;0.05746084;9.921572;0.21068975
10:25:34:929;0.05746084;9.921572;0.21068975
10:25:34:929;0.05746084;9.921572;0.21068975
10:25:34:929;0.05746084;9.921572;0.21068975
10:25:34:929;0.05746084;9.921572;0.21068975
10:25:34:929;0.05746084;9.921572;0.21068975
10:25:35:047;-0.34476504;10.419566;0.36391866
10:25:35:047;-0.34476504;10.419566;0.36391866
10:25:35:047;-0.34476504;10.419566;0.36391866
10:25:35:047;-0.34476504;10.419566;0.36391866
10:25:35:047;-0.34476504;10.419566;0.36391866
10:25:35:047;-0.34476504;10.419566;0.36391866
10:25:35:047;-0.34476504;10.419566;0.36391866
10:25:35:047;-0.34476504;10.419566;0.36391866
10:25:35:047;-0.34476504;10.419566;0.36391866
10:25:35:047;-0.34476504;10.419566;0.36391866
10:25:35:047;-0.34476504;10.419566;0.36391866
10:25:35:047;-0.34476504;10.419566;0.36391866
10:25:35:047;-0.34476504;10.419566;0.36391866
10:25:35:152;-0.24899697;10.151415;-0.038307227
10:25:35:152;-0.24899697;10.151415;-0.038307227
10:25:35:152;-0.24899697;10.151415;-0.038307227
10:25:35:152;-0.24899697;10.151415;-0.038307227
10:25:35:152;-0.24899697;10.151415;-0.038307227
10:25:35:152;-0.24899697;10.151415;-0.038307227
10:25:35:152;-0.24899697;10.151415;-0.038307227
10:25:35:152;-0.24899697;10.151415;-0.038307227
10:25:35:152;-0.24899697;10.151415;-0.038307227
10:25:35:152;-0.24899697;10.151415;-0.038307227
10:25:35:152;-0.24899697;10.151415;-0.038307227
10:25:35:152;-0.24899697;10.151415;-0.038307227
10:25:35:152;-0.24899697;10.151415;-0.038307227
10:25:35:152;-0.24899697;10.151415;-0.038307227
10:25:35:152;-0.24899697;10.151415;-0.038307227
10:25:35:271;-0.49799395;10.036493;0.8810662
10:25:35:271;-0.49799395;10.036493;0.8810662
10:25:35:271;-0.49799395;10.036493;0.8810662
10:25:35:271;-0.49799395;10.036493;0.8810662
10:25:35:271;-0.49799395;10.036493;0.8810662
10:25:35:271;-0.49799395;10.036493;0.8810662
10:25:35:271;-0.49799395;10.036493;0.8810662
10:25:35:271;-0.49799395;10.036493;0.8810662
10:25:35:271;-0.49799395;10.036493;0.8810662
10:25:35:271;-0.49799395;10.036493;0.8810662
10:25:35:271;-0.49799395;10.036493;0.8810662
10:25:35:271;-0.49799395;10.036493;0.8810662
10:25:35:271;-0.49799395;10.036493;0.8810662
10:25:35:271;-0.49799395;10.036493;0.8810662
10:25:35:271;-0.49799395;10.036493;0.8810662
10:25:35:389;-0.4213795;9.864111;0.5554548
10:25:35:389;-0.4213795;9.864111;0.5554548
10:25:35:389;-0.4213795;9.864111;0.5554548
10:25:35:389;-0.4213795;9.864111;0.5554548
10:25:35:389;-0.4213795;9.864111;0.5554548
10:25:35:389;-0.4213795;9.864111;0.5554548
10:25:35:389;-0.4213795;9.864111;0.5554548
10:25:35:389;-0.4213795;9.864111;0.5554548
10:25:35:389;-0.4213795;9.864111;0.5554548
10:25:35:389;-0.4213795;9.864111;0.5554548
10:25:35:389;-0.4213795;9.864111;0.5554548
10:25:35:389;-0.4213795;9.864111;0.5554548
10:25:35:389;-0.4213795;9.864111;0.5554548
10:25:35:389;-0.4213795;9.864111;0.5554548
10:25:35:389;-0.4213795;9.864111;0.5554548
10:25:35:506;-0.51714754;9.940725;0.17238252
10:25:35:506;-0.51714754;9.940725;0.17238252
10:25:35:506;-0.51714754;9.940725;0.17238252
10:25:35:506;-0.51714754;9.940725;0.17238252
10:25:35:506;-0.51714754;9.940725;0.17238252
10:25:35:506;-0.51714754;9.940725;0.17238252
10:25:35:506;-0.51714754;9.940725;0.17238252
10:25:35:506;-0.51714754;9.940725;0.17238252
10:25:35:506;-0.51714754;9.940725;0.17238252
10:25:35:506;-0.51714754;9.940725;0.17238252
10:25:35:506;-0.51714754;9.940725;0.17238252
10:25:35:506;-0.51714754;9.940725;0.17238252
10:25:35:506;-0.51714754;9.940725;0.17238252
10:25:35:506;-0.51714754;9.940725;0.17238252
10:25:35:506;-0.51714754;9.940725;0.17238252
10:25:35:624;-0.32561144;10.132261;-0.038307227
10:25:35:624;-0.32561144;10.132261;-0.038307227
10:25:35:624;-0.32561144;10.132261;-0.038307227
10:25:35:624;-0.32561144;10.132261;-0.038307227
10:25:35:624;-0.32561144;10.132261;-0.038307227
10:25:35:624;-0.32561144;10.132261;-0.038307227
10:25:35:624;-0.32561144;10.132261;-0.038307227
10:25:35:624;-0.32561144;10.132261;-0.038307227
10:25:35:624;-0.32561144;10.132261;-0.038307227
10:25:35:624;-0.32561144;10.132261;-0.038307227
10:25:35:624;-0.32561144;10.132261;-0.038307227
10:25:35:624;-0.32561144;10.132261;-0.038307227
10:25:35:624;-0.32561144;10.132261;-0.038307227
10:25:35:624;-0.32561144;10.132261;-0.038307227
10:25:35:728;-0.5554548;10.093954;0.15322891
10:25:35:728;-0.5554548;10.093954;0.15322891
10:25:35:728;-0.5554548;10.093954;0.15322891
10:25:35:728;-0.5554548;10.093954;0.15322891
10:25:35:728;-0.5554548;10.093954;0.15322891
10:25:35:728;-0.5554548;10.093954;0.15322891
10:25:35:728;-0.5554548;10.093954;0.15322891
10:25:35:728;-0.5554548;10.093954;0.15322891
10:25:35:728;-0.5554548;10.093954;0.15322891
10:25:35:728;-0.5554548;10.093954;0.15322891
10:25:35:728;-0.5554548;10.093954;0.15322891
10:25:35:728;-0.5554548;10.093954;0.15322891
10:25:35:728;-0.5554548;10.093954;0.15322891
10:25:35:728;-0.5554548;10.093954;0.15322891
10:25:35:728;-0.5554548;10.093954;0.15322891
10:25:35:728;-0.5554548;10.093954;0.15322891
10:25:35:728;-0.5554548;10.093954;0.15322891
10:25:35:861;-0.78529817;10.28549;0.038307227
10:25:35:861;-0.78529817;10.28549;0.038307227
10:25:35:861;-0.78529817;10.28549;0.038307227
10:25:35:861;-0.78529817;10.28549;0.038307227
10:25:35:861;-0.78529817;10.28549;0.038307227
10:25:35:861;-0.78529817;10.28549;0.038307227
10:25:35:861;-0.78529817;10.28549;0.038307227
10:25:35:861;-0.78529817;10.28549;0.038307227
10:25:35:861;-0.78529817;10.28549;0.038307227
10:25:35:861;-0.78529817;10.28549;0.038307227
10:25:35:861;-0.78529817;10.28549;0.038307227
10:25:35:861;-0.78529817;10.28549;0.038307227
10:25:35:861;-0.78529817;10.28549;0.038307227
10:25:35:861;-0.78529817;10.28549;0.038307227
10:25:35:976;-0.5363012;10.496181;-0.019153614
10:25:35:976;-0.5363012;10.496181;-0.019153614
10:25:35:976;-0.5363012;10.496181;-0.019153614
10:25:35:976;-0.5363012;10.496181;-0.019153614
10:25:35:976;-0.5363012;10.496181;-0.019153614
10:25:35:976;-0.5363012;10.496181;-0.019153614
10:25:35:976;-0.5363012;10.496181;-0.019153614
10:25:35:976;-0.5363012;10.496181;-0.019153614
10:25:35:976;-0.5363012;10.496181;-0.019153614
10:25:35:976;-0.5363012;10.496181;-0.019153614
10:25:35:976;-0.5363012;10.496181;-0.019153614
10:25:35:976;-0.5363012;10.496181;-0.019153614
10:25:35:976;-0.5363012;10.496181;-0.019153614
10:25:35:976;-0.5363012;10.496181;-0.019153614
10:25:35:976;-0.5363012;10.496181;-0.019153614
10:25:35:976;-0.5363012;10.496181;-0.019153614
10:25:36:094;-0.63206923;9.825804;0.40222588
10:25:36:094;-0.63206923;9.825804;0.40222588
10:25:36:094;-0.63206923;9.825804;0.40222588
10:25:36:094;-0.63206923;9.825804;0.40222588
10:25:36:094;-0.63206923;9.825804;0.40222588
10:25:36:094;-0.63206923;9.825804;0.40222588
10:25:36:094;-0.63206923;9.825804;0.40222588
10:25:36:094;-0.63206923;9.825804;0.40222588
10:25:36:094;-0.63206923;9.825804;0.40222588
10:25:36:094;-0.63206923;9.825804;0.40222588
10:25:36:094;-0.63206923;9.825804;0.40222588
10:25:36:094;-0.63206923;9.825804;0.40222588
10:25:36:094;-0.63206923;9.825804;0.40222588
10:25:36:094;-0.63206923;9.825804;0.40222588
10:25:36:094;-0.63206923;9.825804;0.40222588
10:25:36:094;-0.63206923;9.825804;0.40222588
10:25:36:094;-0.63206923;9.825804;0.40222588
10:25:36:227;-0.49799395;9.883265;0.4405331
10:25:36:227;-0.49799395;9.883265;0.4405331
10:25:36:227;-0.49799395;9.883265;0.4405331
10:25:36:227;-0.49799395;9.883265;0.4405331
10:25:36:227;-0.49799395;9.883265;0.4405331
10:25:36:227;-0.49799395;9.883265;0.4405331
10:25:36:227;-0.49799395;9.883265;0.4405331
10:25:36:227;-0.49799395;9.883265;0.4405331
10:25:36:227;-0.49799395;9.883265;0.4405331
10:25:36:227;-0.49799395;9.883265;0.4405331
10:25:36:227;-0.49799395;9.883265;0.4405331
10:25:36:227;-0.49799395;9.883265;0.4405331
10:25:36:227;-0.49799395;9.883265;0.4405331
10:25:36:329;-0.36391866;9.730036;0.59376204
10:25:36:329;-0.36391866;9.730036;0.59376204
10:25:36:329;-0.36391866;9.730036;0.59376204
10:25:36:329;-0.36391866;9.730036;0.59376204
10:25:36:329;-0.36391866;9.730036;0.59376204
10:25:36:329;-0.36391866;9.730036;0.59376204
10:25:36:329;-0.36391866;9.730036;0.59376204
10:25:36:329;-0.36391866;9.730036;0.59376204
10:25:36:329;-0.36391866;9.730036;0.59376204
10:25:36:329;-0.36391866;9.730036;0.59376204
10:25:36:329;-0.36391866;9.730036;0.59376204
10:25:36:329;-0.36391866;9.730036;0.59376204
10:25:36:329;-0.36391866;9.730036;0.59376204
10:25:36:329;-0.36391866;9.730036;0.59376204
10:25:36:329;-0.36391866;9.730036;0.59376204
10:25:36:329;-0.36391866;9.730036;0.59376204
10:25:36:329;-0.36391866;9.730036;0.59376204
10:25:36:329;-0.36391866;9.730036;0.59376204
10:25:36:329;-0.36391866;9.730036;0.59376204
10:25:36:480;-0.2873042;9.844957;0.6512229
10:25:36:480;-0.2873042;9.844957;0.6512229
10:25:36:480;-0.2873042;9.844957;0.6512229
10:25:36:480;-0.2873042;9.844957;0.6512229
10:25:36:480;-0.2873042;9.844957;0.6512229
10:25:36:480;-0.2873042;9.844957;0.6512229
10:25:36:480;-0.2873042;9.844957;0.6512229
10:25:36:480;-0.2873042;9.844957;0.6512229
10:25:36:480;-0.2873042;9.844957;0.6512229
10:25:36:480;-0.2873042;9.844957;0.6512229
10:25:36:480;-0.2873042;9.844957;0.6512229
10:25:36:480;-0.2873042;9.844957;0.6512229
10:25:36:480;-0.2873042;9.844957;0.6512229
10:25:36:583;-0.32561144;10.093954;0.15322891
10:25:36:583;-0.32561144;10.093954;0.15322891
10:25:36:583;-0.32561144;10.093954;0.15322891
10:25:36:583;-0.32561144;10.093954;0.15322891
10:25:36:583;-0.32561144;10.093954;0.15322891
10:25:36:583;-0.32561144;10.093954;0.15322891
10:25:36:583;-0.32561144;10.093954;0.15322891
10:25:36:583;-0.32561144;10.093954;0.15322891
10:25:36:583;-0.32561144;10.093954;0.15322891
10:25:36:583;-0.32561144;10.093954;0.15322891
10:25:36:583;-0.32561144;10.093954;0.15322891
10:25:36:583;-0.32561144;10.093954;0.15322891
10:25:36:583;-0.32561144;10.093954;0.15322891
10:25:36:583;-0.32561144;10.093954;0.15322891
10:25:36:583;-0.32561144;10.093954;0.15322891
10:25:36:701;-0.19153613;9.844957;0.80445176
10:25:36:701;-0.19153613;9.844957;0.80445176
10:25:36:701;-0.19153613;9.844957;0.80445176
10:25:36:701;-0.19153613;9.844957;0.80445176
10:25:36:701;-0.19153613;9.844957;0.80445176
10:25:36:701;-0.19153613;9.844957;0.80445176
10:25:36:701;-0.19153613;9.844957;0.80445176
10:25:36:701;-0.19153613;9.844957;0.80445176
10:25:36:701;-0.19153613;9.844957;0.80445176
10:25:36:701;-0.19153613;9.844957;0.80445176
10:25:36:701;-0.19153613;9.844957;0.80445176
10:25:36:701;-0.19153613;9.844957;0.80445176
10:25:36:701;-0.19153613;9.844957;0.80445176
10:25:36:701;-0.19153613;9.844957;0.80445176
10:25:36:806;0.095768064;9.787497;0.40222588
10:25:36:806;0.095768064;9.787497;0.40222588
10:25:36:806;0.095768064;9.787497;0.40222588
10:25:36:806;0.095768064;9.787497;0.40222588
10:25:36:806;0.095768064;9.787497;0.40222588
10:25:36:806;0.095768064;9.787497;0.40222588
10:25:36:806;0.095768064;9.787497;0.40222588
10:25:36:806;0.095768064;9.787497;0.40222588
10:25:36:806;0.095768064;9.787497;0.40222588
10:25:36:806;0.095768064;9.787497;0.40222588
10:25:36:806;0.095768064;9.787497;0.40222588
10:25:36:806;0.095768064;9.787497;0.40222588
10:25:36:806;0.095768064;9.787497;0.40222588
10:25:36:806;0.095768064;9.787497;0.40222588
10:25:36:806;0.095768064;9.787497;0.40222588
10:25:36:924;-0.22984336;9.3661175;0.6703765
10:25:36:924;-0.22984336;9.3661175;0.6703765
10:25:36:924;-0.22984336;9.3661175;0.6703765
10:25:36:924;-0.22984336;9.3661175;0.6703765
10:25:36:924;-0.22984336;9.3661175;0.6703765
10:25:36:924;-0.22984336;9.3661175;0.6703765
10:25:36:924;-0.22984336;9.3661175;0.6703765
10:25:36:924;-0.22984336;9.3661175;0.6703765
10:25:36:924;-0.22984336;9.3661175;0.6703765
10:25:36:924;-0.22984336;9.3661175;0.6703765
10:25:36:924;-0.22984336;9.3661175;0.6703765
10:25:36:924;-0.22984336;9.3661175;0.6703765
10:25:36:924;-0.22984336;9.3661175;0.6703765
10:25:37:031;-0.5363012;10.457873;0.36391866
10:25:37:031;-0.5363012;10.457873;0.36391866
10:25:37:031;-0.5363012;10.457873;0.36391866
10:25:37:031;-0.5363012;10.457873;0.36391866
10:25:37:031;-0.5363012;10.457873;0.36391866
10:25:37:031;-0.5363012;10.457873;0.36391866
10:25:37:031;-0.5363012;10.457873;0.36391866
10:25:37:031;-0.5363012;10.457873;0.36391866
10:25:37:031;-0.5363012;10.457873;0.36391866
10:25:37:031;-0.5363012;10.457873;0.36391866
10:25:37:031;-0.5363012;10.457873;0.36391866
10:25:37:031;-0.5363012;10.457873;0.36391866
10:25:37:031;-0.5363012;10.457873;0.36391866
10:25:37:031;-0.5363012;10.457873;0.36391866
10:25:37:031;-0.5363012;10.457873;0.36391866
10:25:37:031;-0.5363012;10.457873;0.36391866
10:25:37:153;-0.5554548;9.691729;0.34476504
10:25:37:153;-0.5554548;9.691729;0.34476504
10:25:37:153;-0.5554548;9.691729;0.34476504
10:25:37:153;-0.5554548;9.691729;0.34476504
10:25:37:153;-0.5554548;9.691729;0.34476504
10:25:37:153;-0.5554548;9.691729;0.34476504
10:25:37:153;-0.5554548;9.691729;0.34476504
10:25:37:153;-0.5554548;9.691729;0.34476504
10:25:37:153;-0.5554548;9.691729;0.34476504
10:25:37:153;-0.5554548;9.691729;0.34476504
10:25:37:153;-0.5554548;9.691729;0.34476504
10:25:37:153;-0.5554548;9.691729;0.34476504
10:25:37:153;-0.5554548;9.691729;0.34476504
10:25:37:153;-0.5554548;9.691729;0.34476504
10:25:37:153;-0.5554548;9.691729;0.34476504
10:25:37:272;-0.19153613;9.825804;0.51714754
10:25:37:272;-0.19153613;9.825804;0.51714754
10:25:37:272;-0.19153613;9.825804;0.51714754
10:25:37:272;-0.19153613;9.825804;0.51714754
10:25:37:272;-0.19153613;9.825804;0.51714754
10:25:37:272;-0.19153613;9.825804;0.51714754
10:25:37:272;-0.19153613;9.825804;0.51714754
10:25:37:272;-0.19153613;9.825804;0.51714754
10:25:37:272;-0.19153613;9.825804;0.51714754
10:25:37:272;-0.19153613;9.825804;0.51714754
10:25:37:272;-0.19153613;9.825804;0.51714754
10:25:37:272;-0.19153613;9.825804;0.51714754
10:25:37:272;-0.19153613;9.825804;0.51714754
10:25:37:272;-0.19153613;9.825804;0.51714754
10:25:37:272;-0.19153613;9.825804;0.51714754
10:25:37:272;-0.19153613;9.825804;0.51714754
10:25:37:391;-0.22984336;10.01734;0.36391866
10:25:37:391;-0.22984336;10.01734;0.36391866
10:25:37:391;-0.22984336;10.01734;0.36391866
10:25:37:391;-0.22984336;10.01734;0.36391866
10:25:37:391;-0.22984336;10.01734;0.36391866
10:25:37:391;-0.22984336;10.01734;0.36391866
10:25:37:391;-0.22984336;10.01734;0.36391866
10:25:37:391;-0.22984336;10.01734;0.36391866
10:25:37:391;-0.22984336;10.01734;0.36391866
10:25:37:391;-0.22984336;10.01734;0.36391866
10:25:37:391;-0.22984336;10.01734;0.36391866
10:25:37:391;-0.22984336;10.01734;0.36391866
10:25:37:391;-0.22984336;10.01734;0.36391866
10:25:37:391;-0.22984336;10.01734;0.36391866
10:25:37:391;-0.22984336;10.01734;0.36391866
10:25:37:509;-0.4405331;10.132261;0.095768064
10:25:37:509;-0.4405331;10.132261;0.095768064
10:25:37:509;-0.4405331;10.132261;0.095768064
10:25:37:509;-0.4405331;10.132261;0.095768064
10:25:37:509;-0.4405331;10.132261;0.095768064
10:25:37:509;-0.4405331;10.132261;0.095768064
10:25:37:509;-0.4405331;10.132261;0.095768064
10:25:37:509;-0.4405331;10.132261;0.095768064
10:25:37:509;-0.4405331;10.132261;0.095768064
10:25:37:509;-0.4405331;10.132261;0.095768064
10:25:37:509;-0.4405331;10.132261;0.095768064
10:25:37:509;-0.4405331;10.132261;0.095768064
10:25:37:509;-0.4405331;10.132261;0.095768064
10:25:37:610;-0.22984336;10.228029;-0.21068975
10:25:37:610;-0.22984336;10.228029;-0.21068975
10:25:37:610;-0.22984336;10.228029;-0.21068975
10:25:37:610;-0.22984336;10.228029;-0.21068975
10:25:37:610;-0.22984336;10.228029;-0.21068975
10:25:37:610;-0.22984336;10.228029;-0.21068975
10:25:37:610;-0.22984336;10.228029;-0.21068975
10:25:37:610;-0.22984336;10.228029;-0.21068975
10:25:37:610;-0.22984336;10.228029;-0.21068975
10:25:37:610;-0.22984336;10.228029;-0.21068975
10:25:37:610;-0.22984336;10.228029;-0.21068975
10:25:37:610;-0.22984336;10.228029;-0.21068975
10:25:37:610;-0.22984336;10.228029;-0.21068975
10:25:37:610;-0.22984336;10.228029;-0.21068975
10:25:37:610;-0.22984336;10.228029;-0.21068975
10:25:37:729;-0.40222588;10.01734;0.05746084
10:25:37:729;-0.40222588;10.01734;0.05746084
10:25:37:729;-0.40222588;10.01734;0.05746084
10:25:37:729;-0.40222588;10.01734;0.05746084
10:25:37:729;-0.40222588;10.01734;0.05746084
10:25:37:729;-0.40222588;10.01734;0.05746084
10:25:37:729;-0.40222588;10.01734;0.05746084
10:25:37:729;-0.40222588;10.01734;0.05746084
10:25:37:729;-0.40222588;10.01734;0.05746084
10:25:37:729;-0.40222588;10.01734;0.05746084
10:25:37:729;-0.40222588;10.01734;0.05746084
10:25:37:729;-0.40222588;10.01734;0.05746084
10:25:37:729;-0.40222588;10.01734;0.05746084
10:25:37:729;-0.40222588;10.01734;0.05746084
10:25:37:729;-0.40222588;10.01734;0.05746084
10:25:37:847;-0.34476504;9.959879;0.59376204
10:25:37:847;-0.34476504;9.959879;0.59376204
10:25:37:847;-0.34476504;9.959879;0.59376204
10:25:37:847;-0.34476504;9.959879;0.59376204
10:25:37:847;-0.34476504;9.959879;0.59376204
10:25:37:847;-0.34476504;9.959879;0.59376204
10:25:37:847;-0.34476504;9.959879;0.59376204
10:25:37:847;-0.34476504;9.959879;0.59376204
10:25:37:847;-0.34476504;9.959879;0.59376204
10:25:37:847;-0.34476504;9.959879;0.59376204
10:25:37:847;-0.34476504;9.959879;0.59376204
10:25:37:847;-0.34476504;9.959879;0.59376204
10:25:37:847;-0.34476504;9.959879;0.59376204
10:25:37:847;-0.34476504;9.959879;0.59376204
10:25:37:847;-0.34476504;9.959879;0.59376204
10:25:37:847;-0.34476504;9.959879;0.59376204
10:25:37:847;-0.34476504;9.959879;0.59376204
10:25:37:979;-0.05746084;9.921572;0.4405331
10:25:37:979;-0.05746084;9.921572;0.4405331
10:25:37:979;-0.05746084;9.921572;0.4405331
10:25:37:979;-0.05746084;9.921572;0.4405331
10:25:37:979;-0.05746084;9.921572;0.4405331
10:25:37:979;-0.05746084;9.921572;0.4405331
10:25:37:979;-0.05746084;9.921572;0.4405331
10:25:37:979;-0.05746084;9.921572;0.4405331
10:25:37:979;-0.05746084;9.921572;0.4405331
10:25:37:979;-0.05746084;9.921572;0.4405331
10:25:37:979;-0.05746084;9.921572;0.4405331
10:25:37:979;-0.05746084;9.921572;0.4405331
10:25:37:979;-0.05746084;9.921572;0.4405331
10:25:37:979;-0.05746084;9.921572;0.4405331
10:25:37:979;-0.05746084;9.921572;0.4405331
10:25:37:979;-0.05746084;9.921572;0.4405331
10:25:37:979;-0.05746084;9.921572;0.4405331
10:25:37:979;-0.05746084;9.921572;0.4405331
10:25:37:979;-0.05746084;9.921572;0.4405331
10:25:38:132;-0.32561144;9.902418;0.19153613
10:25:38:132;-0.32561144;9.902418;0.19153613
10:25:38:132;-0.32561144;9.902418;0.19153613
10:25:38:132;-0.32561144;9.902418;0.19153613
10:25:38:132;-0.32561144;9.902418;0.19153613
10:25:38:132;-0.32561144;9.902418;0.19153613
10:25:38:132;-0.32561144;9.902418;0.19153613
10:25:38:132;-0.32561144;9.902418;0.19153613
10:25:38:132;-0.32561144;9.902418;0.19153613
10:25:38:132;-0.32561144;9.902418;0.19153613
10:25:38:132;-0.32561144;9.902418;0.19153613
10:25:38:132;-0.32561144;9.902418;0.19153613
10:25:38:132;-0.32561144;9.902418;0.19153613
10:25:38:132;-0.32561144;9.902418;0.19153613
10:25:38:239;-0.30645782;9.691729;0.4213795
10:25:38:239;-0.30645782;9.691729;0.4213795
10:25:38:239;-0.30645782;9.691729;0.4213795
10:25:38:239;-0.30645782;9.691729;0.4213795
10:25:38:239;-0.30645782;9.691729;0.4213795
10:25:38:239;-0.30645782;9.691729;0.4213795
10:25:38:239;-0.30645782;9.691729;0.4213795
10:25:38:239;-0.30645782;9.691729;0.4213795
10:25:38:239;-0.30645782;9.691729;0.4213795
10:25:38:239;-0.30645782;9.691729;0.4213795
10:25:38:239;-0.30645782;9.691729;0.4213795
10:25:38:239;-0.30645782;9.691729;0.4213795
10:25:38:239;-0.30645782;9.691729;0.4213795
10:25:38:239;-0.30645782;9.691729;0.4213795
10:25:38:239;-0.30645782;9.691729;0.4213795
10:25:38:359;-0.45968673;10.362105;0.05746084
10:25:38:359;-0.45968673;10.362105;0.05746084
10:25:38:359;-0.45968673;10.362105;0.05746084
10:25:38:359;-0.45968673;10.362105;0.05746084
10:25:38:359;-0.45968673;10.362105;0.05746084
10:25:38:359;-0.45968673;10.362105;0.05746084
10:25:38:359;-0.45968673;10.362105;0.05746084
10:25:38:359;-0.45968673;10.362105;0.05746084
10:25:38:359;-0.45968673;10.362105;0.05746084
10:25:38:359;-0.45968673;10.362105;0.05746084
10:25:38:359;-0.45968673;10.362105;0.05746084
10:25:38:359;-0.45968673;10.362105;0.05746084
10:25:38:359;-0.45968673;10.362105;0.05746084
10:25:38:459;-0.40222588;9.691729;0.78529817
10:25:38:459;-0.40222588;9.691729;0.78529817
10:25:38:459;-0.40222588;9.691729;0.78529817
10:25:38:459;-0.40222588;9.691729;0.78529817
10:25:38:459;-0.40222588;9.691729;0.78529817
10:25:38:459;-0.40222588;9.691729;0.78529817
10:25:38:459;-0.40222588;9.691729;0.78529817
10:25:38:459;-0.40222588;9.691729;0.78529817
10:25:38:459;-0.40222588;9.691729;0.78529817
10:25:38:459;-0.40222588;9.691729;0.78529817
10:25:38:459;-0.40222588;9.691729;0.78529817
10:25:38:459;-0.40222588;9.691729;0.78529817
10:25:38:459;-0.40222588;9.691729;0.78529817
10:25:38:459;-0.40222588;9.691729;0.78529817
10:25:38:459;-0.40222588;9.691729;0.78529817
10:25:38:578;-0.34476504;10.534488;-0.038307227
10:25:38:578;-0.34476504;10.534488;-0.038307227
10:25:38:578;-0.34476504;10.534488;-0.038307227
10:25:38:578;-0.34476504;10.534488;-0.038307227
10:25:38:578;-0.34476504;10.534488;-0.038307227
10:25:38:578;-0.34476504;10.534488;-0.038307227
10:25:38:578;-0.34476504;10.534488;-0.038307227
10:25:38:578;-0.34476504;10.534488;-0.038307227
10:25:38:578;-0.34476504;10.534488;-0.038307227
10:25:38:578;-0.34476504;10.534488;-0.038307227
10:25:38:578;-0.34476504;10.534488;-0.038307227
10:25:38:578;-0.34476504;10.534488;-0.038307227
10:25:38:578;-0.34476504;10.534488;-0.038307227
10:25:38:578;-0.34476504;10.534488;-0.038307227
10:25:38:578;-0.34476504;10.534488;-0.038307227
10:25:38:578;-0.34476504;10.534488;-0.038307227
10:25:38:696;-0.36391866;9.844957;0.30645782
10:25:38:696;-0.36391866;9.844957;0.30645782
10:25:38:696;-0.36391866;9.844957;0.30645782
10:25:38:696;-0.36391866;9.844957;0.30645782
10:25:38:696;-0.36391866;9.844957;0.30645782
10:25:38:696;-0.36391866;9.844957;0.30645782
10:25:38:696;-0.36391866;9.844957;0.30645782
10:25:38:696;-0.36391866;9.844957;0.30645782
10:25:38:696;-0.36391866;9.844957;0.30645782
10:25:38:696;-0.36391866;9.844957;0.30645782
10:25:38:696;-0.36391866;9.844957;0.30645782
10:25:38:696;-0.36391866;9.844957;0.30645782
10:25:38:696;-0.36391866;9.844957;0.30645782
10:25:38:801;-0.19153613;10.43872;0.038307227
10:25:38:801;-0.19153613;10.43872;0.038307227
10:25:38:801;-0.19153613;10.43872;0.038307227
10:25:38:801;-0.19153613;10.43872;0.038307227
10:25:38:801;-0.19153613;10.43872;0.038307227
10:25:38:801;-0.19153613;10.43872;0.038307227
10:25:38:801;-0.19153613;10.43872;0.038307227
10:25:38:801;-0.19153613;10.43872;0.038307227
10:25:38:801;-0.19153613;10.43872;0.038307227
10:25:38:801;-0.19153613;10.43872;0.038307227
10:25:38:801;-0.19153613;10.43872;0.038307227
10:25:38:801;-0.19153613;10.43872;0.038307227
10:25:38:801;-0.19153613;10.43872;0.038307227
10:25:38:801;-0.19153613;10.43872;0.038307227
10:25:38:801;-0.19153613;10.43872;0.038307227
10:25:38:915;-0.32561144;9.787497;0.34476504
10:25:38:915;-0.32561144;9.787497;0.34476504
10:25:38:915;-0.32561144;9.787497;0.34476504
10:25:38:915;-0.32561144;9.787497;0.34476504
10:25:38:915;-0.32561144;9.787497;0.34476504
10:25:38:915;-0.32561144;9.787497;0.34476504
10:25:38:915;-0.32561144;9.787497;0.34476504
10:25:38:915;-0.32561144;9.787497;0.34476504
10:25:38:915;-0.32561144;9.787497;0.34476504
10:25:38:915;-0.32561144;9.787497;0.34476504
10:25:38:915;-0.32561144;9.787497;0.34476504
10:25:38:915;-0.32561144;9.787497;0.34476504
10:25:38:915;-0.32561144;9.787497;0.34476504
10:25:38:915;-0.32561144;9.787497;0.34476504
10:25:38:915;-0.32561144;9.787497;0.34476504
10:25:39:034;0.095768064;9.749189;0.15322891
10:25:39:034;0.095768064;9.749189;0.15322891
10:25:39:034;0.095768064;9.749189;0.15322891
10:25:39:034;0.095768064;9.749189;0.15322891
10:25:39:034;0.095768064;9.749189;0.15322891
10:25:39:034;0.095768064;9.749189;0.15322891
10:25:39:034;0.095768064;9.749189;0.15322891
10:25:39:034;0.095768064;9.749189;0.15322891
10:25:39:034;0.095768064;9.749189;0.15322891
10:25:39:034;0.095768064;9.749189;0.15322891
10:25:39:034;0.095768064;9.749189;0.15322891
10:25:39:034;0.095768064;9.749189;0.15322891
10:25:39:034;0.095768064;9.749189;0.15322891
10:25:39:034;0.095768064;9.749189;0.15322891
10:25:39:148;-0.45968673;9.500193;0.6895301
10:25:39:148;-0.45968673;9.500193;0.6895301
10:25:39:148;-0.45968673;9.500193;0.6895301
10:25:39:148;-0.45968673;9.500193;0.6895301
10:25:39:148;-0.45968673;9.500193;0.6895301
10:25:39:148;-0.45968673;9.500193;0.6895301
10:25:39:148;-0.45968673;9.500193;0.6895301
10:25:39:148;-0.45968673;9.500193;0.6895301
10:25:39:148;-0.45968673;9.500193;0.6895301
10:25:39:148;-0.45968673;9.500193;0.6895301
10:25:39:148;-0.45968673;9.500193;0.6895301
10:25:39:148;-0.45968673;9.500193;0.6895301
10:25:39:148;-0.45968673;9.500193;0.6895301
10:25:39:148;-0.45968673;9.500193;0.6895301
10:25:39:148;-0.45968673;9.500193;0.6895301
10:25:39:148;-0.45968673;9.500193;0.6895301
10:25:39:268;0.076614454;8.829816;0.7278373
10:25:39:268;0.076614454;8.829816;0.7278373
10:25:39:268;0.076614454;8.829816;0.7278373
10:25:39:268;0.076614454;8.829816;0.7278373
10:25:39:268;0.076614454;8.829816;0.7278373
10:25:39:268;0.076614454;8.829816;0.7278373
10:25:39:268;0.076614454;8.829816;0.7278373
10:25:39:268;0.076614454;8.829816;0.7278373
10:25:39:268;0.076614454;8.829816;0.7278373
10:25:39:268;0.076614454;8.829816;0.7278373
10:25:39:268;0.076614454;8.829816;0.7278373
10:25:39:268;0.076614454;8.829816;0.7278373
10:25:39:268;0.076614454;8.829816;0.7278373
10:25:39:369;-0.9959879;11.224017;0.91937345
10:25:39:369;-0.9959879;11.224017;0.91937345
10:25:39:369;-0.9959879;11.224017;0.91937345
10:25:39:369;-0.9959879;11.224017;0.91937345
10:25:39:369;-0.9959879;11.224017;0.91937345
10:25:39:369;-0.9959879;11.224017;0.91937345
10:25:39:369;-0.9959879;11.224017;0.91937345
10:25:39:369;-0.9959879;11.224017;0.91937345
10:25:39:369;-0.9959879;11.224017;0.91937345
10:25:39:369;-0.9959879;11.224017;0.91937345
10:25:39:369;-0.9959879;11.224017;0.91937345
10:25:39:369;-0.9959879;11.224017;0.91937345
10:25:39:369;-0.9959879;11.224017;0.91937345
10:25:39:369;-0.9959879;11.224017;0.91937345
10:25:39:369;-0.9959879;11.224017;0.91937345
10:25:39:486;-0.47884035;10.170568;0.22984336
10:25:39:486;-0.47884035;10.170568;0.22984336
10:25:39:486;-0.47884035;10.170568;0.22984336
10:25:39:486;-0.47884035;10.170568;0.22984336
10:25:39:486;-0.47884035;10.170568;0.22984336
10:25:39:486;-0.47884035;10.170568;0.22984336
10:25:39:486;-0.47884035;10.170568;0.22984336
10:25:39:486;-0.47884035;10.170568;0.22984336
10:25:39:486;-0.47884035;10.170568;0.22984336
10:25:39:486;-0.47884035;10.170568;0.22984336
10:25:39:486;-0.47884035;10.170568;0.22984336
10:25:39:486;-0.47884035;10.170568;0.22984336
10:25:39:486;-0.47884035;10.170568;0.22984336
10:25:39:587;0.05746084;9.595961;0.095768064
10:25:39:587;0.05746084;9.595961;0.095768064
10:25:39:587;0.05746084;9.595961;0.095768064
10:25:39:587;0.05746084;9.595961;0.095768064
10:25:39:587;0.05746084;9.595961;0.095768064
10:25:39:587;0.05746084;9.595961;0.095768064
10:25:39:587;0.05746084;9.595961;0.095768064
10:25:39:587;0.05746084;9.595961;0.095768064
10:25:39:587;0.05746084;9.595961;0.095768064
10:25:39:587;0.05746084;9.595961;0.095768064
10:25:39:587;0.05746084;9.595961;0.095768064
10:25:39:587;0.05746084;9.595961;0.095768064
10:25:39:587;0.05746084;9.595961;0.095768064
10:25:39:587;0.05746084;9.595961;0.095768064
10:25:39:587;0.05746084;9.595961;0.095768064
10:25:39:710;-0.7278373;9.730036;0.63206923
10:25:39:710;-0.7278373;9.730036;0.63206923
10:25:39:710;-0.7278373;9.730036;0.63206923
10:25:39:710;-0.7278373;9.730036;0.63206923
10:25:39:710;-0.7278373;9.730036;0.63206923
10:25:39:710;-0.7278373;9.730036;0.63206923
10:25:39:710;-0.7278373;9.730036;0.63206923
10:25:39:710;-0.7278373;9.730036;0.63206923
10:25:39:710;-0.7278373;9.730036;0.63206923
10:25:39:710;-0.7278373;9.730036;0.63206923
10:25:39:710;-0.7278373;9.730036;0.63206923
10:25:39:710;-0.7278373;9.730036;0.63206923
10:25:39:710;-0.7278373;9.730036;0.63206923
10:25:39:710;-0.7278373;9.730036;0.63206923
10:25:39:710;-0.7278373;9.730036;0.63206923
10:25:39:827;-0.6703765;9.557653;0.30645782
10:25:39:827;-0.6703765;9.557653;0.30645782
10:25:39:827;-0.6703765;9.557653;0.30645782
10:25:39:827;-0.6703765;9.557653;0.30645782
10:25:39:827;-0.6703765;9.557653;0.30645782
10:25:39:827;-0.6703765;9.557653;0.30645782
10:25:39:827;-0.6703765;9.557653;0.30645782
10:25:39:827;-0.6703765;9.557653;0.30645782
10:25:39:827;-0.6703765;9.557653;0.30645782
10:25:39:827;-0.6703765;9.557653;0.30645782
10:25:39:827;-0.6703765;9.557653;0.30645782
10:25:39:827;-0.6703765;9.557653;0.30645782
10:25:39:827;-0.6703765;9.557653;0.30645782
10:25:39:827;-0.6703765;9.557653;0.30645782
10:25:39:827;-0.6703765;9.557653;0.30645782
10:25:39:827;-0.6703765;9.557653;0.30645782
10:25:39:949;-0.8810662;10.228029;0.49799395
10:25:39:949;-0.8810662;10.228029;0.49799395
10:25:39:949;-0.8810662;10.228029;0.49799395
10:25:39:949;-0.8810662;10.228029;0.49799395
10:25:39:949;-0.8810662;10.228029;0.49799395
10:25:39:949;-0.8810662;10.228029;0.49799395
10:25:39:949;-0.8810662;10.228029;0.49799395
10:25:39:949;-0.8810662;10.228029;0.49799395
10:25:39:949;-0.8810662;10.228029;0.49799395
10:25:39:949;-0.8810662;10.228029;0.49799395
10:25:39:949;-0.8810662;10.228029;0.49799395
10:25:39:949;-0.8810662;10.228029;0.49799395
10:25:39:949;-0.8810662;10.228029;0.49799395
10:25:39:949;-0.8810662;10.228029;0.49799395
10:25:39:949;-0.8810662;10.228029;0.49799395
10:25:40:067;-0.40222588;9.825804;0.2681506
10:25:40:067;-0.40222588;9.825804;0.2681506
10:25:40:067;-0.40222588;9.825804;0.2681506
10:25:40:067;-0.40222588;9.825804;0.2681506
10:25:40:067;-0.40222588;9.825804;0.2681506
10:25:40:067;-0.40222588;9.825804;0.2681506
10:25:40:067;-0.40222588;9.825804;0.2681506
10:25:40:067;-0.40222588;9.825804;0.2681506
10:25:40:067;-0.40222588;9.825804;0.2681506
10:25:40:067;-0.40222588;9.825804;0.2681506
10:25:40:067;-0.40222588;9.825804;0.2681506
10:25:40:067;-0.40222588;9.825804;0.2681506
10:25:40:067;-0.40222588;9.825804;0.2681506
10:25:40:170;-0.49799395;9.998186;0.17238252
10:25:40:170;-0.49799395;9.998186;0.17238252
10:25:40:170;-0.49799395;9.998186;0.17238252
10:25:40:170;-0.49799395;9.998186;0.17238252
10:25:40:170;-0.49799395;9.998186;0.17238252
10:25:40:170;-0.49799395;9.998186;0.17238252
10:25:40:170;-0.49799395;9.998186;0.17238252
10:25:40:170;-0.49799395;9.998186;0.17238252
10:25:40:170;-0.49799395;9.998186;0.17238252
10:25:40:170;-0.49799395;9.998186;0.17238252
10:25:40:170;-0.49799395;9.998186;0.17238252
10:25:40:170;-0.49799395;9.998186;0.17238252
10:25:40:170;-0.49799395;9.998186;0.17238252
10:25:40:170;-0.49799395;9.998186;0.17238252
10:25:40:170;-0.49799395;9.998186;0.17238252
10:25:40:288;-0.4405331;9.902418;0.90021986
10:25:40:288;-0.4405331;9.902418;0.90021986
10:25:40:288;-0.4405331;9.902418;0.90021986
10:25:40:288;-0.4405331;9.902418;0.90021986
10:25:40:288;-0.4405331;9.902418;0.90021986
10:25:40:288;-0.4405331;9.902418;0.90021986
10:25:40:288;-0.4405331;9.902418;0.90021986
10:25:40:288;-0.4405331;9.902418;0.90021986
10:25:40:288;-0.4405331;9.902418;0.90021986
10:25:40:288;-0.4405331;9.902418;0.90021986
10:25:40:288;-0.4405331;9.902418;0.90021986
10:25:40:288;-0.4405331;9.902418;0.90021986
10:25:40:288;-0.4405331;9.902418;0.90021986
10:25:40:288;-0.4405331;9.902418;0.90021986
10:25:40:392;-0.30645782;10.28549;0.019153614
10:25:40:392;-0.30645782;10.28549;0.019153614
10:25:40:392;-0.30645782;10.28549;0.019153614
10:25:40:392;-0.30645782;10.28549;0.019153614
10:25:40:392;-0.30645782;10.28549;0.019153614
10:25:40:392;-0.30645782;10.28549;0.019153614
10:25:40:392;-0.30645782;10.28549;0.019153614
10:25:40:392;-0.30645782;10.28549;0.019153614
10:25:40:392;-0.30645782;10.28549;0.019153614
10:25:40:392;-0.30645782;10.28549;0.019153614
10:25:40:392;-0.30645782;10.28549;0.019153614
10:25:40:392;-0.30645782;10.28549;0.019153614
10:25:40:392;-0.30645782;10.28549;0.019153614
10:25:40:392;-0.30645782;10.28549;0.019153614
10:25:40:392;-0.30645782;10.28549;0.019153614
10:25:40:515;-0.40222588;10.132261;-0.24899697
10:25:40:515;-0.40222588;10.132261;-0.24899697
10:25:40:515;-0.40222588;10.132261;-0.24899697
10:25:40:515;-0.40222588;10.132261;-0.24899697
10:25:40:515;-0.40222588;10.132261;-0.24899697
10:25:40:515;-0.40222588;10.132261;-0.24899697
10:25:40:515;-0.40222588;10.132261;-0.24899697
10:25:40:515;-0.40222588;10.132261;-0.24899697
10:25:40:515;-0.40222588;10.132261;-0.24899697
10:25:40:515;-0.40222588;10.132261;-0.24899697
10:25:40:515;-0.40222588;10.132261;-0.24899697
10:25:40:515;-0.40222588;10.132261;-0.24899697
10:25:40:515;-0.40222588;10.132261;-0.24899697
10:25:40:515;-0.40222588;10.132261;-0.24899697
10:25:40:623;-0.17238252;9.959879;0.4405331
10:25:40:623;-0.17238252;9.959879;0.4405331
10:25:40:623;-0.17238252;9.959879;0.4405331
10:25:40:623;-0.17238252;9.959879;0.4405331
10:25:40:623;-0.17238252;9.959879;0.4405331
10:25:40:623;-0.17238252;9.959879;0.4405331
10:25:40:623;-0.17238252;9.959879;0.4405331
10:25:40:623;-0.17238252;9.959879;0.4405331
10:25:40:623;-0.17238252;9.959879;0.4405331
10:25:40:623;-0.17238252;9.959879;0.4405331
10:25:40:623;-0.17238252;9.959879;0.4405331
10:25:40:623;-0.17238252;9.959879;0.4405331
10:25:40:623;-0.17238252;9.959879;0.4405331
10:25:40:623;-0.17238252;9.959879;0.4405331
10:25:40:623;-0.17238252;9.959879;0.4405331
10:25:40:737;0.076614454;9.710882;0.7469909
10:25:40:737;0.076614454;9.710882;0.7469909
10:25:40:737;0.076614454;9.710882;0.7469909
10:25:40:737;0.076614454;9.710882;0.7469909
10:25:40:737;0.076614454;9.710882;0.7469909
10:25:40:737;0.076614454;9.710882;0.7469909
10:25:40:737;0.076614454;9.710882;0.7469909
10:25:40:737;0.076614454;9.710882;0.7469909
10:25:40:737;0.076614454;9.710882;0.7469909
10:25:40:737;0.076614454;9.710882;0.7469909
10:25:40:737;0.076614454;9.710882;0.7469909
10:25:40:737;0.076614454;9.710882;0.7469909
10:25:40:737;0.076614454;9.710882;0.7469909
10:25:40:737;0.076614454;9.710882;0.7469909
10:25:40:737;0.076614454;9.710882;0.7469909
10:25:40:737;0.076614454;9.710882;0.7469909
10:25:40:737;0.076614454;9.710882;0.7469909
10:25:40:871;-0.5363012;9.615114;0.63206923
10:25:40:871;-0.5363012;9.615114;0.63206923
10:25:40:871;-0.5363012;9.615114;0.63206923
10:25:40:871;-0.5363012;9.615114;0.63206923
10:25:40:871;-0.5363012;9.615114;0.63206923
10:25:40:871;-0.5363012;9.615114;0.63206923
10:25:40:871;-0.5363012;9.615114;0.63206923
10:25:40:871;-0.5363012;9.615114;0.63206923
10:25:40:871;-0.5363012;9.615114;0.63206923
10:25:40:871;-0.5363012;9.615114;0.63206923
10:25:40:871;-0.5363012;9.615114;0.63206923
10:25:40:871;-0.5363012;9.615114;0.63206923
10:25:40:871;-0.5363012;9.615114;0.63206923
10:25:40:976;-0.40222588;9.825804;0.40222588
10:25:40:976;-0.40222588;9.825804;0.40222588
10:25:40:976;-0.40222588;9.825804;0.40222588
10:25:40:976;-0.40222588;9.825804;0.40222588
10:25:40:976;-0.40222588;9.825804;0.40222588
10:25:40:976;-0.40222588;9.825804;0.40222588
10:25:40:976;-0.40222588;9.825804;0.40222588
10:25:40:976;-0.40222588;9.825804;0.40222588
10:25:40:976;-0.40222588;9.825804;0.40222588
10:25:40:976;-0.40222588;9.825804;0.40222588
10:25:40:976;-0.40222588;9.825804;0.40222588
10:25:40:976;-0.40222588;9.825804;0.40222588
10:25:40:976;-0.40222588;9.825804;0.40222588
10:25:40:976;-0.40222588;9.825804;0.40222588
10:25:40:976;-0.40222588;9.825804;0.40222588
10:25:40:976;-0.40222588;9.825804;0.40222588
10:25:41:097;-0.17238252;9.672575;0.40222588
10:25:41:097;-0.17238252;9.672575;0.40222588
10:25:41:097;-0.17238252;9.672575;0.40222588
10:25:41:097;-0.17238252;9.672575;0.40222588
10:25:41:097;-0.17238252;9.672575;0.40222588
10:25:41:097;-0.17238252;9.672575;0.40222588
10:25:41:097;-0.17238252;9.672575;0.40222588
10:25:41:097;-0.17238252;9.672575;0.40222588
10:25:41:097;-0.17238252;9.672575;0.40222588
10:25:41:097;-0.17238252;9.672575;0.40222588
10:25:41:097;-0.17238252;9.672575;0.40222588
10:25:41:097;-0.17238252;9.672575;0.40222588
10:25:41:097;-0.17238252;9.672575;0.40222588
10:25:41:097;-0.17238252;9.672575;0.40222588
10:25:41:097;-0.17238252;9.672575;0.40222588
10:25:41:213;-0.34476504;9.787497;0.38307226
10:25:41:213;-0.34476504;9.787497;0.38307226
10:25:41:213;-0.34476504;9.787497;0.38307226
10:25:41:213;-0.34476504;9.787497;0.38307226
10:25:41:213;-0.34476504;9.787497;0.38307226
10:25:41:213;-0.34476504;9.787497;0.38307226
10:25:41:213;-0.34476504;9.787497;0.38307226
10:25:41:213;-0.34476504;9.787497;0.38307226
10:25:41:213;-0.34476504;9.787497;0.38307226
10:25:41:213;-0.34476504;9.787497;0.38307226
10:25:41:213;-0.34476504;9.787497;0.38307226
10:25:41:213;-0.34476504;9.787497;0.38307226
10:25:41:213;-0.34476504;9.787497;0.38307226
10:25:41:213;-0.34476504;9.787497;0.38307226
10:25:41:213;-0.34476504;9.787497;0.38307226
10:25:41:332;-0.5363012;9.883265;0.1340753
10:25:41:332;-0.5363012;9.883265;0.1340753
10:25:41:332;-0.5363012;9.883265;0.1340753
10:25:41:332;-0.5363012;9.883265;0.1340753
10:25:41:332;-0.5363012;9.883265;0.1340753
10:25:41:332;-0.5363012;9.883265;0.1340753
10:25:41:332;-0.5363012;9.883265;0.1340753
10:25:41:332;-0.5363012;9.883265;0.1340753
10:25:41:332;-0.5363012;9.883265;0.1340753
10:25:41:332;-0.5363012;9.883265;0.1340753
10:25:41:332;-0.5363012;9.883265;0.1340753
10:25:41:332;-0.5363012;9.883265;0.1340753
10:25:41:332;-0.5363012;9.883265;0.1340753
10:25:41:332;-0.5363012;9.883265;0.1340753
10:25:41:332;-0.5363012;9.883265;0.1340753
10:25:41:448;-0.32561144;10.113108;0.076614454
10:25:41:448;-0.32561144;10.113108;0.076614454
10:25:41:448;-0.32561144;10.113108;0.076614454
10:25:41:448;-0.32561144;10.113108;0.076614454
10:25:41:448;-0.32561144;10.113108;0.076614454
10:25:41:448;-0.32561144;10.113108;0.076614454
10:25:41:448;-0.32561144;10.113108;0.076614454
10:25:41:448;-0.32561144;10.113108;0.076614454
10:25:41:448;-0.32561144;10.113108;0.076614454
10:25:41:448;-0.32561144;10.113108;0.076614454
10:25:41:448;-0.32561144;10.113108;0.076614454
10:25:41:448;-0.32561144;10.113108;0.076614454
10:25:41:448;-0.32561144;10.113108;0.076614454
10:25:41:550;-0.5363012;10.534488;-0.095768064
10:25:41:550;-0.5363012;10.534488;-0.095768064
10:25:41:550;-0.5363012;10.534488;-0.095768064
10:25:41:550;-0.5363012;10.534488;-0.095768064
10:25:41:550;-0.5363012;10.534488;-0.095768064
10:25:41:550;-0.5363012;10.534488;-0.095768064
10:25:41:550;-0.5363012;10.534488;-0.095768064
10:25:41:550;-0.5363012;10.534488;-0.095768064
10:25:41:550;-0.5363012;10.534488;-0.095768064
10:25:41:550;-0.5363012;10.534488;-0.095768064
10:25:41:550;-0.5363012;10.534488;-0.095768064
10:25:41:550;-0.5363012;10.534488;-0.095768064
10:25:41:550;-0.5363012;10.534488;-0.095768064
10:25:41:651;-0.47884035;10.247183;0.17238252
10:25:41:651;-0.47884035;10.247183;0.17238252
10:25:41:651;-0.47884035;10.247183;0.17238252
10:25:41:651;-0.47884035;10.247183;0.17238252
10:25:41:651;-0.47884035;10.247183;0.17238252
10:25:41:651;-0.47884035;10.247183;0.17238252
10:25:41:651;-0.47884035;10.247183;0.17238252
10:25:41:651;-0.47884035;10.247183;0.17238252
10:25:41:651;-0.47884035;10.247183;0.17238252
10:25:41:651;-0.47884035;10.247183;0.17238252
10:25:41:651;-0.47884035;10.247183;0.17238252
10:25:41:651;-0.47884035;10.247183;0.17238252
10:25:41:651;-0.47884035;10.247183;0.17238252
10:25:41:651;-0.47884035;10.247183;0.17238252
10:25:41:651;-0.47884035;10.247183;0.17238252
10:25:41:767;-0.22984336;10.151415;0.24899697
10:25:41:767;-0.22984336;10.151415;0.24899697
10:25:41:767;-0.22984336;10.151415;0.24899697
10:25:41:767;-0.22984336;10.151415;0.24899697
10:25:41:767;-0.22984336;10.151415;0.24899697
10:25:41:767;-0.22984336;10.151415;0.24899697
10:25:41:767;-0.22984336;10.151415;0.24899697
10:25:41:767;-0.22984336;10.151415;0.24899697
10:25:41:767;-0.22984336;10.151415;0.24899697
10:25:41:767;-0.22984336;10.151415;0.24899697
10:25:41:767;-0.22984336;10.151415;0.24899697
10:25:41:767;-0.22984336;10.151415;0.24899697
10:25:41:767;-0.22984336;10.151415;0.24899697
10:25:41:767;-0.22984336;10.151415;0.24899697
10:25:41:880;-0.5746084;10.093954;0.019153614
10:25:41:880;-0.5746084;10.093954;0.019153614
10:25:41:880;-0.5746084;10.093954;0.019153614
10:25:41:880;-0.5746084;10.093954;0.019153614
10:25:41:880;-0.5746084;10.093954;0.019153614
10:25:41:880;-0.5746084;10.093954;0.019153614
10:25:41:880;-0.5746084;10.093954;0.019153614
10:25:41:880;-0.5746084;10.093954;0.019153614
10:25:41:880;-0.5746084;10.093954;0.019153614
10:25:41:880;-0.5746084;10.093954;0.019153614
10:25:41:880;-0.5746084;10.093954;0.019153614
10:25:41:880;-0.5746084;10.093954;0.019153614
10:25:41:880;-0.5746084;10.093954;0.019153614
10:25:41:880;-0.5746084;10.093954;0.019153614
10:25:41:992;-0.40222588;9.557653;0.22984336
10:25:41:992;-0.40222588;9.557653;0.22984336
10:25:41:992;-0.40222588;9.557653;0.22984336
10:25:41:992;-0.40222588;9.557653;0.22984336
10:25:41:992;-0.40222588;9.557653;0.22984336
10:25:41:992;-0.40222588;9.557653;0.22984336
10:25:41:992;-0.40222588;9.557653;0.22984336
10:25:41:992;-0.40222588;9.557653;0.22984336
10:25:41:992;-0.40222588;9.557653;0.22984336
10:25:41:992;-0.40222588;9.557653;0.22984336
10:25:41:992;-0.40222588;9.557653;0.22984336
10:25:41:992;-0.40222588;9.557653;0.22984336
10:25:41:992;-0.40222588;9.557653;0.22984336
10:25:41:992;-0.40222588;9.557653;0.22984336
10:25:41:992;-0.40222588;9.557653;0.22984336
10:25:42:106;-0.24899697;9.902418;0.17238252
10:25:42:106;-0.24899697;9.902418;0.17238252
10:25:42:106;-0.24899697;9.902418;0.17238252
10:25:42:106;-0.24899697;9.902418;0.17238252
10:25:42:106;-0.24899697;9.902418;0.17238252
10:25:42:106;-0.24899697;9.902418;0.17238252
10:25:42:106;-0.24899697;9.902418;0.17238252
10:25:42:106;-0.24899697;9.902418;0.17238252
10:25:42:106;-0.24899697;9.902418;0.17238252
10:25:42:106;-0.24899697;9.902418;0.17238252
10:25:42:106;-0.24899697;9.902418;0.17238252
10:25:42:106;-0.24899697;9.902418;0.17238252
10:25:42:106;-0.24899697;9.902418;0.17238252
10:25:42:106;-0.24899697;9.902418;0.17238252
10:25:42:212;-0.36391866;9.921572;0.36391866
10:25:42:212;-0.36391866;9.921572;0.36391866
10:25:42:212;-0.36391866;9.921572;0.36391866
10:25:42:212;-0.36391866;9.921572;0.36391866
10:25:42:212;-0.36391866;9.921572;0.36391866
10:25:42:212;-0.36391866;9.921572;0.36391866
10:25:42:212;-0.36391866;9.921572;0.36391866
10:25:42:212;-0.36391866;9.921572;0.36391866
10:25:42:212;-0.36391866;9.921572;0.36391866
10:25:42:212;-0.36391866;9.921572;0.36391866
10:25:42:212;-0.36391866;9.921572;0.36391866
10:25:42:212;-0.36391866;9.921572;0.36391866
10:25:42:212;-0.36391866;9.921572;0.36391866
10:25:42:212;-0.36391866;9.921572;0.36391866
10:25:42:328;-0.34476504;10.247183;-0.19153613
10:25:42:328;-0.34476504;10.247183;-0.19153613
10:25:42:328;-0.34476504;10.247183;-0.19153613
10:25:42:328;-0.34476504;10.247183;-0.19153613
10:25:42:328;-0.34476504;10.247183;-0.19153613
10:25:42:328;-0.34476504;10.247183;-0.19153613
10:25:42:328;-0.34476504;10.247183;-0.19153613
10:25:42:328;-0.34476504;10.247183;-0.19153613
10:25:42:328;-0.34476504;10.247183;-0.19153613
10:25:42:328;-0.34476504;10.247183;-0.19153613
10:25:42:328;-0.34476504;10.247183;-0.19153613
10:25:42:328;-0.34476504;10.247183;-0.19153613
10:25:42:328;-0.34476504;10.247183;-0.19153613
10:25:42:328;-0.34476504;10.247183;-0.19153613
10:25:42:436;-0.45968673;10.01734;0.47884035
10:25:42:436;-0.45968673;10.01734;0.47884035
10:25:42:436;-0.45968673;10.01734;0.47884035
10:25:42:436;-0.45968673;10.01734;0.47884035
10:25:42:436;-0.45968673;10.01734;0.47884035
10:25:42:436;-0.45968673;10.01734;0.47884035
10:25:42:436;-0.45968673;10.01734;0.47884035
10:25:42:436;-0.45968673;10.01734;0.47884035
10:25:42:436;-0.45968673;10.01734;0.47884035
10:25:42:436;-0.45968673;10.01734;0.47884035
10:25:42:436;-0.45968673;10.01734;0.47884035
10:25:42:436;-0.45968673;10.01734;0.47884035
10:25:42:436;-0.45968673;10.01734;0.47884035
10:25:42:436;-0.45968673;10.01734;0.47884035
10:25:42:436;-0.45968673;10.01734;0.47884035
10:25:42:547;-0.4213795;10.228029;0.47884035
10:25:42:547;-0.4213795;10.228029;0.47884035
10:25:42:547;-0.4213795;10.228029;0.47884035
10:25:42:547;-0.4213795;10.228029;0.47884035
10:25:42:547;-0.4213795;10.228029;0.47884035
10:25:42:547;-0.4213795;10.228029;0.47884035
10:25:42:547;-0.4213795;10.228029;0.47884035
10:25:42:547;-0.4213795;10.228029;0.47884035
10:25:42:547;-0.4213795;10.228029;0.47884035
10:25:42:547;-0.4213795;10.228029;0.47884035
10:25:42:547;-0.4213795;10.228029;0.47884035
10:25:42:547;-0.4213795;10.228029;0.47884035
10:25:42:547;-0.4213795;10.228029;0.47884035
10:25:42:547;-0.4213795;10.228029;0.47884035
10:25:42:547;-0.4213795;10.228029;0.47884035
10:25:42:669;-0.19153613;10.113108;0.7278373
10:25:42:669;-0.19153613;10.113108;0.7278373
10:25:42:669;-0.19153613;10.113108;0.7278373
10:25:42:669;-0.19153613;10.113108;0.7278373
10:25:42:669;-0.19153613;10.113108;0.7278373
10:25:42:669;-0.19153613;10.113108;0.7278373
10:25:42:669;-0.19153613;10.113108;0.7278373
10:25:42:669;-0.19153613;10.113108;0.7278373
10:25:42:669;-0.19153613;10.113108;0.7278373
10:25:42:669;-0.19153613;10.113108;0.7278373
10:25:42:669;-0.19153613;10.113108;0.7278373
10:25:42:669;-0.19153613;10.113108;0.7278373
10:25:42:669;-0.19153613;10.113108;0.7278373
10:25:42:669;-0.19153613;10.113108;0.7278373
10:25:42:669;-0.19153613;10.113108;0.7278373
10:25:42:784;-0.51714754;9.883265;0.7086837
10:25:42:784;-0.51714754;9.883265;0.7086837
10:25:42:784;-0.51714754;9.883265;0.7086837
10:25:42:784;-0.51714754;9.883265;0.7086837
10:25:42:784;-0.51714754;9.883265;0.7086837
10:25:42:784;-0.51714754;9.883265;0.7086837
10:25:42:784;-0.51714754;9.883265;0.7086837
10:25:42:784;-0.51714754;9.883265;0.7086837
10:25:42:784;-0.51714754;9.883265;0.7086837
10:25:42:784;-0.51714754;9.883265;0.7086837
10:25:42:784;-0.51714754;9.883265;0.7086837
10:25:42:784;-0.51714754;9.883265;0.7086837
10:25:42:784;-0.51714754;9.883265;0.7086837
10:25:42:889;-0.17238252;9.672575;0.7469909
10:25:42:889;-0.17238252;9.672575;0.7469909
10:25:42:889;-0.17238252;9.672575;0.7469909
10:25:42:889;-0.17238252;9.672575;0.7469909
10:25:42:889;-0.17238252;9.672575;0.7469909
10:25:42:889;-0.17238252;9.672575;0.7469909
10:25:42:889;-0.17238252;9.672575;0.7469909
10:25:42:889;-0.17238252;9.672575;0.7469909
10:25:42:889;-0.17238252;9.672575;0.7469909
10:25:42:889;-0.17238252;9.672575;0.7469909
10:25:42:889;-0.17238252;9.672575;0.7469909
10:25:42:889;-0.17238252;9.672575;0.7469909
10:25:42:889;-0.17238252;9.672575;0.7469909
10:25:42:889;-0.17238252;9.672575;0.7469909
10:25:42:997;-0.30645782;10.28549;0.45968673
10:25:42:997;-0.30645782;10.28549;0.45968673
10:25:42:997;-0.30645782;10.28549;0.45968673
10:25:42:997;-0.30645782;10.28549;0.45968673
10:25:42:997;-0.30645782;10.28549;0.45968673
10:25:42:997;-0.30645782;10.28549;0.45968673
10:25:42:997;-0.30645782;10.28549;0.45968673
10:25:42:997;-0.30645782;10.28549;0.45968673
10:25:42:997;-0.30645782;10.28549;0.45968673
10:25:42:997;-0.30645782;10.28549;0.45968673
10:25:42:997;-0.30645782;10.28549;0.45968673
10:25:42:997;-0.30645782;10.28549;0.45968673
10:25:42:997;-0.30645782;10.28549;0.45968673
10:25:42:997;-0.30645782;10.28549;0.45968673
10:25:43:105;-0.038307227;9.3661175;1.1683705
10:25:43:105;-0.038307227;9.3661175;1.1683705
10:25:43:105;-0.038307227;9.3661175;1.1683705
10:25:43:105;-0.038307227;9.3661175;1.1683705
10:25:43:105;-0.038307227;9.3661175;1.1683705
10:25:43:105;-0.038307227;9.3661175;1.1683705
10:25:43:105;-0.038307227;9.3661175;1.1683705
10:25:43:105;-0.038307227;9.3661175;1.1683705
10:25:43:105;-0.038307227;9.3661175;1.1683705
10:25:43:105;-0.038307227;9.3661175;1.1683705
10:25:43:105;-0.038307227;9.3661175;1.1683705
10:25:43:105;-0.038307227;9.3661175;1.1683705
10:25:43:105;-0.038307227;9.3661175;1.1683705
10:25:43:105;-0.038307227;9.3661175;1.1683705
10:25:43:218;-0.34476504;10.208876;1.091756
10:25:43:218;-0.34476504;10.208876;1.091756
10:25:43:218;-0.34476504;10.208876;1.091756
10:25:43:218;-0.34476504;10.208876;1.091756
10:25:43:218;-0.34476504;10.208876;1.091756
10:25:43:218;-0.34476504;10.208876;1.091756
10:25:43:218;-0.34476504;10.208876;1.091756
10:25:43:218;-0.34476504;10.208876;1.091756
10:25:43:218;-0.34476504;10.208876;1.091756
10:25:43:218;-0.34476504;10.208876;1.091756
10:25:43:218;-0.34476504;10.208876;1.091756
10:25:43:218;-0.34476504;10.208876;1.091756
10:25:43:218;-0.34476504;10.208876;1.091756
10:25:43:218;-0.34476504;10.208876;1.091756
10:25:43:321;-1.0726024;10.70687;1.5514427
10:25:43:321;-1.0726024;10.70687;1.5514427
10:25:43:321;-1.0726024;10.70687;1.5514427
10:25:43:321;-1.0726024;10.70687;1.5514427
10:25:43:321;-1.0726024;10.70687;1.5514427
10:25:43:321;-1.0726024;10.70687;1.5514427
10:25:43:321;-1.0726024;10.70687;1.5514427
10:25:43:321;-1.0726024;10.70687;1.5514427
10:25:43:321;-1.0726024;10.70687;1.5514427
10:25:43:321;-1.0726024;10.70687;1.5514427
10:25:43:321;-1.0726024;10.70687;1.5514427
10:25:43:321;-1.0726024;10.70687;1.5514427
10:25:43:321;-1.0726024;10.70687;1.5514427
10:25:43:424;-0.45968673;9.80665;1.340753
10:25:43:424;-0.45968673;9.80665;1.340753
10:25:43:424;-0.45968673;9.80665;1.340753
10:25:43:424;-0.45968673;9.80665;1.340753
10:25:43:424;-0.45968673;9.80665;1.340753
10:25:43:424;-0.45968673;9.80665;1.340753
10:25:43:424;-0.45968673;9.80665;1.340753
10:25:43:424;-0.45968673;9.80665;1.340753
10:25:43:424;-0.45968673;9.80665;1.340753
10:25:43:424;-0.45968673;9.80665;1.340753
10:25:43:424;-0.45968673;9.80665;1.340753
10:25:43:424;-0.45968673;9.80665;1.340753
10:25:43:424;-0.45968673;9.80665;1.340753
10:25:43:424;-0.45968673;9.80665;1.340753
10:25:43:424;-0.45968673;9.80665;1.340753
10:25:43:424;-0.45968673;9.80665;1.340753
10:25:43:552;-0.47884035;9.500193;1.3024458
10:25:43:552;-0.47884035;9.500193;1.3024458
10:25:43:552;-0.47884035;9.500193;1.3024458
10:25:43:552;-0.47884035;9.500193;1.3024458
10:25:43:552;-0.47884035;9.500193;1.3024458
10:25:43:552;-0.47884035;9.500193;1.3024458
10:25:43:552;-0.47884035;9.500193;1.3024458
10:25:43:552;-0.47884035;9.500193;1.3024458
10:25:43:552;-0.47884035;9.500193;1.3024458
10:25:43:552;-0.47884035;9.500193;1.3024458
10:25:43:552;-0.47884035;9.500193;1.3024458
10:25:43:552;-0.47884035;9.500193;1.3024458
10:25:43:552;-0.47884035;9.500193;1.3024458
10:25:43:552;-0.47884035;9.500193;1.3024458
10:25:43:660;0.11492168;9.557653;1.091756
10:25:43:660;0.11492168;9.557653;1.091756
10:25:43:660;0.11492168;9.557653;1.091756
10:25:43:660;0.11492168;9.557653;1.091756
10:25:43:660;0.11492168;9.557653;1.091756
10:25:43:660;0.11492168;9.557653;1.091756
10:25:43:660;0.11492168;9.557653;1.091756
10:25:43:660;0.11492168;9.557653;1.091756
10:25:43:660;0.11492168;9.557653;1.091756
10:25:43:660;0.11492168;9.557653;1.091756
10:25:43:660;0.11492168;9.557653;1.091756
10:25:43:660;0.11492168;9.557653;1.091756
10:25:43:660;0.11492168;9.557653;1.091756
10:25:43:660;0.11492168;9.557653;1.091756
10:25:43:660;0.11492168;9.557653;1.091756
10:25:43:776;-0.4213795;9.902418;1.340753
10:25:43:776;-0.4213795;9.902418;1.340753
10:25:43:776;-0.4213795;9.902418;1.340753
10:25:43:776;-0.4213795;9.902418;1.340753
10:25:43:776;-0.4213795;9.902418;1.340753
10:25:43:776;-0.4213795;9.902418;1.340753
10:25:43:776;-0.4213795;9.902418;1.340753
10:25:43:776;-0.4213795;9.902418;1.340753
10:25:43:776;-0.4213795;9.902418;1.340753
10:25:43:776;-0.4213795;9.902418;1.340753
10:25:43:776;-0.4213795;9.902418;1.340753
10:25:43:776;-0.4213795;9.902418;1.340753
10:25:43:776;-0.4213795;9.902418;1.340753
10:25:43:879;-0.9768343;10.726024;1.1492168
10:25:43:879;-0.9768343;10.726024;1.1492168
10:25:43:879;-0.9768343;10.726024;1.1492168
10:25:43:879;-0.9768343;10.726024;1.1492168
10:25:43:879;-0.9768343;10.726024;1.1492168
10:25:43:879;-0.9768343;10.726024;1.1492168
10:25:43:879;-0.9768343;10.726024;1.1492168
10:25:43:879;-0.9768343;10.726024;1.1492168
10:25:43:879;-0.9768343;10.726024;1.1492168
10:25:43:879;-0.9768343;10.726024;1.1492168
10:25:43:879;-0.9768343;10.726024;1.1492168
10:25:43:879;-0.9768343;10.726024;1.1492168
10:25:43:879;-0.9768343;10.726024;1.1492168
10:25:43:879;-0.9768343;10.726024;1.1492168
10:25:43:879;-0.9768343;10.726024;1.1492168
10:25:43:999;-0.6512229;9.998186;1.1875241
10:25:43:999;-0.6512229;9.998186;1.1875241
10:25:43:999;-0.6512229;9.998186;1.1875241
10:25:43:999;-0.6512229;9.998186;1.1875241
10:25:43:999;-0.6512229;9.998186;1.1875241
10:25:43:999;-0.6512229;9.998186;1.1875241
10:25:43:999;-0.6512229;9.998186;1.1875241
10:25:43:999;-0.6512229;9.998186;1.1875241
10:25:43:999;-0.6512229;9.998186;1.1875241
10:25:43:999;-0.6512229;9.998186;1.1875241
10:25:43:999;-0.6512229;9.998186;1.1875241
10:25:43:999;-0.6512229;9.998186;1.1875241
10:25:43:999;-0.6512229;9.998186;1.1875241
10:25:43:999;-0.6512229;9.998186;1.1875241
10:25:43:999;-0.6512229;9.998186;1.1875241
10:25:44:117;-0.21068975;9.902418;1.340753
10:25:44:117;-0.21068975;9.902418;1.340753
10:25:44:117;-0.21068975;9.902418;1.340753
10:25:44:117;-0.21068975;9.902418;1.340753
10:25:44:117;-0.21068975;9.902418;1.340753
10:25:44:117;-0.21068975;9.902418;1.340753
10:25:44:117;-0.21068975;9.902418;1.340753
10:25:44:117;-0.21068975;9.902418;1.340753
10:25:44:117;-0.21068975;9.902418;1.340753
10:25:44:117;-0.21068975;9.902418;1.340753
10:25:44:117;-0.21068975;9.902418;1.340753
10:25:44:117;-0.21068975;9.902418;1.340753
10:25:44:117;-0.21068975;9.902418;1.340753
10:25:44:117;-0.21068975;9.902418;1.340753
10:25:44:117;-0.21068975;9.902418;1.340753
10:25:44:117;-0.21068975;9.902418;1.340753
10:25:44:237;-0.05746084;9.691729;1.2449849
10:25:44:237;-0.05746084;9.691729;1.2449849
10:25:44:237;-0.05746084;9.691729;1.2449849
10:25:44:237;-0.05746084;9.691729;1.2449849
10:25:44:237;-0.05746084;9.691729;1.2449849
10:25:44:237;-0.05746084;9.691729;1.2449849
10:25:44:237;-0.05746084;9.691729;1.2449849
10:25:44:237;-0.05746084;9.691729;1.2449849
10:25:44:237;-0.05746084;9.691729;1.2449849
10:25:44:237;-0.05746084;9.691729;1.2449849
10:25:44:237;-0.05746084;9.691729;1.2449849
10:25:44:237;-0.05746084;9.691729;1.2449849
10:25:44:237;-0.05746084;9.691729;1.2449849
10:25:44:237;-0.05746084;9.691729;1.2449849
10:25:44:237;-0.05746084;9.691729;1.2449849
10:25:44:354;-0.38307226;10.170568;1.1492168
10:25:44:354;-0.38307226;10.170568;1.1492168
10:25:44:354;-0.38307226;10.170568;1.1492168
10:25:44:354;-0.38307226;10.170568;1.1492168
10:25:44:354;-0.38307226;10.170568;1.1492168
10:25:44:354;-0.38307226;10.170568;1.1492168
10:25:44:354;-0.38307226;10.170568;1.1492168
10:25:44:354;-0.38307226;10.170568;1.1492168
10:25:44:354;-0.38307226;10.170568;1.1492168
10:25:44:354;-0.38307226;10.170568;1.1492168
10:25:44:354;-0.38307226;10.170568;1.1492168
10:25:44:354;-0.38307226;10.170568;1.1492168
10:25:44:354;-0.38307226;10.170568;1.1492168
10:25:44:354;-0.38307226;10.170568;1.1492168
10:25:44:462;-0.7086837;10.113108;1.283292
10:25:44:462;-0.7086837;10.113108;1.283292
10:25:44:462;-0.7086837;10.113108;1.283292
10:25:44:462;-0.7086837;10.113108;1.283292
10:25:44:462;-0.7086837;10.113108;1.283292
10:25:44:462;-0.7086837;10.113108;1.283292
10:25:44:462;-0.7086837;10.113108;1.283292
10:25:44:462;-0.7086837;10.113108;1.283292
10:25:44:462;-0.7086837;10.113108;1.283292
10:25:44:462;-0.7086837;10.113108;1.283292
10:25:44:462;-0.7086837;10.113108;1.283292
10:25:44:462;-0.7086837;10.113108;1.283292
10:25:44:462;-0.7086837;10.113108;1.283292
10:25:44:462;-0.7086837;10.113108;1.283292
10:25:44:462;-0.7086837;10.113108;1.283292
10:25:44:462;-0.7086837;10.113108;1.283292
10:25:44:588;-0.5554548;9.998186;0.5554548
10:25:44:588;-0.5554548;9.998186;0.5554548
10:25:44:588;-0.5554548;9.998186;0.5554548
10:25:44:588;-0.5554548;9.998186;0.5554548
10:25:44:588;-0.5554548;9.998186;0.5554548
10:25:44:588;-0.5554548;9.998186;0.5554548
10:25:44:588;-0.5554548;9.998186;0.5554548
10:25:44:588;-0.5554548;9.998186;0.5554548
10:25:44:588;-0.5554548;9.998186;0.5554548
10:25:44:588;-0.5554548;9.998186;0.5554548
10:25:44:588;-0.5554548;9.998186;0.5554548
10:25:44:588;-0.5554548;9.998186;0.5554548
10:25:44:588;-0.5554548;9.998186;0.5554548
10:25:44:588;-0.5554548;9.998186;0.5554548
10:25:44:588;-0.5554548;9.998186;0.5554548
10:25:44:706;-0.32561144;9.9790325;0.5363012
10:25:44:706;-0.32561144;9.9790325;0.5363012
10:25:44:706;-0.32561144;9.9790325;0.5363012
10:25:44:706;-0.32561144;9.9790325;0.5363012
10:25:44:706;-0.32561144;9.9790325;0.5363012
10:25:44:706;-0.32561144;9.9790325;0.5363012
10:25:44:706;-0.32561144;9.9790325;0.5363012
10:25:44:706;-0.32561144;9.9790325;0.5363012
10:25:44:706;-0.32561144;9.9790325;0.5363012
10:25:44:706;-0.32561144;9.9790325;0.5363012
10:25:44:706;-0.32561144;9.9790325;0.5363012
10:25:44:706;-0.32561144;9.9790325;0.5363012
10:25:44:706;-0.32561144;9.9790325;0.5363012
10:25:44:706;-0.32561144;9.9790325;0.5363012
10:25:44:706;-0.32561144;9.9790325;0.5363012
10:25:44:822;-0.24899697;9.80665;0.7661445
10:25:44:822;-0.24899697;9.80665;0.7661445
10:25:44:822;-0.24899697;9.80665;0.7661445
10:25:44:822;-0.24899697;9.80665;0.7661445
10:25:44:822;-0.24899697;9.80665;0.7661445
10:25:44:822;-0.24899697;9.80665;0.7661445
10:25:44:822;-0.24899697;9.80665;0.7661445
10:25:44:822;-0.24899697;9.80665;0.7661445
10:25:44:822;-0.24899697;9.80665;0.7661445
10:25:44:822;-0.24899697;9.80665;0.7661445
10:25:44:822;-0.24899697;9.80665;0.7661445
10:25:44:822;-0.24899697;9.80665;0.7661445
10:25:44:822;-0.24899697;9.80665;0.7661445
10:25:44:822;-0.24899697;9.80665;0.7661445
10:25:44:822;-0.24899697;9.80665;0.7661445
10:25:44:940;-0.34476504;9.9790325;0.80445176
10:25:44:940;-0.34476504;9.9790325;0.80445176
10:25:44:940;-0.34476504;9.9790325;0.80445176
10:25:44:940;-0.34476504;9.9790325;0.80445176
10:25:44:940;-0.34476504;9.9790325;0.80445176
10:25:44:940;-0.34476504;9.9790325;0.80445176
10:25:44:940;-0.34476504;9.9790325;0.80445176
10:25:44:940;-0.34476504;9.9790325;0.80445176
10:25:44:940;-0.34476504;9.9790325;0.80445176
10:25:44:940;-0.34476504;9.9790325;0.80445176
10:25:44:940;-0.34476504;9.9790325;0.80445176
10:25:44:940;-0.34476504;9.9790325;0.80445176
10:25:44:940;-0.34476504;9.9790325;0.80445176
10:25:44:940;-0.34476504;9.9790325;0.80445176
10:25:45:050;-0.36391866;10.036493;0.6895301
10:25:45:050;-0.36391866;10.036493;0.6895301
10:25:45:050;-0.36391866;10.036493;0.6895301
10:25:45:050;-0.36391866;10.036493;0.6895301
10:25:45:050;-0.36391866;10.036493;0.6895301
10:25:45:050;-0.36391866;10.036493;0.6895301
10:25:45:050;-0.36391866;10.036493;0.6895301
10:25:45:050;-0.36391866;10.036493;0.6895301
10:25:45:050;-0.36391866;10.036493;0.6895301
10:25:45:050;-0.36391866;10.036493;0.6895301
10:25:45:050;-0.36391866;10.036493;0.6895301
10:25:45:050;-0.36391866;10.036493;0.6895301
10:25:45:050;-0.36391866;10.036493;0.6895301
10:25:45:050;-0.36391866;10.036493;0.6895301
10:25:45:050;-0.36391866;10.036493;0.6895301
10:25:45:169;-0.4213795;9.998186;0.5746084
10:25:45:169;-0.4213795;9.998186;0.5746084
10:25:45:169;-0.4213795;9.998186;0.5746084
10:25:45:169;-0.4213795;9.998186;0.5746084
10:25:45:169;-0.4213795;9.998186;0.5746084
10:25:45:169;-0.4213795;9.998186;0.5746084
10:25:45:169;-0.4213795;9.998186;0.5746084
10:25:45:169;-0.4213795;9.998186;0.5746084
10:25:45:169;-0.4213795;9.998186;0.5746084
10:25:45:169;-0.4213795;9.998186;0.5746084
10:25:45:169;-0.4213795;9.998186;0.5746084
10:25:45:169;-0.4213795;9.998186;0.5746084
10:25:45:169;-0.4213795;9.998186;0.5746084
10:25:45:169;-0.4213795;9.998186;0.5746084
10:25:45:281;-0.40222588;9.864111;0.6703765
10:25:45:281;-0.40222588;9.864111;0.6703765
10:25:45:281;-0.40222588;9.864111;0.6703765
10:25:45:281;-0.40222588;9.864111;0.6703765
10:25:45:281;-0.40222588;9.864111;0.6703765
10:25:45:281;-0.40222588;9.864111;0.6703765
10:25:45:281;-0.40222588;9.864111;0.6703765
10:25:45:281;-0.40222588;9.864111;0.6703765
10:25:45:281;-0.40222588;9.864111;0.6703765
10:25:45:281;-0.40222588;9.864111;0.6703765
10:25:45:281;-0.40222588;9.864111;0.6703765
10:25:45:281;-0.40222588;9.864111;0.6703765
10:25:45:281;-0.40222588;9.864111;0.6703765
10:25:45:281;-0.40222588;9.864111;0.6703765
10:25:45:383;-0.34476504;10.036493;0.7086837
10:25:45:383;-0.34476504;10.036493;0.7086837
10:25:45:383;-0.34476504;10.036493;0.7086837
10:25:45:383;-0.34476504;10.036493;0.7086837
10:25:45:383;-0.34476504;10.036493;0.7086837
10:25:45:383;-0.34476504;10.036493;0.7086837
10:25:45:383;-0.34476504;10.036493;0.7086837
10:25:45:383;-0.34476504;10.036493;0.7086837
10:25:45:383;-0.34476504;10.036493;0.7086837
10:25:45:383;-0.34476504;10.036493;0.7086837
10:25:45:383;-0.34476504;10.036493;0.7086837
10:25:45:383;-0.34476504;10.036493;0.7086837
10:25:45:484;-0.49799395;9.9790325;0.6512229
10:25:45:484;-0.49799395;9.9790325;0.6512229
10:25:45:484;-0.49799395;9.9790325;0.6512229
10:25:45:484;-0.49799395;9.9790325;0.6512229
10:25:45:484;-0.49799395;9.9790325;0.6512229
10:25:45:484;-0.49799395;9.9790325;0.6512229
10:25:45:484;-0.49799395;9.9790325;0.6512229
10:25:45:484;-0.49799395;9.9790325;0.6512229
10:25:45:484;-0.49799395;9.9790325;0.6512229
10:25:45:484;-0.49799395;9.9790325;0.6512229
10:25:45:484;-0.49799395;9.9790325;0.6512229
10:25:45:484;-0.49799395;9.9790325;0.6512229
10:25:45:484;-0.49799395;9.9790325;0.6512229
10:25:45:484;-0.49799395;9.9790325;0.6512229
10:25:45:484;-0.49799395;9.9790325;0.6512229
10:25:45:601;-0.32561144;9.864111;0.7278373
10:25:45:601;-0.32561144;9.864111;0.7278373
10:25:45:601;-0.32561144;9.864111;0.7278373
10:25:45:601;-0.32561144;9.864111;0.7278373
10:25:45:601;-0.32561144;9.864111;0.7278373
10:25:45:601;-0.32561144;9.864111;0.7278373
10:25:45:601;-0.32561144;9.864111;0.7278373
10:25:45:601;-0.32561144;9.864111;0.7278373
10:25:45:601;-0.32561144;9.864111;0.7278373
10:25:45:601;-0.32561144;9.864111;0.7278373
10:25:45:601;-0.32561144;9.864111;0.7278373
10:25:45:601;-0.32561144;9.864111;0.7278373
10:25:45:601;-0.32561144;9.864111;0.7278373
10:25:45:601;-0.32561144;9.864111;0.7278373
10:25:45:601;-0.32561144;9.864111;0.7278373
10:25:45:601;-0.32561144;9.864111;0.7278373
10:25:45:720;-0.47884035;9.576807;0.842759
10:25:45:720;-0.47884035;9.576807;0.842759
10:25:45:720;-0.47884035;9.576807;0.842759
10:25:45:720;-0.47884035;9.576807;0.842759
10:25:45:720;-0.47884035;9.576807;0.842759
10:25:45:720;-0.47884035;9.576807;0.842759
10:25:45:720;-0.47884035;9.576807;0.842759
10:25:45:720;-0.47884035;9.576807;0.842759
10:25:45:720;-0.47884035;9.576807;0.842759
10:25:45:720;-0.47884035;9.576807;0.842759
10:25:45:720;-0.47884035;9.576807;0.842759
10:25:45:720;-0.47884035;9.576807;0.842759
10:25:45:720;-0.47884035;9.576807;0.842759
10:25:45:720;-0.47884035;9.576807;0.842759
10:25:45:720;-0.47884035;9.576807;0.842759
10:25:45:838;-0.38307226;10.093954;0.49799395
10:25:45:838;-0.38307226;10.093954;0.49799395
10:25:45:838;-0.38307226;10.093954;0.49799395
10:25:45:838;-0.38307226;10.093954;0.49799395
10:25:45:838;-0.38307226;10.093954;0.49799395
10:25:45:838;-0.38307226;10.093954;0.49799395
10:25:45:838;-0.38307226;10.093954;0.49799395
10:25:45:838;-0.38307226;10.093954;0.49799395
10:25:45:838;-0.38307226;10.093954;0.49799395
10:25:45:838;-0.38307226;10.093954;0.49799395
10:25:45:838;-0.38307226;10.093954;0.49799395
10:25:45:838;-0.38307226;10.093954;0.49799395
10:25:45:838;-0.38307226;10.093954;0.49799395
10:25:45:838;-0.38307226;10.093954;0.49799395
10:25:45:838;-0.38307226;10.093954;0.49799395
10:25:45:959;-0.4405331;9.998186;0.4213795
10:25:45:959;-0.4405331;9.998186;0.4213795
10:25:45:959;-0.4405331;9.998186;0.4213795
10:25:45:959;-0.4405331;9.998186;0.4213795
10:25:45:959;-0.4405331;9.998186;0.4213795
10:25:45:959;-0.4405331;9.998186;0.4213795
10:25:45:959;-0.4405331;9.998186;0.4213795
10:25:45:959;-0.4405331;9.998186;0.4213795
10:25:45:959;-0.4405331;9.998186;0.4213795
10:25:45:959;-0.4405331;9.998186;0.4213795
10:25:45:959;-0.4405331;9.998186;0.4213795
10:25:45:959;-0.4405331;9.998186;0.4213795
10:25:45:959;-0.4405331;9.998186;0.4213795
10:25:45:959;-0.4405331;9.998186;0.4213795
10:25:46:066;-0.49799395;10.093954;0.36391866
10:25:46:066;-0.49799395;10.093954;0.36391866
10:25:46:066;-0.49799395;10.093954;0.36391866
10:25:46:066;-0.49799395;10.093954;0.36391866
10:25:46:066;-0.49799395;10.093954;0.36391866
10:25:46:066;-0.49799395;10.093954;0.36391866
10:25:46:066;-0.49799395;10.093954;0.36391866
10:25:46:066;-0.49799395;10.093954;0.36391866
10:25:46:066;-0.49799395;10.093954;0.36391866
10:25:46:066;-0.49799395;10.093954;0.36391866
10:25:46:066;-0.49799395;10.093954;0.36391866
10:25:46:066;-0.49799395;10.093954;0.36391866
10:25:46:066;-0.49799395;10.093954;0.36391866
10:25:46:167;-0.32561144;9.959879;0.51714754
10:25:46:167;-0.32561144;9.959879;0.51714754
10:25:46:167;-0.32561144;9.959879;0.51714754
10:25:46:167;-0.32561144;9.959879;0.51714754
10:25:46:167;-0.32561144;9.959879;0.51714754
10:25:46:167;-0.32561144;9.959879;0.51714754
10:25:46:167;-0.32561144;9.959879;0.51714754
10:25:46:167;-0.32561144;9.959879;0.51714754
10:25:46:167;-0.32561144;9.959879;0.51714754
10:25:46:167;-0.32561144;9.959879;0.51714754
10:25:46:167;-0.32561144;9.959879;0.51714754
10:25:46:167;-0.32561144;9.959879;0.51714754
10:25:46:167;-0.32561144;9.959879;0.51714754
10:25:46:269;-0.45968673;9.902418;0.5363012
10:25:46:269;-0.45968673;9.902418;0.5363012
10:25:46:269;-0.45968673;9.902418;0.5363012
10:25:46:269;-0.45968673;9.902418;0.5363012
10:25:46:269;-0.45968673;9.902418;0.5363012
10:25:46:269;-0.45968673;9.902418;0.5363012
10:25:46:269;-0.45968673;9.902418;0.5363012
10:25:46:269;-0.45968673;9.902418;0.5363012
10:25:46:269;-0.45968673;9.902418;0.5363012
10:25:46:269;-0.45968673;9.902418;0.5363012
10:25:46:269;-0.45968673;9.902418;0.5363012
10:25:46:269;-0.45968673;9.902418;0.5363012
10:25:46:269;-0.45968673;9.902418;0.5363012
10:25:46:269;-0.45968673;9.902418;0.5363012
10:25:46:269;-0.45968673;9.902418;0.5363012
10:25:46:385;-0.47884035;10.247183;0.32561144
10:25:46:385;-0.47884035;10.247183;0.32561144
10:25:46:385;-0.47884035;10.247183;0.32561144
10:25:46:385;-0.47884035;10.247183;0.32561144
10:25:46:385;-0.47884035;10.247183;0.32561144
10:25:46:385;-0.47884035;10.247183;0.32561144
10:25:46:385;-0.47884035;10.247183;0.32561144
10:25:46:385;-0.47884035;10.247183;0.32561144
10:25:46:385;-0.47884035;10.247183;0.32561144
10:25:46:385;-0.47884035;10.247183;0.32561144
10:25:46:385;-0.47884035;10.247183;0.32561144
10:25:46:385;-0.47884035;10.247183;0.32561144
10:25:46:385;-0.47884035;10.247183;0.32561144
10:25:46:385;-0.47884035;10.247183;0.32561144
10:25:46:385;-0.47884035;10.247183;0.32561144
10:25:46:504;-0.32561144;9.864111;0.5554548
10:25:46:504;-0.32561144;9.864111;0.5554548
10:25:46:504;-0.32561144;9.864111;0.5554548
10:25:46:504;-0.32561144;9.864111;0.5554548
10:25:46:504;-0.32561144;9.864111;0.5554548
10:25:46:504;-0.32561144;9.864111;0.5554548
10:25:46:504;-0.32561144;9.864111;0.5554548
10:25:46:504;-0.32561144;9.864111;0.5554548
10:25:46:504;-0.32561144;9.864111;0.5554548
10:25:46:504;-0.32561144;9.864111;0.5554548
10:25:46:504;-0.32561144;9.864111;0.5554548
10:25:46:504;-0.32561144;9.864111;0.5554548
10:25:46:504;-0.32561144;9.864111;0.5554548
10:25:46:504;-0.32561144;9.864111;0.5554548
10:25:46:504;-0.32561144;9.864111;0.5554548
10:25:46:622;-0.47884035;9.998186;0.6512229
10:25:46:622;-0.47884035;9.998186;0.6512229
10:25:46:622;-0.47884035;9.998186;0.6512229
10:25:46:622;-0.47884035;9.998186;0.6512229
10:25:46:622;-0.47884035;9.998186;0.6512229
10:25:46:622;-0.47884035;9.998186;0.6512229
10:25:46:622;-0.47884035;9.998186;0.6512229
10:25:46:622;-0.47884035;9.998186;0.6512229
10:25:46:622;-0.47884035;9.998186;0.6512229
10:25:46:622;-0.47884035;9.998186;0.6512229
10:25:46:622;-0.47884035;9.998186;0.6512229
10:25:46:622;-0.47884035;9.998186;0.6512229
10:25:46:622;-0.47884035;9.998186;0.6512229
10:25:46:622;-0.47884035;9.998186;0.6512229
10:25:46:622;-0.47884035;9.998186;0.6512229
10:25:46:740;-0.40222588;9.9790325;0.40222588
10:25:46:740;-0.40222588;9.9790325;0.40222588
10:25:46:740;-0.40222588;9.9790325;0.40222588
10:25:46:740;-0.40222588;9.9790325;0.40222588
10:25:46:740;-0.40222588;9.9790325;0.40222588
10:25:46:740;-0.40222588;9.9790325;0.40222588
10:25:46:740;-0.40222588;9.9790325;0.40222588
10:25:46:740;-0.40222588;9.9790325;0.40222588
