Time_Accel;AccelX;AccelY;AccelZ
11:29:18:911;-0.30645782;9.998186;0.19153613
11:29:18:911;-0.30645782;9.998186;0.19153613
11:29:19:016;-0.51714754;10.0748005;0.22984336
11:29:19:016;-0.51714754;10.0748005;0.22984336
11:29:19:016;-0.51714754;10.0748005;0.22984336
11:29:19:016;-0.51714754;10.0748005;0.22984336
11:29:19:016;-0.51714754;10.0748005;0.22984336
11:29:19:016;-0.51714754;10.0748005;0.22984336
11:29:19:016;-0.51714754;10.0748005;0.22984336
11:29:19:016;-0.51714754;10.0748005;0.22984336
11:29:19:016;-0.51714754;10.0748005;0.22984336
11:29:19:016;-0.51714754;10.0748005;0.22984336
11:29:19:016;-0.51714754;10.0748005;0.22984336
11:29:19:016;-0.51714754;10.0748005;0.22984336
11:29:19:016;-0.51714754;10.0748005;0.22984336
11:29:19:016;-0.51714754;10.0748005;0.22984336
11:29:19:016;-0.51714754;10.0748005;0.22984336
11:29:19:016;-0.51714754;10.0748005;0.22984336
11:29:19:016;-0.51714754;10.0748005;0.22984336
11:29:19:016;-0.51714754;10.0748005;0.22984336
11:29:19:164;-0.17238252;10.01734;0.21068975
11:29:19:164;-0.17238252;10.01734;0.21068975
11:29:19:164;-0.17238252;10.01734;0.21068975
11:29:19:164;-0.17238252;10.01734;0.21068975
11:29:19:164;-0.17238252;10.01734;0.21068975
11:29:19:164;-0.17238252;10.01734;0.21068975
11:29:19:164;-0.17238252;10.01734;0.21068975
11:29:19:164;-0.17238252;10.01734;0.21068975
11:29:19:164;-0.17238252;10.01734;0.21068975
11:29:19:164;-0.17238252;10.01734;0.21068975
11:29:19:164;-0.17238252;10.01734;0.21068975
11:29:19:164;-0.17238252;10.01734;0.21068975
11:29:19:164;-0.17238252;10.01734;0.21068975
11:29:19:164;-0.17238252;10.01734;0.21068975
11:29:19:164;-0.17238252;10.01734;0.21068975
11:29:19:281;-0.4213795;10.151415;0.17238252
11:29:19:281;-0.4213795;10.151415;0.17238252
11:29:19:281;-0.4213795;10.151415;0.17238252
11:29:19:281;-0.4213795;10.151415;0.17238252
11:29:19:281;-0.4213795;10.151415;0.17238252
11:29:19:281;-0.4213795;10.151415;0.17238252
11:29:19:281;-0.4213795;10.151415;0.17238252
11:29:19:281;-0.4213795;10.151415;0.17238252
11:29:19:281;-0.4213795;10.151415;0.17238252
11:29:19:281;-0.4213795;10.151415;0.17238252
11:29:19:281;-0.4213795;10.151415;0.17238252
11:29:19:281;-0.4213795;10.151415;0.17238252
11:29:19:281;-0.4213795;10.151415;0.17238252
11:29:19:281;-0.4213795;10.151415;0.17238252
11:29:19:383;-0.22984336;9.902418;0.2873042
11:29:19:383;-0.22984336;9.902418;0.2873042
11:29:19:383;-0.22984336;9.902418;0.2873042
11:29:19:383;-0.22984336;9.902418;0.2873042
11:29:19:383;-0.22984336;9.902418;0.2873042
11:29:19:383;-0.22984336;9.902418;0.2873042
11:29:19:383;-0.22984336;9.902418;0.2873042
11:29:19:383;-0.22984336;9.902418;0.2873042
11:29:19:383;-0.22984336;9.902418;0.2873042
11:29:19:383;-0.22984336;9.902418;0.2873042
11:29:19:383;-0.22984336;9.902418;0.2873042
11:29:19:383;-0.22984336;9.902418;0.2873042
11:29:19:383;-0.22984336;9.902418;0.2873042
11:29:19:383;-0.22984336;9.902418;0.2873042
11:29:19:383;-0.22984336;9.902418;0.2873042
11:29:19:503;-0.2681506;9.998186;0.34476504
11:29:19:503;-0.2681506;9.998186;0.34476504
11:29:19:503;-0.2681506;9.998186;0.34476504
11:29:19:503;-0.2681506;9.998186;0.34476504
11:29:19:503;-0.2681506;9.998186;0.34476504
11:29:19:503;-0.2681506;9.998186;0.34476504
11:29:19:503;-0.2681506;9.998186;0.34476504
11:29:19:503;-0.2681506;9.998186;0.34476504
11:29:19:503;-0.2681506;9.998186;0.34476504
11:29:19:503;-0.2681506;9.998186;0.34476504
11:29:19:503;-0.2681506;9.998186;0.34476504
11:29:19:503;-0.2681506;9.998186;0.34476504
11:29:19:503;-0.2681506;9.998186;0.34476504
11:29:19:503;-0.2681506;9.998186;0.34476504
11:29:19:503;-0.2681506;9.998186;0.34476504
11:29:19:503;-0.2681506;9.998186;0.34476504
11:29:19:630;-0.22984336;10.0748005;0.038307227
11:29:19:630;-0.22984336;10.0748005;0.038307227
11:29:19:630;-0.22984336;10.0748005;0.038307227
11:29:19:630;-0.22984336;10.0748005;0.038307227
11:29:19:630;-0.22984336;10.0748005;0.038307227
11:29:19:630;-0.22984336;10.0748005;0.038307227
11:29:19:630;-0.22984336;10.0748005;0.038307227
11:29:19:630;-0.22984336;10.0748005;0.038307227
11:29:19:630;-0.22984336;10.0748005;0.038307227
11:29:19:630;-0.22984336;10.0748005;0.038307227
11:29:19:630;-0.22984336;10.0748005;0.038307227
11:29:19:630;-0.22984336;10.0748005;0.038307227
11:29:19:630;-0.22984336;10.0748005;0.038307227
11:29:19:630;-0.22984336;10.0748005;0.038307227
11:29:19:630;-0.22984336;10.0748005;0.038307227
11:29:19:747;-0.2873042;10.01734;0.17238252
11:29:19:747;-0.2873042;10.01734;0.17238252
11:29:19:747;-0.2873042;10.01734;0.17238252
11:29:19:747;-0.2873042;10.01734;0.17238252
11:29:19:747;-0.2873042;10.01734;0.17238252
11:29:19:747;-0.2873042;10.01734;0.17238252
11:29:19:747;-0.2873042;10.01734;0.17238252
11:29:19:747;-0.2873042;10.01734;0.17238252
11:29:19:747;-0.2873042;10.01734;0.17238252
11:29:19:747;-0.2873042;10.01734;0.17238252
11:29:19:747;-0.2873042;10.01734;0.17238252
11:29:19:747;-0.2873042;10.01734;0.17238252
11:29:19:747;-0.2873042;10.01734;0.17238252
11:29:19:747;-0.2873042;10.01734;0.17238252
11:29:19:747;-0.2873042;10.01734;0.17238252
11:29:19:747;-0.2873042;10.01734;0.17238252
11:29:19:747;-0.2873042;10.01734;0.17238252
11:29:19:747;-0.2873042;10.01734;0.17238252
11:29:19:883;-0.34476504;9.883265;0.38307226
11:29:19:883;-0.34476504;9.883265;0.38307226
11:29:19:883;-0.34476504;9.883265;0.38307226
11:29:19:883;-0.34476504;9.883265;0.38307226
11:29:19:883;-0.34476504;9.883265;0.38307226
11:29:19:883;-0.34476504;9.883265;0.38307226
11:29:19:883;-0.34476504;9.883265;0.38307226
11:29:19:883;-0.34476504;9.883265;0.38307226
11:29:19:883;-0.34476504;9.883265;0.38307226
11:29:19:883;-0.34476504;9.883265;0.38307226
11:29:19:883;-0.34476504;9.883265;0.38307226
11:29:19:883;-0.34476504;9.883265;0.38307226
11:29:19:883;-0.34476504;9.883265;0.38307226
11:29:19:986;-0.24899697;10.01734;0.11492168
11:29:19:986;-0.24899697;10.01734;0.11492168
11:29:19:986;-0.24899697;10.01734;0.11492168
11:29:19:986;-0.24899697;10.01734;0.11492168
11:29:19:986;-0.24899697;10.01734;0.11492168
11:29:19:986;-0.24899697;10.01734;0.11492168
11:29:19:986;-0.24899697;10.01734;0.11492168
11:29:19:986;-0.24899697;10.01734;0.11492168
11:29:19:986;-0.24899697;10.01734;0.11492168
11:29:19:986;-0.24899697;10.01734;0.11492168
11:29:19:986;-0.24899697;10.01734;0.11492168
11:29:19:986;-0.24899697;10.01734;0.11492168
11:29:19:986;-0.24899697;10.01734;0.11492168
11:29:19:986;-0.24899697;10.01734;0.11492168
11:29:19:986;-0.24899697;10.01734;0.11492168
11:29:19:986;-0.24899697;10.01734;0.11492168
11:29:20:114;-0.30645782;9.864111;0.2681506
11:29:20:114;-0.30645782;9.864111;0.2681506
11:29:20:114;-0.30645782;9.864111;0.2681506
11:29:20:114;-0.30645782;9.864111;0.2681506
11:29:20:114;-0.30645782;9.864111;0.2681506
11:29:20:114;-0.30645782;9.864111;0.2681506
11:29:20:114;-0.30645782;9.864111;0.2681506
11:29:20:114;-0.30645782;9.864111;0.2681506
11:29:20:114;-0.30645782;9.864111;0.2681506
11:29:20:114;-0.30645782;9.864111;0.2681506
11:29:20:114;-0.30645782;9.864111;0.2681506
11:29:20:114;-0.30645782;9.864111;0.2681506
11:29:20:114;-0.30645782;9.864111;0.2681506
11:29:20:114;-0.30645782;9.864111;0.2681506
11:29:20:114;-0.30645782;9.864111;0.2681506
11:29:20:231;-0.36391866;9.864111;0.2873042
11:29:20:231;-0.36391866;9.864111;0.2873042
11:29:20:231;-0.36391866;9.864111;0.2873042
11:29:20:231;-0.36391866;9.864111;0.2873042
11:29:20:231;-0.36391866;9.864111;0.2873042
11:29:20:231;-0.36391866;9.864111;0.2873042
11:29:20:231;-0.36391866;9.864111;0.2873042
11:29:20:231;-0.36391866;9.864111;0.2873042
11:29:20:231;-0.36391866;9.864111;0.2873042
11:29:20:231;-0.36391866;9.864111;0.2873042
11:29:20:231;-0.36391866;9.864111;0.2873042
11:29:20:231;-0.36391866;9.864111;0.2873042
11:29:20:231;-0.36391866;9.864111;0.2873042
11:29:20:231;-0.36391866;9.864111;0.2873042
11:29:20:341;-0.34476504;9.998186;0.17238252
11:29:20:341;-0.34476504;9.998186;0.17238252
11:29:20:341;-0.34476504;9.998186;0.17238252
11:29:20:341;-0.34476504;9.998186;0.17238252
11:29:20:341;-0.34476504;9.998186;0.17238252
11:29:20:341;-0.34476504;9.998186;0.17238252
11:29:20:341;-0.34476504;9.998186;0.17238252
11:29:20:341;-0.34476504;9.998186;0.17238252
11:29:20:341;-0.34476504;9.998186;0.17238252
11:29:20:341;-0.34476504;9.998186;0.17238252
11:29:20:341;-0.34476504;9.998186;0.17238252
11:29:20:341;-0.34476504;9.998186;0.17238252
11:29:20:341;-0.34476504;9.998186;0.17238252
11:29:20:341;-0.34476504;9.998186;0.17238252
11:29:20:341;-0.34476504;9.998186;0.17238252
11:29:20:459;-0.4213795;10.0748005;0.22984336
11:29:20:459;-0.4213795;10.0748005;0.22984336
11:29:20:459;-0.4213795;10.0748005;0.22984336
11:29:20:459;-0.4213795;10.0748005;0.22984336
11:29:20:459;-0.4213795;10.0748005;0.22984336
11:29:20:459;-0.4213795;10.0748005;0.22984336
11:29:20:459;-0.4213795;10.0748005;0.22984336
11:29:20:459;-0.4213795;10.0748005;0.22984336
11:29:20:459;-0.4213795;10.0748005;0.22984336
11:29:20:459;-0.4213795;10.0748005;0.22984336
11:29:20:459;-0.4213795;10.0748005;0.22984336
11:29:20:459;-0.4213795;10.0748005;0.22984336
11:29:20:459;-0.4213795;10.0748005;0.22984336
11:29:20:459;-0.4213795;10.0748005;0.22984336
11:29:20:459;-0.4213795;10.0748005;0.22984336
11:29:20:459;-0.4213795;10.0748005;0.22984336
11:29:20:459;-0.4213795;10.0748005;0.22984336
11:29:20:586;-0.15322891;9.940725;0.15322891
11:29:20:586;-0.15322891;9.940725;0.15322891
11:29:20:586;-0.15322891;9.940725;0.15322891
11:29:20:586;-0.15322891;9.940725;0.15322891
11:29:20:586;-0.15322891;9.940725;0.15322891
11:29:20:586;-0.15322891;9.940725;0.15322891
11:29:20:586;-0.15322891;9.940725;0.15322891
11:29:20:586;-0.15322891;9.940725;0.15322891
11:29:20:586;-0.15322891;9.940725;0.15322891
11:29:20:586;-0.15322891;9.940725;0.15322891
11:29:20:586;-0.15322891;9.940725;0.15322891
11:29:20:586;-0.15322891;9.940725;0.15322891
11:29:20:586;-0.15322891;9.940725;0.15322891
11:29:20:694;-0.30645782;10.055647;0.17238252
11:29:20:694;-0.30645782;10.055647;0.17238252
11:29:20:694;-0.30645782;10.055647;0.17238252
11:29:20:694;-0.30645782;10.055647;0.17238252
11:29:20:694;-0.30645782;10.055647;0.17238252
11:29:20:694;-0.30645782;10.055647;0.17238252
11:29:20:694;-0.30645782;10.055647;0.17238252
11:29:20:694;-0.30645782;10.055647;0.17238252
11:29:20:694;-0.30645782;10.055647;0.17238252
11:29:20:694;-0.30645782;10.055647;0.17238252
11:29:20:694;-0.30645782;10.055647;0.17238252
11:29:20:694;-0.30645782;10.055647;0.17238252
11:29:20:694;-0.30645782;10.055647;0.17238252
11:29:20:694;-0.30645782;10.055647;0.17238252
11:29:20:804;-0.2873042;9.998186;0.19153613
11:29:20:804;-0.2873042;9.998186;0.19153613
11:29:20:804;-0.2873042;9.998186;0.19153613
11:29:20:804;-0.2873042;9.998186;0.19153613
11:29:20:804;-0.2873042;9.998186;0.19153613
11:29:20:804;-0.2873042;9.998186;0.19153613
11:29:20:804;-0.2873042;9.998186;0.19153613
11:29:20:804;-0.2873042;9.998186;0.19153613
11:29:20:804;-0.2873042;9.998186;0.19153613
11:29:20:804;-0.2873042;9.998186;0.19153613
11:29:20:804;-0.2873042;9.998186;0.19153613
11:29:20:804;-0.2873042;9.998186;0.19153613
11:29:20:804;-0.2873042;9.998186;0.19153613
11:29:20:804;-0.2873042;9.998186;0.19153613
11:29:20:804;-0.2873042;9.998186;0.19153613
11:29:20:915;-0.19153613;9.902418;0.1340753
11:29:20:915;-0.19153613;9.902418;0.1340753
11:29:20:915;-0.19153613;9.902418;0.1340753
11:29:20:915;-0.19153613;9.902418;0.1340753
11:29:20:915;-0.19153613;9.902418;0.1340753
11:29:20:915;-0.19153613;9.902418;0.1340753
11:29:20:915;-0.19153613;9.902418;0.1340753
11:29:20:915;-0.19153613;9.902418;0.1340753
11:29:20:915;-0.19153613;9.902418;0.1340753
11:29:20:915;-0.19153613;9.902418;0.1340753
11:29:20:915;-0.19153613;9.902418;0.1340753
11:29:20:915;-0.19153613;9.902418;0.1340753
11:29:20:915;-0.19153613;9.902418;0.1340753
11:29:21:018;-0.45968673;9.9790325;0.34476504
11:29:21:018;-0.45968673;9.9790325;0.34476504
11:29:21:018;-0.45968673;9.9790325;0.34476504
11:29:21:018;-0.45968673;9.9790325;0.34476504
11:29:21:018;-0.45968673;9.9790325;0.34476504
11:29:21:018;-0.45968673;9.9790325;0.34476504
11:29:21:018;-0.45968673;9.9790325;0.34476504
11:29:21:018;-0.45968673;9.9790325;0.34476504
11:29:21:018;-0.45968673;9.9790325;0.34476504
11:29:21:018;-0.45968673;9.9790325;0.34476504
11:29:21:018;-0.45968673;9.9790325;0.34476504
11:29:21:018;-0.45968673;9.9790325;0.34476504
11:29:21:018;-0.45968673;9.9790325;0.34476504
11:29:21:018;-0.45968673;9.9790325;0.34476504
11:29:21:018;-0.45968673;9.9790325;0.34476504
11:29:21:138;-0.36391866;9.902418;0.2873042
11:29:21:138;-0.36391866;9.902418;0.2873042
11:29:21:138;-0.36391866;9.902418;0.2873042
11:29:21:138;-0.36391866;9.902418;0.2873042
11:29:21:138;-0.36391866;9.902418;0.2873042
11:29:21:138;-0.36391866;9.902418;0.2873042
11:29:21:138;-0.36391866;9.902418;0.2873042
11:29:21:138;-0.36391866;9.902418;0.2873042
11:29:21:138;-0.36391866;9.902418;0.2873042
11:29:21:138;-0.36391866;9.902418;0.2873042
11:29:21:138;-0.36391866;9.902418;0.2873042
11:29:21:138;-0.36391866;9.902418;0.2873042
11:29:21:138;-0.36391866;9.902418;0.2873042
11:29:21:138;-0.36391866;9.902418;0.2873042
11:29:21:138;-0.36391866;9.902418;0.2873042
11:29:21:138;-0.36391866;9.902418;0.2873042
11:29:21:258;-0.4213795;9.844957;0.1340753
11:29:21:258;-0.4213795;9.844957;0.1340753
11:29:21:258;-0.4213795;9.844957;0.1340753
11:29:21:258;-0.4213795;9.844957;0.1340753
11:29:21:258;-0.4213795;9.844957;0.1340753
11:29:21:258;-0.4213795;9.844957;0.1340753
11:29:21:258;-0.4213795;9.844957;0.1340753
11:29:21:258;-0.4213795;9.844957;0.1340753
11:29:21:258;-0.4213795;9.844957;0.1340753
11:29:21:258;-0.4213795;9.844957;0.1340753
11:29:21:258;-0.4213795;9.844957;0.1340753
11:29:21:258;-0.4213795;9.844957;0.1340753
11:29:21:258;-0.4213795;9.844957;0.1340753
11:29:21:361;-0.22984336;9.959879;0.05746084
11:29:21:361;-0.22984336;9.959879;0.05746084
11:29:21:361;-0.22984336;9.959879;0.05746084
11:29:21:361;-0.22984336;9.959879;0.05746084
11:29:21:361;-0.22984336;9.959879;0.05746084
11:29:21:361;-0.22984336;9.959879;0.05746084
11:29:21:361;-0.22984336;9.959879;0.05746084
11:29:21:361;-0.22984336;9.959879;0.05746084
11:29:21:361;-0.22984336;9.959879;0.05746084
11:29:21:361;-0.22984336;9.959879;0.05746084
11:29:21:361;-0.22984336;9.959879;0.05746084
11:29:21:361;-0.22984336;9.959879;0.05746084
11:29:21:361;-0.22984336;9.959879;0.05746084
11:29:21:463;-0.2873042;10.036493;0.2873042
11:29:21:463;-0.2873042;10.036493;0.2873042
11:29:21:463;-0.2873042;10.036493;0.2873042
11:29:21:463;-0.2873042;10.036493;0.2873042
11:29:21:463;-0.2873042;10.036493;0.2873042
11:29:21:463;-0.2873042;10.036493;0.2873042
11:29:21:463;-0.2873042;10.036493;0.2873042
11:29:21:463;-0.2873042;10.036493;0.2873042
11:29:21:463;-0.2873042;10.036493;0.2873042
11:29:21:463;-0.2873042;10.036493;0.2873042
11:29:21:463;-0.2873042;10.036493;0.2873042
11:29:21:463;-0.2873042;10.036493;0.2873042
11:29:21:463;-0.2873042;10.036493;0.2873042
11:29:21:463;-0.2873042;10.036493;0.2873042
11:29:21:463;-0.2873042;10.036493;0.2873042
11:29:21:580;-0.30645782;9.844957;0.11492168
11:29:21:580;-0.30645782;9.844957;0.11492168
11:29:21:580;-0.30645782;9.844957;0.11492168
11:29:21:580;-0.30645782;9.844957;0.11492168
11:29:21:580;-0.30645782;9.844957;0.11492168
11:29:21:580;-0.30645782;9.844957;0.11492168
11:29:21:580;-0.30645782;9.844957;0.11492168
11:29:21:580;-0.30645782;9.844957;0.11492168
11:29:21:580;-0.30645782;9.844957;0.11492168
11:29:21:580;-0.30645782;9.844957;0.11492168
11:29:21:580;-0.30645782;9.844957;0.11492168
11:29:21:580;-0.30645782;9.844957;0.11492168
11:29:21:580;-0.30645782;9.844957;0.11492168
11:29:21:580;-0.30645782;9.844957;0.11492168
11:29:21:580;-0.30645782;9.844957;0.11492168
11:29:21:700;-0.2873042;9.959879;0.24899697
11:29:21:700;-0.2873042;9.959879;0.24899697
11:29:21:700;-0.2873042;9.959879;0.24899697
11:29:21:700;-0.2873042;9.959879;0.24899697
11:29:21:700;-0.2873042;9.959879;0.24899697
11:29:21:700;-0.2873042;9.959879;0.24899697
11:29:21:700;-0.2873042;9.959879;0.24899697
11:29:21:700;-0.2873042;9.959879;0.24899697
11:29:21:700;-0.2873042;9.959879;0.24899697
11:29:21:700;-0.2873042;9.959879;0.24899697
11:29:21:700;-0.2873042;9.959879;0.24899697
11:29:21:700;-0.2873042;9.959879;0.24899697
11:29:21:700;-0.2873042;9.959879;0.24899697
11:29:21:700;-0.2873042;9.959879;0.24899697
11:29:21:806;-0.30645782;9.9790325;0.36391866
11:29:21:806;-0.30645782;9.9790325;0.36391866
11:29:21:806;-0.30645782;9.9790325;0.36391866
11:29:21:806;-0.30645782;9.9790325;0.36391866
11:29:21:806;-0.30645782;9.9790325;0.36391866
11:29:21:806;-0.30645782;9.9790325;0.36391866
11:29:21:806;-0.30645782;9.9790325;0.36391866
11:29:21:806;-0.30645782;9.9790325;0.36391866
11:29:21:806;-0.30645782;9.9790325;0.36391866
11:29:21:806;-0.30645782;9.9790325;0.36391866
11:29:21:806;-0.30645782;9.9790325;0.36391866
11:29:21:806;-0.30645782;9.9790325;0.36391866
11:29:21:806;-0.30645782;9.9790325;0.36391866
11:29:21:806;-0.30645782;9.9790325;0.36391866
11:29:21:918;-0.21068975;9.959879;0.24899697
11:29:21:918;-0.21068975;9.959879;0.24899697
11:29:21:918;-0.21068975;9.959879;0.24899697
11:29:21:918;-0.21068975;9.959879;0.24899697
11:29:21:918;-0.21068975;9.959879;0.24899697
11:29:21:918;-0.21068975;9.959879;0.24899697
11:29:21:918;-0.21068975;9.959879;0.24899697
11:29:21:918;-0.21068975;9.959879;0.24899697
11:29:21:918;-0.21068975;9.959879;0.24899697
11:29:21:918;-0.21068975;9.959879;0.24899697
11:29:21:918;-0.21068975;9.959879;0.24899697
11:29:21:918;-0.21068975;9.959879;0.24899697
11:29:21:918;-0.21068975;9.959879;0.24899697
11:29:22:022;-0.36391866;9.940725;0.2873042
11:29:22:022;-0.36391866;9.940725;0.2873042
11:29:22:022;-0.36391866;9.940725;0.2873042
11:29:22:022;-0.36391866;9.940725;0.2873042
11:29:22:022;-0.36391866;9.940725;0.2873042
11:29:22:022;-0.36391866;9.940725;0.2873042
11:29:22:022;-0.36391866;9.940725;0.2873042
11:29:22:022;-0.36391866;9.940725;0.2873042
11:29:22:022;-0.36391866;9.940725;0.2873042
11:29:22:022;-0.36391866;9.940725;0.2873042
11:29:22:022;-0.36391866;9.940725;0.2873042
11:29:22:022;-0.36391866;9.940725;0.2873042
11:29:22:022;-0.36391866;9.940725;0.2873042
11:29:22:022;-0.36391866;9.940725;0.2873042
11:29:22:022;-0.36391866;9.940725;0.2873042
11:29:22:140;-0.45968673;9.921572;0.19153613
11:29:22:140;-0.45968673;9.921572;0.19153613
11:29:22:140;-0.45968673;9.921572;0.19153613
11:29:22:140;-0.45968673;9.921572;0.19153613
11:29:22:140;-0.45968673;9.921572;0.19153613
11:29:22:140;-0.45968673;9.921572;0.19153613
11:29:22:140;-0.45968673;9.921572;0.19153613
11:29:22:140;-0.45968673;9.921572;0.19153613
11:29:22:140;-0.45968673;9.921572;0.19153613
11:29:22:140;-0.45968673;9.921572;0.19153613
11:29:22:140;-0.45968673;9.921572;0.19153613
11:29:22:140;-0.45968673;9.921572;0.19153613
11:29:22:140;-0.45968673;9.921572;0.19153613
11:29:22:241;-0.34476504;10.093954;0.15322891
11:29:22:241;-0.34476504;10.093954;0.15322891
11:29:22:241;-0.34476504;10.093954;0.15322891
11:29:22:241;-0.34476504;10.093954;0.15322891
11:29:22:241;-0.34476504;10.093954;0.15322891
11:29:22:241;-0.34476504;10.093954;0.15322891
11:29:22:241;-0.34476504;10.093954;0.15322891
11:29:22:241;-0.34476504;10.093954;0.15322891
11:29:22:241;-0.34476504;10.093954;0.15322891
11:29:22:241;-0.34476504;10.093954;0.15322891
11:29:22:241;-0.34476504;10.093954;0.15322891
11:29:22:241;-0.34476504;10.093954;0.15322891
11:29:22:241;-0.34476504;10.093954;0.15322891
11:29:22:241;-0.34476504;10.093954;0.15322891
11:29:22:345;-0.2681506;10.01734;0.15322891
11:29:22:345;-0.2681506;10.01734;0.15322891
11:29:22:345;-0.2681506;10.01734;0.15322891
11:29:22:345;-0.2681506;10.01734;0.15322891
11:29:22:345;-0.2681506;10.01734;0.15322891
11:29:22:345;-0.2681506;10.01734;0.15322891
11:29:22:345;-0.2681506;10.01734;0.15322891
11:29:22:345;-0.2681506;10.01734;0.15322891
11:29:22:345;-0.2681506;10.01734;0.15322891
11:29:22:345;-0.2681506;10.01734;0.15322891
11:29:22:345;-0.2681506;10.01734;0.15322891
11:29:22:345;-0.2681506;10.01734;0.15322891
11:29:22:345;-0.2681506;10.01734;0.15322891
11:29:22:345;-0.2681506;10.01734;0.15322891
11:29:22:345;-0.2681506;10.01734;0.15322891
11:29:22:345;-0.2681506;10.01734;0.15322891
11:29:22:345;-0.2681506;10.01734;0.15322891
11:29:22:345;-0.2681506;10.01734;0.15322891
11:29:22:345;-0.2681506;10.01734;0.15322891
11:29:22:345;-0.2681506;10.01734;0.15322891
11:29:22:345;-0.2681506;10.01734;0.15322891
11:29:22:345;-0.2681506;10.01734;0.15322891
11:29:22:345;-0.2681506;10.01734;0.15322891
11:29:22:528;-0.34476504;9.9790325;0.17238252
11:29:22:528;-0.34476504;9.9790325;0.17238252
11:29:22:528;-0.34476504;9.9790325;0.17238252
11:29:22:528;-0.34476504;9.9790325;0.17238252
11:29:22:528;-0.34476504;9.9790325;0.17238252
11:29:22:528;-0.34476504;9.9790325;0.17238252
11:29:22:528;-0.34476504;9.9790325;0.17238252
11:29:22:528;-0.34476504;9.9790325;0.17238252
11:29:22:528;-0.34476504;9.9790325;0.17238252
11:29:22:528;-0.34476504;9.9790325;0.17238252
11:29:22:528;-0.34476504;9.9790325;0.17238252
11:29:22:528;-0.34476504;9.9790325;0.17238252
11:29:22:528;-0.34476504;9.9790325;0.17238252
11:29:22:528;-0.34476504;9.9790325;0.17238252
11:29:22:528;-0.34476504;9.9790325;0.17238252
11:29:22:647;-0.30645782;10.036493;0.24899697
11:29:22:647;-0.30645782;10.036493;0.24899697
11:29:22:647;-0.30645782;10.036493;0.24899697
11:29:22:647;-0.30645782;10.036493;0.24899697
11:29:22:647;-0.30645782;10.036493;0.24899697
11:29:22:647;-0.30645782;10.036493;0.24899697
11:29:22:647;-0.30645782;10.036493;0.24899697
11:29:22:647;-0.30645782;10.036493;0.24899697
11:29:22:647;-0.30645782;10.036493;0.24899697
11:29:22:647;-0.30645782;10.036493;0.24899697
11:29:22:647;-0.30645782;10.036493;0.24899697
11:29:22:647;-0.30645782;10.036493;0.24899697
11:29:22:647;-0.30645782;10.036493;0.24899697
11:29:22:647;-0.30645782;10.036493;0.24899697
11:29:22:647;-0.30645782;10.036493;0.24899697
11:29:22:647;-0.30645782;10.036493;0.24899697
11:29:22:767;-0.34476504;10.01734;0.095768064
11:29:22:767;-0.34476504;10.01734;0.095768064
11:29:22:767;-0.34476504;10.01734;0.095768064
11:29:22:767;-0.34476504;10.01734;0.095768064
11:29:22:767;-0.34476504;10.01734;0.095768064
11:29:22:767;-0.34476504;10.01734;0.095768064
11:29:22:767;-0.34476504;10.01734;0.095768064
11:29:22:767;-0.34476504;10.01734;0.095768064
11:29:22:767;-0.34476504;10.01734;0.095768064
11:29:22:767;-0.34476504;10.01734;0.095768064
11:29:22:767;-0.34476504;10.01734;0.095768064
11:29:22:767;-0.34476504;10.01734;0.095768064
11:29:22:767;-0.34476504;10.01734;0.095768064
11:29:22:767;-0.34476504;10.01734;0.095768064
11:29:22:767;-0.34476504;10.01734;0.095768064
11:29:22:886;-0.32561144;10.01734;0.38307226
11:29:22:886;-0.32561144;10.01734;0.38307226
11:29:22:886;-0.32561144;10.01734;0.38307226
11:29:22:886;-0.32561144;10.01734;0.38307226
11:29:22:886;-0.32561144;10.01734;0.38307226
11:29:22:886;-0.32561144;10.01734;0.38307226
11:29:22:886;-0.32561144;10.01734;0.38307226
11:29:22:886;-0.32561144;10.01734;0.38307226
11:29:22:886;-0.32561144;10.01734;0.38307226
11:29:22:886;-0.32561144;10.01734;0.38307226
11:29:22:886;-0.32561144;10.01734;0.38307226
11:29:22:886;-0.32561144;10.01734;0.38307226
11:29:22:886;-0.32561144;10.01734;0.38307226
11:29:22:886;-0.32561144;10.01734;0.38307226
11:29:22:886;-0.32561144;10.01734;0.38307226
11:29:22:886;-0.32561144;10.01734;0.38307226
11:29:23:008;-0.36391866;10.093954;0.21068975
11:29:23:008;-0.36391866;10.093954;0.21068975
11:29:23:008;-0.36391866;10.093954;0.21068975
11:29:23:008;-0.36391866;10.093954;0.21068975
11:29:23:008;-0.36391866;10.093954;0.21068975
11:29:23:008;-0.36391866;10.093954;0.21068975
11:29:23:008;-0.36391866;10.093954;0.21068975
11:29:23:008;-0.36391866;10.093954;0.21068975
11:29:23:008;-0.36391866;10.093954;0.21068975
11:29:23:008;-0.36391866;10.093954;0.21068975
11:29:23:008;-0.36391866;10.093954;0.21068975
11:29:23:008;-0.36391866;10.093954;0.21068975
11:29:23:008;-0.36391866;10.093954;0.21068975
11:29:23:008;-0.36391866;10.093954;0.21068975
11:29:23:008;-0.36391866;10.093954;0.21068975
11:29:23:126;-0.36391866;10.093954;0.2681506
11:29:23:126;-0.36391866;10.093954;0.2681506
11:29:23:126;-0.36391866;10.093954;0.2681506
11:29:23:126;-0.36391866;10.093954;0.2681506
11:29:23:126;-0.36391866;10.093954;0.2681506
11:29:23:126;-0.36391866;10.093954;0.2681506
11:29:23:126;-0.36391866;10.093954;0.2681506
11:29:23:126;-0.36391866;10.093954;0.2681506
11:29:23:126;-0.36391866;10.093954;0.2681506
11:29:23:126;-0.36391866;10.093954;0.2681506
11:29:23:126;-0.36391866;10.093954;0.2681506
11:29:23:126;-0.36391866;10.093954;0.2681506
11:29:23:126;-0.36391866;10.093954;0.2681506
11:29:23:230;-0.22984336;10.093954;0.22984336
11:29:23:230;-0.22984336;10.093954;0.22984336
11:29:23:230;-0.22984336;10.093954;0.22984336
11:29:23:230;-0.22984336;10.093954;0.22984336
11:29:23:230;-0.22984336;10.093954;0.22984336
11:29:23:230;-0.22984336;10.093954;0.22984336
11:29:23:230;-0.22984336;10.093954;0.22984336
11:29:23:230;-0.22984336;10.093954;0.22984336
11:29:23:230;-0.22984336;10.093954;0.22984336
11:29:23:230;-0.22984336;10.093954;0.22984336
11:29:23:230;-0.22984336;10.093954;0.22984336
11:29:23:230;-0.22984336;10.093954;0.22984336
11:29:23:230;-0.22984336;10.093954;0.22984336
11:29:23:230;-0.22984336;10.093954;0.22984336
11:29:23:230;-0.22984336;10.093954;0.22984336
11:29:23:230;-0.22984336;10.093954;0.22984336
11:29:23:356;-0.1340753;10.036493;0.22984336
11:29:23:356;-0.1340753;10.036493;0.22984336
11:29:23:356;-0.1340753;10.036493;0.22984336
11:29:23:356;-0.1340753;10.036493;0.22984336
11:29:23:356;-0.1340753;10.036493;0.22984336
11:29:23:356;-0.1340753;10.036493;0.22984336
11:29:23:356;-0.1340753;10.036493;0.22984336
11:29:23:356;-0.1340753;10.036493;0.22984336
11:29:23:356;-0.1340753;10.036493;0.22984336
11:29:23:356;-0.1340753;10.036493;0.22984336
11:29:23:356;-0.1340753;10.036493;0.22984336
11:29:23:356;-0.1340753;10.036493;0.22984336
11:29:23:356;-0.1340753;10.036493;0.22984336
11:29:23:356;-0.1340753;10.036493;0.22984336
11:29:23:356;-0.1340753;10.036493;0.22984336
11:29:23:472;-0.22984336;9.902418;0.34476504
11:29:23:472;-0.22984336;9.902418;0.34476504
11:29:23:472;-0.22984336;9.902418;0.34476504
11:29:23:472;-0.22984336;9.902418;0.34476504
11:29:23:472;-0.22984336;9.902418;0.34476504
11:29:23:472;-0.22984336;9.902418;0.34476504
11:29:23:472;-0.22984336;9.902418;0.34476504
11:29:23:472;-0.22984336;9.902418;0.34476504
11:29:23:472;-0.22984336;9.902418;0.34476504
11:29:23:472;-0.22984336;9.902418;0.34476504
11:29:23:472;-0.22984336;9.902418;0.34476504
11:29:23:472;-0.22984336;9.902418;0.34476504
11:29:23:472;-0.22984336;9.902418;0.34476504
11:29:23:573;-0.40222588;9.9790325;0.24899697
11:29:23:573;-0.40222588;9.9790325;0.24899697
11:29:23:573;-0.40222588;9.9790325;0.24899697
11:29:23:573;-0.40222588;9.9790325;0.24899697
11:29:23:573;-0.40222588;9.9790325;0.24899697
11:29:23:573;-0.40222588;9.9790325;0.24899697
11:29:23:573;-0.40222588;9.9790325;0.24899697
11:29:23:573;-0.40222588;9.9790325;0.24899697
11:29:23:573;-0.40222588;9.9790325;0.24899697
11:29:23:573;-0.40222588;9.9790325;0.24899697
11:29:23:573;-0.40222588;9.9790325;0.24899697
11:29:23:573;-0.40222588;9.9790325;0.24899697
11:29:23:573;-0.40222588;9.9790325;0.24899697
11:29:23:573;-0.40222588;9.9790325;0.24899697
11:29:23:573;-0.40222588;9.9790325;0.24899697
11:29:23:695;-0.2681506;9.844957;0.38307226
11:29:23:695;-0.2681506;9.844957;0.38307226
11:29:23:695;-0.2681506;9.844957;0.38307226
11:29:23:695;-0.2681506;9.844957;0.38307226
11:29:23:695;-0.2681506;9.844957;0.38307226
11:29:23:695;-0.2681506;9.844957;0.38307226
11:29:23:695;-0.2681506;9.844957;0.38307226
11:29:23:695;-0.2681506;9.844957;0.38307226
11:29:23:695;-0.2681506;9.844957;0.38307226
11:29:23:695;-0.2681506;9.844957;0.38307226
11:29:23:695;-0.2681506;9.844957;0.38307226
11:29:23:695;-0.2681506;9.844957;0.38307226
11:29:23:695;-0.2681506;9.844957;0.38307226
11:29:23:695;-0.2681506;9.844957;0.38307226
11:29:23:799;-0.40222588;9.959879;0.38307226
11:29:23:799;-0.40222588;9.959879;0.38307226
11:29:23:799;-0.40222588;9.959879;0.38307226
11:29:23:799;-0.40222588;9.959879;0.38307226
11:29:23:799;-0.40222588;9.959879;0.38307226
11:29:23:799;-0.40222588;9.959879;0.38307226
11:29:23:799;-0.40222588;9.959879;0.38307226
11:29:23:799;-0.40222588;9.959879;0.38307226
11:29:23:799;-0.40222588;9.959879;0.38307226
11:29:23:799;-0.40222588;9.959879;0.38307226
11:29:23:799;-0.40222588;9.959879;0.38307226
11:29:23:799;-0.40222588;9.959879;0.38307226
11:29:23:799;-0.40222588;9.959879;0.38307226
11:29:23:905;-0.19153613;10.055647;0.076614454
11:29:23:905;-0.19153613;10.055647;0.076614454
11:29:23:905;-0.19153613;10.055647;0.076614454
11:29:23:905;-0.19153613;10.055647;0.076614454
11:29:23:905;-0.19153613;10.055647;0.076614454
11:29:23:905;-0.19153613;10.055647;0.076614454
11:29:23:905;-0.19153613;10.055647;0.076614454
11:29:23:905;-0.19153613;10.055647;0.076614454
11:29:23:905;-0.19153613;10.055647;0.076614454
11:29:23:905;-0.19153613;10.055647;0.076614454
11:29:23:905;-0.19153613;10.055647;0.076614454
11:29:23:905;-0.19153613;10.055647;0.076614454
11:29:23:905;-0.19153613;10.055647;0.076614454
11:29:23:905;-0.19153613;10.055647;0.076614454
11:29:24:015;-0.34476504;9.9790325;0.24899697
11:29:24:015;-0.34476504;9.9790325;0.24899697
11:29:24:015;-0.34476504;9.9790325;0.24899697
11:29:24:015;-0.34476504;9.9790325;0.24899697
11:29:24:015;-0.34476504;9.9790325;0.24899697
11:29:24:015;-0.34476504;9.9790325;0.24899697
11:29:24:015;-0.34476504;9.9790325;0.24899697
11:29:24:015;-0.34476504;9.9790325;0.24899697
11:29:24:015;-0.34476504;9.9790325;0.24899697
11:29:24:015;-0.34476504;9.9790325;0.24899697
11:29:24:015;-0.34476504;9.9790325;0.24899697
11:29:24:015;-0.34476504;9.9790325;0.24899697
11:29:24:015;-0.34476504;9.9790325;0.24899697
11:29:24:015;-0.34476504;9.9790325;0.24899697
11:29:24:015;-0.34476504;9.9790325;0.24899697
11:29:24:015;-0.34476504;9.9790325;0.24899697
11:29:24:138;-0.45968673;9.921572;0.1340753
11:29:24:138;-0.45968673;9.921572;0.1340753
11:29:24:138;-0.45968673;9.921572;0.1340753
11:29:24:138;-0.45968673;9.921572;0.1340753
11:29:24:138;-0.45968673;9.921572;0.1340753
11:29:24:138;-0.45968673;9.921572;0.1340753
11:29:24:138;-0.45968673;9.921572;0.1340753
11:29:24:138;-0.45968673;9.921572;0.1340753
11:29:24:138;-0.45968673;9.921572;0.1340753
11:29:24:138;-0.45968673;9.921572;0.1340753
11:29:24:138;-0.45968673;9.921572;0.1340753
11:29:24:138;-0.45968673;9.921572;0.1340753
11:29:24:138;-0.45968673;9.921572;0.1340753
11:29:24:138;-0.45968673;9.921572;0.1340753
11:29:24:138;-0.45968673;9.921572;0.1340753
11:29:24:138;-0.45968673;9.921572;0.1340753
11:29:24:138;-0.45968673;9.921572;0.1340753
11:29:24:268;-0.2873042;9.844957;0.19153613
11:29:24:268;-0.2873042;9.844957;0.19153613
11:29:24:268;-0.2873042;9.844957;0.19153613
11:29:24:268;-0.2873042;9.844957;0.19153613
11:29:24:268;-0.2873042;9.844957;0.19153613
11:29:24:268;-0.2873042;9.844957;0.19153613
11:29:24:268;-0.2873042;9.844957;0.19153613
11:29:24:268;-0.2873042;9.844957;0.19153613
11:29:24:268;-0.2873042;9.844957;0.19153613
11:29:24:268;-0.2873042;9.844957;0.19153613
11:29:24:268;-0.2873042;9.844957;0.19153613
11:29:24:268;-0.2873042;9.844957;0.19153613
11:29:24:268;-0.2873042;9.844957;0.19153613
11:29:24:375;-0.4213795;10.055647;0.11492168
11:29:24:375;-0.4213795;10.055647;0.11492168
11:29:24:375;-0.4213795;10.055647;0.11492168
11:29:24:375;-0.4213795;10.055647;0.11492168
11:29:24:375;-0.4213795;10.055647;0.11492168
11:29:24:375;-0.4213795;10.055647;0.11492168
11:29:24:375;-0.4213795;10.055647;0.11492168
11:29:24:375;-0.4213795;10.055647;0.11492168
11:29:24:375;-0.4213795;10.055647;0.11492168
11:29:24:375;-0.4213795;10.055647;0.11492168
11:29:24:375;-0.4213795;10.055647;0.11492168
11:29:24:375;-0.4213795;10.055647;0.11492168
11:29:24:375;-0.4213795;10.055647;0.11492168
11:29:24:375;-0.4213795;10.055647;0.11492168
11:29:24:375;-0.4213795;10.055647;0.11492168
11:29:24:492;-0.36391866;10.0748005;0.1340753
11:29:24:492;-0.36391866;10.0748005;0.1340753
11:29:24:492;-0.36391866;10.0748005;0.1340753
11:29:24:492;-0.36391866;10.0748005;0.1340753
11:29:24:492;-0.36391866;10.0748005;0.1340753
11:29:24:492;-0.36391866;10.0748005;0.1340753
11:29:24:492;-0.36391866;10.0748005;0.1340753
11:29:24:492;-0.36391866;10.0748005;0.1340753
11:29:24:492;-0.36391866;10.0748005;0.1340753
11:29:24:492;-0.36391866;10.0748005;0.1340753
11:29:24:492;-0.36391866;10.0748005;0.1340753
11:29:24:492;-0.36391866;10.0748005;0.1340753
11:29:24:492;-0.36391866;10.0748005;0.1340753
11:29:24:492;-0.36391866;10.0748005;0.1340753
11:29:24:598;-0.34476504;9.998186;0.22984336
11:29:24:598;-0.34476504;9.998186;0.22984336
11:29:24:598;-0.34476504;9.998186;0.22984336
11:29:24:598;-0.34476504;9.998186;0.22984336
11:29:24:598;-0.34476504;9.998186;0.22984336
11:29:24:598;-0.34476504;9.998186;0.22984336
11:29:24:598;-0.34476504;9.998186;0.22984336
11:29:24:598;-0.34476504;9.998186;0.22984336
11:29:24:598;-0.34476504;9.998186;0.22984336
11:29:24:598;-0.34476504;9.998186;0.22984336
11:29:24:598;-0.34476504;9.998186;0.22984336
11:29:24:598;-0.34476504;9.998186;0.22984336
11:29:24:598;-0.34476504;9.998186;0.22984336
11:29:24:598;-0.34476504;9.998186;0.22984336
11:29:24:598;-0.34476504;9.998186;0.22984336
11:29:24:712;-0.17238252;9.940725;0.17238252
11:29:24:712;-0.17238252;9.940725;0.17238252
11:29:24:712;-0.17238252;9.940725;0.17238252
11:29:24:712;-0.17238252;9.940725;0.17238252
11:29:24:712;-0.17238252;9.940725;0.17238252
11:29:24:712;-0.17238252;9.940725;0.17238252
11:29:24:712;-0.17238252;9.940725;0.17238252
11:29:24:712;-0.17238252;9.940725;0.17238252
11:29:24:712;-0.17238252;9.940725;0.17238252
11:29:24:712;-0.17238252;9.940725;0.17238252
11:29:24:712;-0.17238252;9.940725;0.17238252
11:29:24:712;-0.17238252;9.940725;0.17238252
11:29:24:712;-0.17238252;9.940725;0.17238252
11:29:24:712;-0.17238252;9.940725;0.17238252
11:29:24:712;-0.17238252;9.940725;0.17238252
11:29:24:712;-0.17238252;9.940725;0.17238252
11:29:24:712;-0.17238252;9.940725;0.17238252
11:29:24:712;-0.17238252;9.940725;0.17238252
11:29:24:856;-0.32561144;10.036493;0.19153613
11:29:24:856;-0.32561144;10.036493;0.19153613
11:29:24:856;-0.32561144;10.036493;0.19153613
11:29:24:856;-0.32561144;10.036493;0.19153613
11:29:24:856;-0.32561144;10.036493;0.19153613
11:29:24:856;-0.32561144;10.036493;0.19153613
11:29:24:856;-0.32561144;10.036493;0.19153613
11:29:24:856;-0.32561144;10.036493;0.19153613
11:29:24:856;-0.32561144;10.036493;0.19153613
11:29:24:856;-0.32561144;10.036493;0.19153613
11:29:24:856;-0.32561144;10.036493;0.19153613
11:29:24:856;-0.32561144;10.036493;0.19153613
11:29:24:856;-0.32561144;10.036493;0.19153613
11:29:24:856;-0.32561144;10.036493;0.19153613
11:29:24:856;-0.32561144;10.036493;0.19153613
11:29:24:974;-0.4213795;9.998186;0.22984336
11:29:24:974;-0.4213795;9.998186;0.22984336
11:29:24:974;-0.4213795;9.998186;0.22984336
11:29:24:974;-0.4213795;9.998186;0.22984336
11:29:24:974;-0.4213795;9.998186;0.22984336
11:29:24:974;-0.4213795;9.998186;0.22984336
11:29:24:974;-0.4213795;9.998186;0.22984336
11:29:24:974;-0.4213795;9.998186;0.22984336
11:29:24:974;-0.4213795;9.998186;0.22984336
11:29:24:974;-0.4213795;9.998186;0.22984336
11:29:24:974;-0.4213795;9.998186;0.22984336
11:29:24:974;-0.4213795;9.998186;0.22984336
11:29:24:974;-0.4213795;9.998186;0.22984336
11:29:25:076;-0.2681506;9.902418;0.11492168
11:29:25:076;-0.2681506;9.902418;0.11492168
11:29:25:076;-0.2681506;9.902418;0.11492168
11:29:25:076;-0.2681506;9.902418;0.11492168
11:29:25:076;-0.2681506;9.902418;0.11492168
11:29:25:076;-0.2681506;9.902418;0.11492168
11:29:25:076;-0.2681506;9.902418;0.11492168
11:29:25:076;-0.2681506;9.902418;0.11492168
11:29:25:076;-0.2681506;9.902418;0.11492168
11:29:25:076;-0.2681506;9.902418;0.11492168
11:29:25:076;-0.2681506;9.902418;0.11492168
11:29:25:076;-0.2681506;9.902418;0.11492168
11:29:25:076;-0.2681506;9.902418;0.11492168
11:29:25:076;-0.2681506;9.902418;0.11492168
11:29:25:182;-0.19153613;9.902418;0.17238252
11:29:25:182;-0.19153613;9.902418;0.17238252
11:29:25:182;-0.19153613;9.902418;0.17238252
11:29:25:182;-0.19153613;9.902418;0.17238252
11:29:25:182;-0.19153613;9.902418;0.17238252
11:29:25:182;-0.19153613;9.902418;0.17238252
11:29:25:182;-0.19153613;9.902418;0.17238252
11:29:25:182;-0.19153613;9.902418;0.17238252
11:29:25:182;-0.19153613;9.902418;0.17238252
11:29:25:182;-0.19153613;9.902418;0.17238252
11:29:25:182;-0.19153613;9.902418;0.17238252
11:29:25:182;-0.19153613;9.902418;0.17238252
11:29:25:182;-0.19153613;9.902418;0.17238252
11:29:25:182;-0.19153613;9.902418;0.17238252
11:29:25:182;-0.19153613;9.902418;0.17238252
11:29:25:303;-0.22984336;10.036493;0.21068975
11:29:25:303;-0.22984336;10.036493;0.21068975
11:29:25:303;-0.22984336;10.036493;0.21068975
11:29:25:303;-0.22984336;10.036493;0.21068975
11:29:25:303;-0.22984336;10.036493;0.21068975
11:29:25:303;-0.22984336;10.036493;0.21068975
11:29:25:303;-0.22984336;10.036493;0.21068975
11:29:25:303;-0.22984336;10.036493;0.21068975
11:29:25:303;-0.22984336;10.036493;0.21068975
11:29:25:303;-0.22984336;10.036493;0.21068975
11:29:25:303;-0.22984336;10.036493;0.21068975
11:29:25:303;-0.22984336;10.036493;0.21068975
11:29:25:303;-0.22984336;10.036493;0.21068975
11:29:25:303;-0.22984336;10.036493;0.21068975
11:29:25:303;-0.22984336;10.036493;0.21068975
11:29:25:303;-0.22984336;10.036493;0.21068975
11:29:25:423;-0.19153613;9.940725;0.2681506
11:29:25:423;-0.19153613;9.940725;0.2681506
11:29:25:423;-0.19153613;9.940725;0.2681506
11:29:25:423;-0.19153613;9.940725;0.2681506
11:29:25:423;-0.19153613;9.940725;0.2681506
11:29:25:423;-0.19153613;9.940725;0.2681506
11:29:25:423;-0.19153613;9.940725;0.2681506
11:29:25:423;-0.19153613;9.940725;0.2681506
11:29:25:423;-0.19153613;9.940725;0.2681506
11:29:25:423;-0.19153613;9.940725;0.2681506
11:29:25:423;-0.19153613;9.940725;0.2681506
11:29:25:423;-0.19153613;9.940725;0.2681506
11:29:25:423;-0.19153613;9.940725;0.2681506
11:29:25:423;-0.19153613;9.940725;0.2681506
11:29:25:423;-0.19153613;9.940725;0.2681506
11:29:25:423;-0.19153613;9.940725;0.2681506
11:29:25:423;-0.19153613;9.940725;0.2681506
11:29:25:423;-0.19153613;9.940725;0.2681506
11:29:25:423;-0.19153613;9.940725;0.2681506
11:29:25:571;-0.2873042;9.825804;0.32561144
11:29:25:571;-0.2873042;9.825804;0.32561144
11:29:25:571;-0.2873042;9.825804;0.32561144
11:29:25:571;-0.2873042;9.825804;0.32561144
11:29:25:571;-0.2873042;9.825804;0.32561144
11:29:25:571;-0.2873042;9.825804;0.32561144
11:29:25:571;-0.2873042;9.825804;0.32561144
11:29:25:571;-0.2873042;9.825804;0.32561144
11:29:25:571;-0.2873042;9.825804;0.32561144
11:29:25:571;-0.2873042;9.825804;0.32561144
11:29:25:571;-0.2873042;9.825804;0.32561144
11:29:25:571;-0.2873042;9.825804;0.32561144
11:29:25:571;-0.2873042;9.825804;0.32561144
11:29:25:571;-0.2873042;9.825804;0.32561144
11:29:25:680;-0.36391866;10.0748005;0.2873042
11:29:25:680;-0.36391866;10.0748005;0.2873042
11:29:25:680;-0.36391866;10.0748005;0.2873042
11:29:25:680;-0.36391866;10.0748005;0.2873042
11:29:25:680;-0.36391866;10.0748005;0.2873042
11:29:25:680;-0.36391866;10.0748005;0.2873042
11:29:25:680;-0.36391866;10.0748005;0.2873042
11:29:25:680;-0.36391866;10.0748005;0.2873042
11:29:25:680;-0.36391866;10.0748005;0.2873042
11:29:25:680;-0.36391866;10.0748005;0.2873042
11:29:25:680;-0.36391866;10.0748005;0.2873042
11:29:25:680;-0.36391866;10.0748005;0.2873042
11:29:25:680;-0.36391866;10.0748005;0.2873042
11:29:25:680;-0.36391866;10.0748005;0.2873042
11:29:25:680;-0.36391866;10.0748005;0.2873042
11:29:25:800;-0.40222588;10.055647;0.19153613
11:29:25:800;-0.40222588;10.055647;0.19153613
11:29:25:800;-0.40222588;10.055647;0.19153613
11:29:25:800;-0.40222588;10.055647;0.19153613
11:29:25:800;-0.40222588;10.055647;0.19153613
11:29:25:800;-0.40222588;10.055647;0.19153613
11:29:25:800;-0.40222588;10.055647;0.19153613
11:29:25:800;-0.40222588;10.055647;0.19153613
11:29:25:800;-0.40222588;10.055647;0.19153613
11:29:25:800;-0.40222588;10.055647;0.19153613
11:29:25:800;-0.40222588;10.055647;0.19153613
11:29:25:800;-0.40222588;10.055647;0.19153613
11:29:25:800;-0.40222588;10.055647;0.19153613
11:29:25:901;-0.2873042;10.093954;0.17238252
11:29:25:901;-0.2873042;10.093954;0.17238252
11:29:25:901;-0.2873042;10.093954;0.17238252
11:29:25:901;-0.2873042;10.093954;0.17238252
11:29:25:901;-0.2873042;10.093954;0.17238252
11:29:25:901;-0.2873042;10.093954;0.17238252
11:29:25:901;-0.2873042;10.093954;0.17238252
11:29:25:901;-0.2873042;10.093954;0.17238252
11:29:25:901;-0.2873042;10.093954;0.17238252
11:29:25:901;-0.2873042;10.093954;0.17238252
11:29:25:901;-0.2873042;10.093954;0.17238252
11:29:25:901;-0.2873042;10.093954;0.17238252
11:29:25:901;-0.2873042;10.093954;0.17238252
11:29:26:003;-0.24899697;9.921572;0.038307227
11:29:26:003;-0.24899697;9.921572;0.038307227
11:29:26:003;-0.24899697;9.921572;0.038307227
11:29:26:003;-0.24899697;9.921572;0.038307227
11:29:26:003;-0.24899697;9.921572;0.038307227
11:29:26:003;-0.24899697;9.921572;0.038307227
11:29:26:003;-0.24899697;9.921572;0.038307227
11:29:26:003;-0.24899697;9.921572;0.038307227
11:29:26:003;-0.24899697;9.921572;0.038307227
11:29:26:003;-0.24899697;9.921572;0.038307227
11:29:26:003;-0.24899697;9.921572;0.038307227
11:29:26:003;-0.24899697;9.921572;0.038307227
11:29:26:003;-0.24899697;9.921572;0.038307227
11:29:26:105;-0.19153613;10.208876;0.15322891
11:29:26:105;-0.19153613;10.208876;0.15322891
11:29:26:105;-0.19153613;10.208876;0.15322891
11:29:26:105;-0.19153613;10.208876;0.15322891
11:29:26:105;-0.19153613;10.208876;0.15322891
11:29:26:105;-0.19153613;10.208876;0.15322891
11:29:26:105;-0.19153613;10.208876;0.15322891
11:29:26:105;-0.19153613;10.208876;0.15322891
11:29:26:105;-0.19153613;10.208876;0.15322891
11:29:26:105;-0.19153613;10.208876;0.15322891
11:29:26:105;-0.19153613;10.208876;0.15322891
11:29:26:105;-0.19153613;10.208876;0.15322891
11:29:26:105;-0.19153613;10.208876;0.15322891
11:29:26:105;-0.19153613;10.208876;0.15322891
11:29:26:105;-0.19153613;10.208876;0.15322891
11:29:26:105;-0.19153613;10.208876;0.15322891
11:29:26:231;-0.2681506;9.940725;0.21068975
11:29:26:231;-0.2681506;9.940725;0.21068975
11:29:26:231;-0.2681506;9.940725;0.21068975
11:29:26:231;-0.2681506;9.940725;0.21068975
11:29:26:231;-0.2681506;9.940725;0.21068975
11:29:26:231;-0.2681506;9.940725;0.21068975
11:29:26:231;-0.2681506;9.940725;0.21068975
11:29:26:231;-0.2681506;9.940725;0.21068975
11:29:26:231;-0.2681506;9.940725;0.21068975
11:29:26:231;-0.2681506;9.940725;0.21068975
11:29:26:231;-0.2681506;9.940725;0.21068975
11:29:26:231;-0.2681506;9.940725;0.21068975
11:29:26:231;-0.2681506;9.940725;0.21068975
11:29:26:231;-0.2681506;9.940725;0.21068975
11:29:26:231;-0.2681506;9.940725;0.21068975
11:29:26:347;-0.24899697;9.940725;0.17238252
11:29:26:347;-0.24899697;9.940725;0.17238252
11:29:26:347;-0.24899697;9.940725;0.17238252
11:29:26:347;-0.24899697;9.940725;0.17238252
11:29:26:347;-0.24899697;9.940725;0.17238252
11:29:26:347;-0.24899697;9.940725;0.17238252
11:29:26:347;-0.24899697;9.940725;0.17238252
11:29:26:347;-0.24899697;9.940725;0.17238252
11:29:26:347;-0.24899697;9.940725;0.17238252
11:29:26:347;-0.24899697;9.940725;0.17238252
11:29:26:347;-0.24899697;9.940725;0.17238252
11:29:26:347;-0.24899697;9.940725;0.17238252
11:29:26:347;-0.24899697;9.940725;0.17238252
11:29:26:347;-0.24899697;9.940725;0.17238252
11:29:26:460;-0.24899697;9.998186;0.05746084
11:29:26:460;-0.24899697;9.998186;0.05746084
11:29:26:460;-0.24899697;9.998186;0.05746084
11:29:26:460;-0.24899697;9.998186;0.05746084
11:29:26:460;-0.24899697;9.998186;0.05746084
11:29:26:460;-0.24899697;9.998186;0.05746084
11:29:26:460;-0.24899697;9.998186;0.05746084
11:29:26:460;-0.24899697;9.998186;0.05746084
11:29:26:460;-0.24899697;9.998186;0.05746084
11:29:26:460;-0.24899697;9.998186;0.05746084
11:29:26:460;-0.24899697;9.998186;0.05746084
11:29:26:460;-0.24899697;9.998186;0.05746084
11:29:26:460;-0.24899697;9.998186;0.05746084
11:29:26:460;-0.24899697;9.998186;0.05746084
11:29:26:568;-0.2873042;9.959879;0.24899697
11:29:26:568;-0.2873042;9.959879;0.24899697
11:29:26:568;-0.2873042;9.959879;0.24899697
11:29:26:568;-0.2873042;9.959879;0.24899697
11:29:26:568;-0.2873042;9.959879;0.24899697
11:29:26:568;-0.2873042;9.959879;0.24899697
11:29:26:568;-0.2873042;9.959879;0.24899697
11:29:26:568;-0.2873042;9.959879;0.24899697
11:29:26:568;-0.2873042;9.959879;0.24899697
11:29:26:568;-0.2873042;9.959879;0.24899697
11:29:26:568;-0.2873042;9.959879;0.24899697
11:29:26:568;-0.2873042;9.959879;0.24899697
11:29:26:568;-0.2873042;9.959879;0.24899697
11:29:26:568;-0.2873042;9.959879;0.24899697
11:29:26:568;-0.2873042;9.959879;0.24899697
11:29:26:687;-0.2873042;9.80665;0.22984336
11:29:26:687;-0.2873042;9.80665;0.22984336
11:29:26:687;-0.2873042;9.80665;0.22984336
11:29:26:687;-0.2873042;9.80665;0.22984336
11:29:26:687;-0.2873042;9.80665;0.22984336
11:29:26:687;-0.2873042;9.80665;0.22984336
11:29:26:687;-0.2873042;9.80665;0.22984336
11:29:26:687;-0.2873042;9.80665;0.22984336
11:29:26:687;-0.2873042;9.80665;0.22984336
11:29:26:687;-0.2873042;9.80665;0.22984336
11:29:26:687;-0.2873042;9.80665;0.22984336
11:29:26:687;-0.2873042;9.80665;0.22984336
11:29:26:687;-0.2873042;9.80665;0.22984336
11:29:26:687;-0.2873042;9.80665;0.22984336
11:29:26:687;-0.2873042;9.80665;0.22984336
11:29:26:687;-0.2873042;9.80665;0.22984336
11:29:26:806;-0.4213795;10.055647;0.2681506
11:29:26:806;-0.4213795;10.055647;0.2681506
11:29:26:806;-0.4213795;10.055647;0.2681506
11:29:26:806;-0.4213795;10.055647;0.2681506
11:29:26:806;-0.4213795;10.055647;0.2681506
11:29:26:806;-0.4213795;10.055647;0.2681506
11:29:26:806;-0.4213795;10.055647;0.2681506
11:29:26:806;-0.4213795;10.055647;0.2681506
11:29:26:806;-0.4213795;10.055647;0.2681506
11:29:26:806;-0.4213795;10.055647;0.2681506
11:29:26:806;-0.4213795;10.055647;0.2681506
11:29:26:806;-0.4213795;10.055647;0.2681506
11:29:26:806;-0.4213795;10.055647;0.2681506
11:29:26:806;-0.4213795;10.055647;0.2681506
11:29:26:806;-0.4213795;10.055647;0.2681506
11:29:26:928;-0.36391866;9.902418;0.15322891
11:29:26:928;-0.36391866;9.902418;0.15322891
11:29:26:928;-0.36391866;9.902418;0.15322891
11:29:26:928;-0.36391866;9.902418;0.15322891
11:29:26:928;-0.36391866;9.902418;0.15322891
11:29:26:928;-0.36391866;9.902418;0.15322891
11:29:26:928;-0.36391866;9.902418;0.15322891
11:29:26:928;-0.36391866;9.902418;0.15322891
11:29:26:928;-0.36391866;9.902418;0.15322891
11:29:26:928;-0.36391866;9.902418;0.15322891
11:29:26:928;-0.36391866;9.902418;0.15322891
11:29:26:928;-0.36391866;9.902418;0.15322891
11:29:26:928;-0.36391866;9.902418;0.15322891
11:29:26:928;-0.36391866;9.902418;0.15322891
11:29:27:034;-0.2873042;10.01734;0.17238252
11:29:27:034;-0.2873042;10.01734;0.17238252
11:29:27:034;-0.2873042;10.01734;0.17238252
11:29:27:034;-0.2873042;10.01734;0.17238252
11:29:27:034;-0.2873042;10.01734;0.17238252
11:29:27:034;-0.2873042;10.01734;0.17238252
11:29:27:034;-0.2873042;10.01734;0.17238252
11:29:27:034;-0.2873042;10.01734;0.17238252
11:29:27:034;-0.2873042;10.01734;0.17238252
11:29:27:034;-0.2873042;10.01734;0.17238252
11:29:27:034;-0.2873042;10.01734;0.17238252
11:29:27:034;-0.2873042;10.01734;0.17238252
11:29:27:034;-0.2873042;10.01734;0.17238252
11:29:27:034;-0.2873042;10.01734;0.17238252
11:29:27:034;-0.2873042;10.01734;0.17238252
11:29:27:152;-0.2681506;10.01734;0.19153613
11:29:27:152;-0.2681506;10.01734;0.19153613
11:29:27:152;-0.2681506;10.01734;0.19153613
11:29:27:152;-0.2681506;10.01734;0.19153613
11:29:27:152;-0.2681506;10.01734;0.19153613
11:29:27:152;-0.2681506;10.01734;0.19153613
11:29:27:152;-0.2681506;10.01734;0.19153613
11:29:27:152;-0.2681506;10.01734;0.19153613
11:29:27:152;-0.2681506;10.01734;0.19153613
11:29:27:152;-0.2681506;10.01734;0.19153613
11:29:27:152;-0.2681506;10.01734;0.19153613
11:29:27:152;-0.2681506;10.01734;0.19153613
11:29:27:152;-0.2681506;10.01734;0.19153613
11:29:27:152;-0.2681506;10.01734;0.19153613
11:29:27:263;-0.30645782;10.01734;0.2873042
11:29:27:263;-0.30645782;10.01734;0.2873042
11:29:27:263;-0.30645782;10.01734;0.2873042
11:29:27:263;-0.30645782;10.01734;0.2873042
11:29:27:263;-0.30645782;10.01734;0.2873042
11:29:27:263;-0.30645782;10.01734;0.2873042
11:29:27:263;-0.30645782;10.01734;0.2873042
11:29:27:263;-0.30645782;10.01734;0.2873042
11:29:27:263;-0.30645782;10.01734;0.2873042
11:29:27:263;-0.30645782;10.01734;0.2873042
11:29:27:263;-0.30645782;10.01734;0.2873042
11:29:27:263;-0.30645782;10.01734;0.2873042
11:29:27:263;-0.30645782;10.01734;0.2873042
11:29:27:263;-0.30645782;10.01734;0.2873042
11:29:27:368;-0.2873042;9.883265;0.2873042
11:29:27:368;-0.2873042;9.883265;0.2873042
11:29:27:368;-0.2873042;9.883265;0.2873042
11:29:27:368;-0.2873042;9.883265;0.2873042
11:29:27:368;-0.2873042;9.883265;0.2873042
11:29:27:368;-0.2873042;9.883265;0.2873042
11:29:27:368;-0.2873042;9.883265;0.2873042
11:29:27:368;-0.2873042;9.883265;0.2873042
11:29:27:368;-0.2873042;9.883265;0.2873042
11:29:27:368;-0.2873042;9.883265;0.2873042
11:29:27:368;-0.2873042;9.883265;0.2873042
11:29:27:368;-0.2873042;9.883265;0.2873042
11:29:27:368;-0.2873042;9.883265;0.2873042
11:29:27:368;-0.2873042;9.883265;0.2873042
11:29:27:368;-0.2873042;9.883265;0.2873042
11:29:27:486;-0.2681506;9.9790325;0.1340753
11:29:27:486;-0.2681506;9.9790325;0.1340753
11:29:27:486;-0.2681506;9.9790325;0.1340753
11:29:27:486;-0.2681506;9.9790325;0.1340753
11:29:27:486;-0.2681506;9.9790325;0.1340753
11:29:27:486;-0.2681506;9.9790325;0.1340753
11:29:27:486;-0.2681506;9.9790325;0.1340753
11:29:27:486;-0.2681506;9.9790325;0.1340753
11:29:27:486;-0.2681506;9.9790325;0.1340753
11:29:27:486;-0.2681506;9.9790325;0.1340753
11:29:27:486;-0.2681506;9.9790325;0.1340753
11:29:27:486;-0.2681506;9.9790325;0.1340753
11:29:27:486;-0.2681506;9.9790325;0.1340753
11:29:27:486;-0.2681506;9.9790325;0.1340753
11:29:27:486;-0.2681506;9.9790325;0.1340753
11:29:27:603;-0.36391866;10.036493;0.2681506
11:29:27:603;-0.36391866;10.036493;0.2681506
11:29:27:603;-0.36391866;10.036493;0.2681506
11:29:27:603;-0.36391866;10.036493;0.2681506
11:29:27:603;-0.36391866;10.036493;0.2681506
11:29:27:603;-0.36391866;10.036493;0.2681506
11:29:27:603;-0.36391866;10.036493;0.2681506
11:29:27:603;-0.36391866;10.036493;0.2681506
11:29:27:603;-0.36391866;10.036493;0.2681506
11:29:27:603;-0.36391866;10.036493;0.2681506
11:29:27:603;-0.36391866;10.036493;0.2681506
11:29:27:603;-0.36391866;10.036493;0.2681506
11:29:27:603;-0.36391866;10.036493;0.2681506
11:29:27:603;-0.36391866;10.036493;0.2681506
11:29:27:603;-0.36391866;10.036493;0.2681506
11:29:27:603;-0.36391866;10.036493;0.2681506
11:29:27:732;-0.30645782;10.01734;0.19153613
11:29:27:732;-0.30645782;10.01734;0.19153613
11:29:27:732;-0.30645782;10.01734;0.19153613
11:29:27:732;-0.30645782;10.01734;0.19153613
11:29:27:732;-0.30645782;10.01734;0.19153613
11:29:27:732;-0.30645782;10.01734;0.19153613
11:29:27:732;-0.30645782;10.01734;0.19153613
11:29:27:732;-0.30645782;10.01734;0.19153613
11:29:27:732;-0.30645782;10.01734;0.19153613
11:29:27:732;-0.30645782;10.01734;0.19153613
11:29:27:732;-0.30645782;10.01734;0.19153613
11:29:27:732;-0.30645782;10.01734;0.19153613
11:29:27:732;-0.30645782;10.01734;0.19153613
11:29:27:732;-0.30645782;10.01734;0.19153613
11:29:27:841;-0.40222588;10.036493;0.2873042
11:29:27:841;-0.40222588;10.036493;0.2873042
11:29:27:841;-0.40222588;10.036493;0.2873042
11:29:27:841;-0.40222588;10.036493;0.2873042
11:29:27:841;-0.40222588;10.036493;0.2873042
11:29:27:841;-0.40222588;10.036493;0.2873042
11:29:27:841;-0.40222588;10.036493;0.2873042
11:29:27:841;-0.40222588;10.036493;0.2873042
11:29:27:841;-0.40222588;10.036493;0.2873042
11:29:27:841;-0.40222588;10.036493;0.2873042
11:29:27:841;-0.40222588;10.036493;0.2873042
11:29:27:841;-0.40222588;10.036493;0.2873042
11:29:27:841;-0.40222588;10.036493;0.2873042
11:29:27:945;-0.24899697;9.864111;0.11492168
11:29:27:945;-0.24899697;9.864111;0.11492168
11:29:27:945;-0.24899697;9.864111;0.11492168
11:29:27:945;-0.24899697;9.864111;0.11492168
11:29:27:945;-0.24899697;9.864111;0.11492168
11:29:27:945;-0.24899697;9.864111;0.11492168
11:29:27:945;-0.24899697;9.864111;0.11492168
11:29:27:945;-0.24899697;9.864111;0.11492168
11:29:27:945;-0.24899697;9.864111;0.11492168
11:29:27:945;-0.24899697;9.864111;0.11492168
11:29:27:945;-0.24899697;9.864111;0.11492168
11:29:27:945;-0.24899697;9.864111;0.11492168
11:29:27:945;-0.24899697;9.864111;0.11492168
11:29:27:945;-0.24899697;9.864111;0.11492168
11:29:27:945;-0.24899697;9.864111;0.11492168
11:29:28:057;-0.38307226;9.940725;0.17238252
11:29:28:057;-0.38307226;9.940725;0.17238252
11:29:28:057;-0.38307226;9.940725;0.17238252
11:29:28:057;-0.38307226;9.940725;0.17238252
11:29:28:057;-0.38307226;9.940725;0.17238252
11:29:28:057;-0.38307226;9.940725;0.17238252
11:29:28:057;-0.38307226;9.940725;0.17238252
11:29:28:057;-0.38307226;9.940725;0.17238252
11:29:28:057;-0.38307226;9.940725;0.17238252
11:29:28:057;-0.38307226;9.940725;0.17238252
11:29:28:057;-0.38307226;9.940725;0.17238252
11:29:28:057;-0.38307226;9.940725;0.17238252
11:29:28:057;-0.38307226;9.940725;0.17238252
11:29:28:162;-0.38307226;9.9790325;0.19153613
11:29:28:162;-0.38307226;9.9790325;0.19153613
11:29:28:162;-0.38307226;9.9790325;0.19153613
11:29:28:162;-0.38307226;9.9790325;0.19153613
11:29:28:162;-0.38307226;9.9790325;0.19153613
11:29:28:162;-0.38307226;9.9790325;0.19153613
11:29:28:162;-0.38307226;9.9790325;0.19153613
11:29:28:162;-0.38307226;9.9790325;0.19153613
11:29:28:162;-0.38307226;9.9790325;0.19153613
11:29:28:162;-0.38307226;9.9790325;0.19153613
11:29:28:162;-0.38307226;9.9790325;0.19153613
11:29:28:162;-0.38307226;9.9790325;0.19153613
11:29:28:162;-0.38307226;9.9790325;0.19153613
11:29:28:162;-0.38307226;9.9790325;0.19153613
11:29:28:273;-0.2873042;9.864111;0.11492168
11:29:28:273;-0.2873042;9.864111;0.11492168
11:29:28:273;-0.2873042;9.864111;0.11492168
11:29:28:273;-0.2873042;9.864111;0.11492168
11:29:28:273;-0.2873042;9.864111;0.11492168
11:29:28:273;-0.2873042;9.864111;0.11492168
11:29:28:273;-0.2873042;9.864111;0.11492168
11:29:28:273;-0.2873042;9.864111;0.11492168
11:29:28:273;-0.2873042;9.864111;0.11492168
11:29:28:273;-0.2873042;9.864111;0.11492168
11:29:28:273;-0.2873042;9.864111;0.11492168
11:29:28:273;-0.2873042;9.864111;0.11492168
11:29:28:273;-0.2873042;9.864111;0.11492168
11:29:28:273;-0.2873042;9.864111;0.11492168
11:29:28:273;-0.2873042;9.864111;0.11492168
11:29:28:273;-0.2873042;9.864111;0.11492168
11:29:28:273;-0.2873042;9.864111;0.11492168
11:29:28:273;-0.2873042;9.864111;0.11492168
11:29:28:273;-0.2873042;9.864111;0.11492168
11:29:28:416;-0.19153613;10.01734;0.38307226
11:29:28:416;-0.19153613;10.01734;0.38307226
11:29:28:416;-0.19153613;10.01734;0.38307226
11:29:28:416;-0.19153613;10.01734;0.38307226
11:29:28:416;-0.19153613;10.01734;0.38307226
11:29:28:416;-0.19153613;10.01734;0.38307226
11:29:28:416;-0.19153613;10.01734;0.38307226
11:29:28:416;-0.19153613;10.01734;0.38307226
11:29:28:416;-0.19153613;10.01734;0.38307226
11:29:28:416;-0.19153613;10.01734;0.38307226
11:29:28:416;-0.19153613;10.01734;0.38307226
11:29:28:416;-0.19153613;10.01734;0.38307226
11:29:28:416;-0.19153613;10.01734;0.38307226
11:29:28:416;-0.19153613;10.01734;0.38307226
11:29:28:524;-0.40222588;10.093954;0.22984336
11:29:28:524;-0.40222588;10.093954;0.22984336
11:29:28:524;-0.40222588;10.093954;0.22984336
11:29:28:524;-0.40222588;10.093954;0.22984336
11:29:28:524;-0.40222588;10.093954;0.22984336
11:29:28:524;-0.40222588;10.093954;0.22984336
11:29:28:524;-0.40222588;10.093954;0.22984336
11:29:28:524;-0.40222588;10.093954;0.22984336
11:29:28:524;-0.40222588;10.093954;0.22984336
11:29:28:524;-0.40222588;10.093954;0.22984336
11:29:28:524;-0.40222588;10.093954;0.22984336
11:29:28:524;-0.40222588;10.093954;0.22984336
11:29:28:524;-0.40222588;10.093954;0.22984336
11:29:28:524;-0.40222588;10.093954;0.22984336
11:29:28:524;-0.40222588;10.093954;0.22984336
11:29:28:644;-0.40222588;9.864111;0.2681506
11:29:28:644;-0.40222588;9.864111;0.2681506
11:29:28:644;-0.40222588;9.864111;0.2681506
11:29:28:644;-0.40222588;9.864111;0.2681506
11:29:28:644;-0.40222588;9.864111;0.2681506
11:29:28:644;-0.40222588;9.864111;0.2681506
11:29:28:644;-0.40222588;9.864111;0.2681506
11:29:28:644;-0.40222588;9.864111;0.2681506
11:29:28:644;-0.40222588;9.864111;0.2681506
11:29:28:644;-0.40222588;9.864111;0.2681506
11:29:28:644;-0.40222588;9.864111;0.2681506
11:29:28:644;-0.40222588;9.864111;0.2681506
11:29:28:644;-0.40222588;9.864111;0.2681506
11:29:28:644;-0.40222588;9.864111;0.2681506
11:29:28:751;-0.40222588;10.113108;0.2681506
11:29:28:751;-0.40222588;10.113108;0.2681506
11:29:28:751;-0.40222588;10.113108;0.2681506
11:29:28:751;-0.40222588;10.113108;0.2681506
11:29:28:751;-0.40222588;10.113108;0.2681506
11:29:28:751;-0.40222588;10.113108;0.2681506
11:29:28:751;-0.40222588;10.113108;0.2681506
11:29:28:751;-0.40222588;10.113108;0.2681506
11:29:28:751;-0.40222588;10.113108;0.2681506
11:29:28:751;-0.40222588;10.113108;0.2681506
11:29:28:751;-0.40222588;10.113108;0.2681506
11:29:28:751;-0.40222588;10.113108;0.2681506
11:29:28:751;-0.40222588;10.113108;0.2681506
11:29:28:751;-0.40222588;10.113108;0.2681506
11:29:28:751;-0.40222588;10.113108;0.2681506
11:29:28:869;-0.2681506;9.864111;0.095768064
11:29:28:869;-0.2681506;9.864111;0.095768064
11:29:28:869;-0.2681506;9.864111;0.095768064
11:29:28:869;-0.2681506;9.864111;0.095768064
11:29:28:869;-0.2681506;9.864111;0.095768064
11:29:28:869;-0.2681506;9.864111;0.095768064
11:29:28:869;-0.2681506;9.864111;0.095768064
11:29:28:869;-0.2681506;9.864111;0.095768064
11:29:28:869;-0.2681506;9.864111;0.095768064
11:29:28:869;-0.2681506;9.864111;0.095768064
11:29:28:869;-0.2681506;9.864111;0.095768064
11:29:28:869;-0.2681506;9.864111;0.095768064
11:29:28:869;-0.2681506;9.864111;0.095768064
11:29:28:869;-0.2681506;9.864111;0.095768064
11:29:28:869;-0.2681506;9.864111;0.095768064
11:29:28:987;-0.2873042;9.902418;0.30645782
11:29:28:987;-0.2873042;9.902418;0.30645782
11:29:28:987;-0.2873042;9.902418;0.30645782
11:29:28:987;-0.2873042;9.902418;0.30645782
11:29:28:987;-0.2873042;9.902418;0.30645782
11:29:28:987;-0.2873042;9.902418;0.30645782
11:29:28:987;-0.2873042;9.902418;0.30645782
11:29:28:987;-0.2873042;9.902418;0.30645782
11:29:28:987;-0.2873042;9.902418;0.30645782
11:29:28:987;-0.2873042;9.902418;0.30645782
11:29:28:987;-0.2873042;9.902418;0.30645782
11:29:28:987;-0.2873042;9.902418;0.30645782
11:29:28:987;-0.2873042;9.902418;0.30645782
11:29:28:987;-0.2873042;9.902418;0.30645782
11:29:28:987;-0.2873042;9.902418;0.30645782
11:29:29:106;-0.4213795;10.01734;0.05746084
11:29:29:106;-0.4213795;10.01734;0.05746084
11:29:29:106;-0.4213795;10.01734;0.05746084
11:29:29:106;-0.4213795;10.01734;0.05746084
11:29:29:106;-0.4213795;10.01734;0.05746084
11:29:29:106;-0.4213795;10.01734;0.05746084
11:29:29:106;-0.4213795;10.01734;0.05746084
11:29:29:106;-0.4213795;10.01734;0.05746084
11:29:29:106;-0.4213795;10.01734;0.05746084
11:29:29:106;-0.4213795;10.01734;0.05746084
11:29:29:106;-0.4213795;10.01734;0.05746084
11:29:29:106;-0.4213795;10.01734;0.05746084
11:29:29:106;-0.4213795;10.01734;0.05746084
11:29:29:209;-0.2873042;9.959879;0.17238252
11:29:29:209;-0.2873042;9.959879;0.17238252
11:29:29:209;-0.2873042;9.959879;0.17238252
11:29:29:209;-0.2873042;9.959879;0.17238252
11:29:29:209;-0.2873042;9.959879;0.17238252
11:29:29:209;-0.2873042;9.959879;0.17238252
11:29:29:209;-0.2873042;9.959879;0.17238252
11:29:29:209;-0.2873042;9.959879;0.17238252
11:29:29:209;-0.2873042;9.959879;0.17238252
11:29:29:209;-0.2873042;9.959879;0.17238252
11:29:29:209;-0.2873042;9.959879;0.17238252
11:29:29:209;-0.2873042;9.959879;0.17238252
11:29:29:209;-0.2873042;9.959879;0.17238252
11:29:29:209;-0.2873042;9.959879;0.17238252
11:29:29:320;-0.4213795;9.959879;0.34476504
11:29:29:320;-0.4213795;9.959879;0.34476504
11:29:29:320;-0.4213795;9.959879;0.34476504
11:29:29:320;-0.4213795;9.959879;0.34476504
11:29:29:320;-0.4213795;9.959879;0.34476504
11:29:29:320;-0.4213795;9.959879;0.34476504
11:29:29:320;-0.4213795;9.959879;0.34476504
11:29:29:320;-0.4213795;9.959879;0.34476504
11:29:29:320;-0.4213795;9.959879;0.34476504
11:29:29:320;-0.4213795;9.959879;0.34476504
11:29:29:320;-0.4213795;9.959879;0.34476504
11:29:29:320;-0.4213795;9.959879;0.34476504
11:29:29:320;-0.4213795;9.959879;0.34476504
11:29:29:320;-0.4213795;9.959879;0.34476504
11:29:29:320;-0.4213795;9.959879;0.34476504
11:29:29:433;-0.40222588;10.036493;0.1340753
11:29:29:433;-0.40222588;10.036493;0.1340753
11:29:29:433;-0.40222588;10.036493;0.1340753
11:29:29:433;-0.40222588;10.036493;0.1340753
11:29:29:433;-0.40222588;10.036493;0.1340753
11:29:29:433;-0.40222588;10.036493;0.1340753
11:29:29:433;-0.40222588;10.036493;0.1340753
11:29:29:433;-0.40222588;10.036493;0.1340753
11:29:29:433;-0.40222588;10.036493;0.1340753
11:29:29:433;-0.40222588;10.036493;0.1340753
11:29:29:433;-0.40222588;10.036493;0.1340753
11:29:29:433;-0.40222588;10.036493;0.1340753
11:29:29:433;-0.40222588;10.036493;0.1340753
11:29:29:433;-0.40222588;10.036493;0.1340753
11:29:29:433;-0.40222588;10.036493;0.1340753
11:29:29:551;-0.38307226;9.80665;0.2873042
11:29:29:551;-0.38307226;9.80665;0.2873042
11:29:29:551;-0.38307226;9.80665;0.2873042
11:29:29:551;-0.38307226;9.80665;0.2873042
11:29:29:551;-0.38307226;9.80665;0.2873042
11:29:29:551;-0.38307226;9.80665;0.2873042
11:29:29:551;-0.38307226;9.80665;0.2873042
11:29:29:551;-0.38307226;9.80665;0.2873042
11:29:29:551;-0.38307226;9.80665;0.2873042
11:29:29:551;-0.38307226;9.80665;0.2873042
11:29:29:551;-0.38307226;9.80665;0.2873042
11:29:29:551;-0.38307226;9.80665;0.2873042
11:29:29:551;-0.38307226;9.80665;0.2873042
11:29:29:551;-0.38307226;9.80665;0.2873042
11:29:29:551;-0.38307226;9.80665;0.2873042
11:29:29:670;-0.22984336;10.01734;0.30645782
11:29:29:670;-0.22984336;10.01734;0.30645782
11:29:29:670;-0.22984336;10.01734;0.30645782
11:29:29:670;-0.22984336;10.01734;0.30645782
11:29:29:670;-0.22984336;10.01734;0.30645782
11:29:29:670;-0.22984336;10.01734;0.30645782
11:29:29:670;-0.22984336;10.01734;0.30645782
11:29:29:670;-0.22984336;10.01734;0.30645782
11:29:29:670;-0.22984336;10.01734;0.30645782
11:29:29:670;-0.22984336;10.01734;0.30645782
11:29:29:670;-0.22984336;10.01734;0.30645782
11:29:29:670;-0.22984336;10.01734;0.30645782
11:29:29:670;-0.22984336;10.01734;0.30645782
11:29:29:670;-0.22984336;10.01734;0.30645782
11:29:29:670;-0.22984336;10.01734;0.30645782
11:29:29:789;-0.49799395;10.0748005;0.17238252
11:29:29:789;-0.49799395;10.0748005;0.17238252
11:29:29:789;-0.49799395;10.0748005;0.17238252
11:29:29:789;-0.49799395;10.0748005;0.17238252
11:29:29:789;-0.49799395;10.0748005;0.17238252
11:29:29:789;-0.49799395;10.0748005;0.17238252
11:29:29:789;-0.49799395;10.0748005;0.17238252
11:29:29:789;-0.49799395;10.0748005;0.17238252
11:29:29:789;-0.49799395;10.0748005;0.17238252
11:29:29:789;-0.49799395;10.0748005;0.17238252
11:29:29:789;-0.49799395;10.0748005;0.17238252
11:29:29:789;-0.49799395;10.0748005;0.17238252
11:29:29:789;-0.49799395;10.0748005;0.17238252
11:29:29:789;-0.49799395;10.0748005;0.17238252
11:29:29:894;-0.22984336;9.940725;0.019153614
11:29:29:894;-0.22984336;9.940725;0.019153614
11:29:29:894;-0.22984336;9.940725;0.019153614
11:29:29:894;-0.22984336;9.940725;0.019153614
11:29:29:894;-0.22984336;9.940725;0.019153614
11:29:29:894;-0.22984336;9.940725;0.019153614
11:29:29:894;-0.22984336;9.940725;0.019153614
11:29:29:894;-0.22984336;9.940725;0.019153614
11:29:29:894;-0.22984336;9.940725;0.019153614
11:29:29:894;-0.22984336;9.940725;0.019153614
11:29:29:894;-0.22984336;9.940725;0.019153614
11:29:29:894;-0.22984336;9.940725;0.019153614
11:29:29:894;-0.22984336;9.940725;0.019153614
11:29:29:995;-0.38307226;10.055647;0.21068975
11:29:29:995;-0.38307226;10.055647;0.21068975
11:29:29:995;-0.38307226;10.055647;0.21068975
11:29:29:995;-0.38307226;10.055647;0.21068975
11:29:29:995;-0.38307226;10.055647;0.21068975
11:29:29:995;-0.38307226;10.055647;0.21068975
11:29:29:995;-0.38307226;10.055647;0.21068975
11:29:29:995;-0.38307226;10.055647;0.21068975
11:29:29:995;-0.38307226;10.055647;0.21068975
11:29:29:995;-0.38307226;10.055647;0.21068975
11:29:29:995;-0.38307226;10.055647;0.21068975
11:29:29:995;-0.38307226;10.055647;0.21068975
11:29:29:995;-0.38307226;10.055647;0.21068975
11:29:29:995;-0.38307226;10.055647;0.21068975
11:29:29:995;-0.38307226;10.055647;0.21068975
11:29:30:112;-0.40222588;9.9790325;0.30645782
11:29:30:112;-0.40222588;9.9790325;0.30645782
11:29:30:112;-0.40222588;9.9790325;0.30645782
11:29:30:112;-0.40222588;9.9790325;0.30645782
11:29:30:112;-0.40222588;9.9790325;0.30645782
11:29:30:112;-0.40222588;9.9790325;0.30645782
11:29:30:112;-0.40222588;9.9790325;0.30645782
11:29:30:112;-0.40222588;9.9790325;0.30645782
11:29:30:112;-0.40222588;9.9790325;0.30645782
11:29:30:112;-0.40222588;9.9790325;0.30645782
11:29:30:112;-0.40222588;9.9790325;0.30645782
11:29:30:112;-0.40222588;9.9790325;0.30645782
11:29:30:112;-0.40222588;9.9790325;0.30645782
11:29:30:215;-0.2681506;9.921572;0.05746084
11:29:30:215;-0.2681506;9.921572;0.05746084
11:29:30:215;-0.2681506;9.921572;0.05746084
11:29:30:215;-0.2681506;9.921572;0.05746084
11:29:30:215;-0.2681506;9.921572;0.05746084
11:29:30:215;-0.2681506;9.921572;0.05746084
11:29:30:215;-0.2681506;9.921572;0.05746084
11:29:30:215;-0.2681506;9.921572;0.05746084
11:29:30:215;-0.2681506;9.921572;0.05746084
11:29:30:215;-0.2681506;9.921572;0.05746084
11:29:30:215;-0.2681506;9.921572;0.05746084
11:29:30:215;-0.2681506;9.921572;0.05746084
11:29:30:215;-0.2681506;9.921572;0.05746084
11:29:30:318;-0.40222588;10.093954;0.36391866
11:29:30:318;-0.40222588;10.093954;0.36391866
11:29:30:318;-0.40222588;10.093954;0.36391866
11:29:30:318;-0.40222588;10.093954;0.36391866
11:29:30:318;-0.40222588;10.093954;0.36391866
11:29:30:318;-0.40222588;10.093954;0.36391866
11:29:30:318;-0.40222588;10.093954;0.36391866
11:29:30:318;-0.40222588;10.093954;0.36391866
11:29:30:318;-0.40222588;10.093954;0.36391866
11:29:30:318;-0.40222588;10.093954;0.36391866
11:29:30:318;-0.40222588;10.093954;0.36391866
11:29:30:318;-0.40222588;10.093954;0.36391866
11:29:30:318;-0.40222588;10.093954;0.36391866
11:29:30:419;-0.15322891;9.921572;0.17238252
11:29:30:419;-0.15322891;9.921572;0.17238252
11:29:30:419;-0.15322891;9.921572;0.17238252
11:29:30:419;-0.15322891;9.921572;0.17238252
11:29:30:419;-0.15322891;9.921572;0.17238252
11:29:30:419;-0.15322891;9.921572;0.17238252
11:29:30:419;-0.15322891;9.921572;0.17238252
11:29:30:419;-0.15322891;9.921572;0.17238252
11:29:30:419;-0.15322891;9.921572;0.17238252
11:29:30:419;-0.15322891;9.921572;0.17238252
11:29:30:419;-0.15322891;9.921572;0.17238252
11:29:30:419;-0.15322891;9.921572;0.17238252
11:29:30:419;-0.15322891;9.921572;0.17238252
11:29:30:419;-0.15322891;9.921572;0.17238252
11:29:30:419;-0.15322891;9.921572;0.17238252
11:29:30:419;-0.15322891;9.921572;0.17238252
11:29:30:419;-0.15322891;9.921572;0.17238252
11:29:30:419;-0.15322891;9.921572;0.17238252
11:29:30:419;-0.15322891;9.921572;0.17238252
11:29:30:563;-0.4213795;10.036493;0.19153613
11:29:30:563;-0.4213795;10.036493;0.19153613
11:29:30:563;-0.4213795;10.036493;0.19153613
11:29:30:563;-0.4213795;10.036493;0.19153613
11:29:30:563;-0.4213795;10.036493;0.19153613
11:29:30:563;-0.4213795;10.036493;0.19153613
11:29:30:563;-0.4213795;10.036493;0.19153613
11:29:30:563;-0.4213795;10.036493;0.19153613
11:29:30:563;-0.4213795;10.036493;0.19153613
11:29:30:563;-0.4213795;10.036493;0.19153613
11:29:30:563;-0.4213795;10.036493;0.19153613
11:29:30:563;-0.4213795;10.036493;0.19153613
11:29:30:563;-0.4213795;10.036493;0.19153613
11:29:30:563;-0.4213795;10.036493;0.19153613
11:29:30:677;-0.38307226;9.998186;0.2681506
11:29:30:677;-0.38307226;9.998186;0.2681506
11:29:30:677;-0.38307226;9.998186;0.2681506
11:29:30:677;-0.38307226;9.998186;0.2681506
11:29:30:677;-0.38307226;9.998186;0.2681506
11:29:30:677;-0.38307226;9.998186;0.2681506
11:29:30:677;-0.38307226;9.998186;0.2681506
11:29:30:677;-0.38307226;9.998186;0.2681506
11:29:30:677;-0.38307226;9.998186;0.2681506
11:29:30:677;-0.38307226;9.998186;0.2681506
11:29:30:677;-0.38307226;9.998186;0.2681506
11:29:30:677;-0.38307226;9.998186;0.2681506
11:29:30:677;-0.38307226;9.998186;0.2681506
11:29:30:677;-0.38307226;9.998186;0.2681506
11:29:30:677;-0.38307226;9.998186;0.2681506
11:29:30:795;-0.45968673;10.093954;0.2873042
11:29:30:795;-0.45968673;10.093954;0.2873042
11:29:30:795;-0.45968673;10.093954;0.2873042
11:29:30:795;-0.45968673;10.093954;0.2873042
11:29:30:795;-0.45968673;10.093954;0.2873042
11:29:30:795;-0.45968673;10.093954;0.2873042
11:29:30:795;-0.45968673;10.093954;0.2873042
11:29:30:795;-0.45968673;10.093954;0.2873042
11:29:30:795;-0.45968673;10.093954;0.2873042
11:29:30:795;-0.45968673;10.093954;0.2873042
11:29:30:795;-0.45968673;10.093954;0.2873042
11:29:30:795;-0.45968673;10.093954;0.2873042
11:29:30:795;-0.45968673;10.093954;0.2873042
11:29:30:897;-0.2681506;9.902418;0.38307226
11:29:30:897;-0.2681506;9.902418;0.38307226
11:29:30:897;-0.2681506;9.902418;0.38307226
11:29:30:897;-0.2681506;9.902418;0.38307226
11:29:30:897;-0.2681506;9.902418;0.38307226
11:29:30:897;-0.2681506;9.902418;0.38307226
11:29:30:897;-0.2681506;9.902418;0.38307226
11:29:30:897;-0.2681506;9.902418;0.38307226
11:29:30:897;-0.2681506;9.902418;0.38307226
11:29:30:897;-0.2681506;9.902418;0.38307226
11:29:30:897;-0.2681506;9.902418;0.38307226
11:29:30:897;-0.2681506;9.902418;0.38307226
11:29:30:897;-0.2681506;9.902418;0.38307226
11:29:30:897;-0.2681506;9.902418;0.38307226
11:29:30:897;-0.2681506;9.902418;0.38307226
11:29:30:897;-0.2681506;9.902418;0.38307226
11:29:31:019;-0.22984336;9.959879;0.15322891
11:29:31:019;-0.22984336;9.959879;0.15322891
11:29:31:019;-0.22984336;9.959879;0.15322891
11:29:31:019;-0.22984336;9.959879;0.15322891
11:29:31:019;-0.22984336;9.959879;0.15322891
11:29:31:019;-0.22984336;9.959879;0.15322891
11:29:31:019;-0.22984336;9.959879;0.15322891
11:29:31:019;-0.22984336;9.959879;0.15322891
11:29:31:019;-0.22984336;9.959879;0.15322891
11:29:31:019;-0.22984336;9.959879;0.15322891
11:29:31:019;-0.22984336;9.959879;0.15322891
11:29:31:019;-0.22984336;9.959879;0.15322891
11:29:31:019;-0.22984336;9.959879;0.15322891
11:29:31:019;-0.22984336;9.959879;0.15322891
11:29:31:019;-0.22984336;9.959879;0.15322891
11:29:31:138;-0.30645782;9.921572;0.21068975
11:29:31:138;-0.30645782;9.921572;0.21068975
11:29:31:138;-0.30645782;9.921572;0.21068975
11:29:31:138;-0.30645782;9.921572;0.21068975
11:29:31:138;-0.30645782;9.921572;0.21068975
11:29:31:138;-0.30645782;9.921572;0.21068975
11:29:31:138;-0.30645782;9.921572;0.21068975
11:29:31:138;-0.30645782;9.921572;0.21068975
11:29:31:138;-0.30645782;9.921572;0.21068975
11:29:31:138;-0.30645782;9.921572;0.21068975
11:29:31:138;-0.30645782;9.921572;0.21068975
11:29:31:138;-0.30645782;9.921572;0.21068975
11:29:31:138;-0.30645782;9.921572;0.21068975
11:29:31:138;-0.30645782;9.921572;0.21068975
11:29:31:138;-0.30645782;9.921572;0.21068975
11:29:31:251;-0.19153613;10.01734;0.22984336
11:29:31:251;-0.19153613;10.01734;0.22984336
11:29:31:251;-0.19153613;10.01734;0.22984336
11:29:31:251;-0.19153613;10.01734;0.22984336
11:29:31:251;-0.19153613;10.01734;0.22984336
11:29:31:251;-0.19153613;10.01734;0.22984336
11:29:31:251;-0.19153613;10.01734;0.22984336
11:29:31:251;-0.19153613;10.01734;0.22984336
11:29:31:251;-0.19153613;10.01734;0.22984336
11:29:31:251;-0.19153613;10.01734;0.22984336
11:29:31:251;-0.19153613;10.01734;0.22984336
11:29:31:251;-0.19153613;10.01734;0.22984336
11:29:31:251;-0.19153613;10.01734;0.22984336
11:29:31:353;-0.40222588;10.132261;0.1340753
11:29:31:353;-0.40222588;10.132261;0.1340753
11:29:31:353;-0.40222588;10.132261;0.1340753
11:29:31:353;-0.40222588;10.132261;0.1340753
11:29:31:353;-0.40222588;10.132261;0.1340753
11:29:31:353;-0.40222588;10.132261;0.1340753
11:29:31:353;-0.40222588;10.132261;0.1340753
11:29:31:353;-0.40222588;10.132261;0.1340753
11:29:31:353;-0.40222588;10.132261;0.1340753
11:29:31:353;-0.40222588;10.132261;0.1340753
11:29:31:353;-0.40222588;10.132261;0.1340753
11:29:31:353;-0.40222588;10.132261;0.1340753
11:29:31:353;-0.40222588;10.132261;0.1340753
11:29:31:353;-0.40222588;10.132261;0.1340753
11:29:31:353;-0.40222588;10.132261;0.1340753
11:29:31:472;-0.34476504;9.9790325;0.2873042
11:29:31:472;-0.34476504;9.9790325;0.2873042
11:29:31:472;-0.34476504;9.9790325;0.2873042
11:29:31:472;-0.34476504;9.9790325;0.2873042
11:29:31:472;-0.34476504;9.9790325;0.2873042
11:29:31:472;-0.34476504;9.9790325;0.2873042
11:29:31:472;-0.34476504;9.9790325;0.2873042
11:29:31:472;-0.34476504;9.9790325;0.2873042
11:29:31:472;-0.34476504;9.9790325;0.2873042
11:29:31:472;-0.34476504;9.9790325;0.2873042
11:29:31:472;-0.34476504;9.9790325;0.2873042
11:29:31:472;-0.34476504;9.9790325;0.2873042
11:29:31:472;-0.34476504;9.9790325;0.2873042
11:29:31:472;-0.34476504;9.9790325;0.2873042
11:29:31:472;-0.34476504;9.9790325;0.2873042
11:29:31:589;-0.4213795;10.036493;0.2681506
11:29:31:589;-0.4213795;10.036493;0.2681506
11:29:31:589;-0.4213795;10.036493;0.2681506
11:29:31:589;-0.4213795;10.036493;0.2681506
11:29:31:589;-0.4213795;10.036493;0.2681506
11:29:31:589;-0.4213795;10.036493;0.2681506
11:29:31:589;-0.4213795;10.036493;0.2681506
11:29:31:589;-0.4213795;10.036493;0.2681506
11:29:31:589;-0.4213795;10.036493;0.2681506
11:29:31:589;-0.4213795;10.036493;0.2681506
11:29:31:589;-0.4213795;10.036493;0.2681506
11:29:31:589;-0.4213795;10.036493;0.2681506
11:29:31:589;-0.4213795;10.036493;0.2681506
11:29:31:589;-0.4213795;10.036493;0.2681506
11:29:31:699;-0.4213795;9.959879;0.36391866
11:29:31:699;-0.4213795;9.959879;0.36391866
11:29:31:699;-0.4213795;9.959879;0.36391866
11:29:31:699;-0.4213795;9.959879;0.36391866
11:29:31:699;-0.4213795;9.959879;0.36391866
11:29:31:699;-0.4213795;9.959879;0.36391866
11:29:31:699;-0.4213795;9.959879;0.36391866
11:29:31:699;-0.4213795;9.959879;0.36391866
11:29:31:699;-0.4213795;9.959879;0.36391866
11:29:31:699;-0.4213795;9.959879;0.36391866
11:29:31:699;-0.4213795;9.959879;0.36391866
11:29:31:699;-0.4213795;9.959879;0.36391866
11:29:31:699;-0.4213795;9.959879;0.36391866
11:29:31:699;-0.4213795;9.959879;0.36391866
11:29:31:810;-0.15322891;9.959879;0.21068975
11:29:31:810;-0.15322891;9.959879;0.21068975
11:29:31:810;-0.15322891;9.959879;0.21068975
11:29:31:810;-0.15322891;9.959879;0.21068975
11:29:31:810;-0.15322891;9.959879;0.21068975
11:29:31:810;-0.15322891;9.959879;0.21068975
11:29:31:810;-0.15322891;9.959879;0.21068975
11:29:31:810;-0.15322891;9.959879;0.21068975
11:29:31:810;-0.15322891;9.959879;0.21068975
11:29:31:810;-0.15322891;9.959879;0.21068975
11:29:31:810;-0.15322891;9.959879;0.21068975
11:29:31:810;-0.15322891;9.959879;0.21068975
11:29:31:810;-0.15322891;9.959879;0.21068975
11:29:31:810;-0.15322891;9.959879;0.21068975
11:29:31:810;-0.15322891;9.959879;0.21068975
11:29:31:810;-0.15322891;9.959879;0.21068975
11:29:31:810;-0.15322891;9.959879;0.21068975
11:29:31:810;-0.15322891;9.959879;0.21068975
11:29:31:946;-0.4213795;9.902418;0.2873042
11:29:31:946;-0.4213795;9.902418;0.2873042
11:29:31:946;-0.4213795;9.902418;0.2873042
11:29:31:946;-0.4213795;9.902418;0.2873042
11:29:31:946;-0.4213795;9.902418;0.2873042
11:29:31:946;-0.4213795;9.902418;0.2873042
11:29:31:946;-0.4213795;9.902418;0.2873042
11:29:31:946;-0.4213795;9.902418;0.2873042
11:29:31:946;-0.4213795;9.902418;0.2873042
11:29:31:946;-0.4213795;9.902418;0.2873042
11:29:31:946;-0.4213795;9.902418;0.2873042
11:29:31:946;-0.4213795;9.902418;0.2873042
11:29:31:946;-0.4213795;9.902418;0.2873042
11:29:31:946;-0.4213795;9.902418;0.2873042
11:29:32:055;-0.15322891;9.902418;0.11492168
11:29:32:055;-0.15322891;9.902418;0.11492168
11:29:32:055;-0.15322891;9.902418;0.11492168
11:29:32:055;-0.15322891;9.902418;0.11492168
11:29:32:055;-0.15322891;9.902418;0.11492168
11:29:32:055;-0.15322891;9.902418;0.11492168
11:29:32:055;-0.15322891;9.902418;0.11492168
11:29:32:055;-0.15322891;9.902418;0.11492168
11:29:32:055;-0.15322891;9.902418;0.11492168
11:29:32:055;-0.15322891;9.902418;0.11492168
11:29:32:055;-0.15322891;9.902418;0.11492168
11:29:32:055;-0.15322891;9.902418;0.11492168
11:29:32:055;-0.15322891;9.902418;0.11492168
11:29:32:055;-0.15322891;9.902418;0.11492168
11:29:32:055;-0.15322891;9.902418;0.11492168
11:29:32:055;-0.15322891;9.902418;0.11492168
11:29:32:182;-0.21068975;9.998186;0.30645782
11:29:32:182;-0.21068975;9.998186;0.30645782
11:29:32:182;-0.21068975;9.998186;0.30645782
11:29:32:182;-0.21068975;9.998186;0.30645782
11:29:32:182;-0.21068975;9.998186;0.30645782
11:29:32:182;-0.21068975;9.998186;0.30645782
11:29:32:182;-0.21068975;9.998186;0.30645782
11:29:32:182;-0.21068975;9.998186;0.30645782
11:29:32:182;-0.21068975;9.998186;0.30645782
11:29:32:182;-0.21068975;9.998186;0.30645782
11:29:32:182;-0.21068975;9.998186;0.30645782
11:29:32:182;-0.21068975;9.998186;0.30645782
11:29:32:182;-0.21068975;9.998186;0.30645782
11:29:32:285;-0.2873042;10.01734;0.1340753
11:29:32:285;-0.2873042;10.01734;0.1340753
11:29:32:285;-0.2873042;10.01734;0.1340753
11:29:32:285;-0.2873042;10.01734;0.1340753
11:29:32:285;-0.2873042;10.01734;0.1340753
11:29:32:285;-0.2873042;10.01734;0.1340753
11:29:32:285;-0.2873042;10.01734;0.1340753
11:29:32:285;-0.2873042;10.01734;0.1340753
11:29:32:285;-0.2873042;10.01734;0.1340753
11:29:32:285;-0.2873042;10.01734;0.1340753
11:29:32:285;-0.2873042;10.01734;0.1340753
11:29:32:285;-0.2873042;10.01734;0.1340753
11:29:32:285;-0.2873042;10.01734;0.1340753
11:29:32:285;-0.2873042;10.01734;0.1340753
11:29:32:396;-0.19153613;9.998186;0.21068975
11:29:32:396;-0.19153613;9.998186;0.21068975
11:29:32:396;-0.19153613;9.998186;0.21068975
11:29:32:396;-0.19153613;9.998186;0.21068975
11:29:32:396;-0.19153613;9.998186;0.21068975
11:29:32:396;-0.19153613;9.998186;0.21068975
11:29:32:396;-0.19153613;9.998186;0.21068975
11:29:32:396;-0.19153613;9.998186;0.21068975
11:29:32:396;-0.19153613;9.998186;0.21068975
11:29:32:396;-0.19153613;9.998186;0.21068975
11:29:32:396;-0.19153613;9.998186;0.21068975
11:29:32:396;-0.19153613;9.998186;0.21068975
11:29:32:396;-0.19153613;9.998186;0.21068975
11:29:32:396;-0.19153613;9.998186;0.21068975
11:29:32:501;-0.2873042;9.940725;0.19153613
11:29:32:501;-0.2873042;9.940725;0.19153613
11:29:32:501;-0.2873042;9.940725;0.19153613
11:29:32:501;-0.2873042;9.940725;0.19153613
11:29:32:501;-0.2873042;9.940725;0.19153613
11:29:32:501;-0.2873042;9.940725;0.19153613
11:29:32:501;-0.2873042;9.940725;0.19153613
11:29:32:501;-0.2873042;9.940725;0.19153613
11:29:32:501;-0.2873042;9.940725;0.19153613
11:29:32:501;-0.2873042;9.940725;0.19153613
11:29:32:501;-0.2873042;9.940725;0.19153613
11:29:32:501;-0.2873042;9.940725;0.19153613
11:29:32:501;-0.2873042;9.940725;0.19153613
11:29:32:501;-0.2873042;9.940725;0.19153613
11:29:32:501;-0.2873042;9.940725;0.19153613
11:29:32:619;-0.21068975;9.9790325;0.30645782
11:29:32:619;-0.21068975;9.9790325;0.30645782
11:29:32:619;-0.21068975;9.9790325;0.30645782
11:29:32:619;-0.21068975;9.9790325;0.30645782
11:29:32:619;-0.21068975;9.9790325;0.30645782
11:29:32:619;-0.21068975;9.9790325;0.30645782
11:29:32:619;-0.21068975;9.9790325;0.30645782
11:29:32:619;-0.21068975;9.9790325;0.30645782
11:29:32:619;-0.21068975;9.9790325;0.30645782
11:29:32:619;-0.21068975;9.9790325;0.30645782
11:29:32:619;-0.21068975;9.9790325;0.30645782
11:29:32:619;-0.21068975;9.9790325;0.30645782
11:29:32:619;-0.21068975;9.9790325;0.30645782
11:29:32:619;-0.21068975;9.9790325;0.30645782
11:29:32:619;-0.21068975;9.9790325;0.30645782
11:29:32:619;-0.21068975;9.9790325;0.30645782
11:29:32:619;-0.21068975;9.9790325;0.30645782
11:29:32:619;-0.21068975;9.9790325;0.30645782
11:29:32:619;-0.21068975;9.9790325;0.30645782
11:29:32:619;-0.21068975;9.9790325;0.30645782
11:29:32:619;-0.21068975;9.9790325;0.30645782
11:29:32:619;-0.21068975;9.9790325;0.30645782
11:29:32:619;-0.21068975;9.9790325;0.30645782
11:29:32:619;-0.21068975;9.9790325;0.30645782
11:29:32:619;-0.21068975;9.9790325;0.30645782
11:29:32:619;-0.21068975;9.9790325;0.30645782
11:29:32:619;-0.21068975;9.9790325;0.30645782
11:29:32:619;-0.21068975;9.9790325;0.30645782
11:29:32:619;-0.21068975;9.9790325;0.30645782
11:29:32:619;-0.21068975;9.9790325;0.30645782
11:29:32:619;-0.21068975;9.9790325;0.30645782
11:29:32:860;-0.32561144;9.9790325;0.1340753
11:29:32:860;-0.32561144;9.9790325;0.1340753
11:29:32:860;-0.32561144;9.9790325;0.1340753
11:29:32:860;-0.32561144;9.9790325;0.1340753
11:29:32:860;-0.32561144;9.9790325;0.1340753
11:29:32:860;-0.32561144;9.9790325;0.1340753
11:29:32:860;-0.32561144;9.9790325;0.1340753
11:29:32:860;-0.32561144;9.9790325;0.1340753
11:29:32:860;-0.32561144;9.9790325;0.1340753
11:29:32:860;-0.32561144;9.9790325;0.1340753
11:29:32:860;-0.32561144;9.9790325;0.1340753
11:29:32:860;-0.32561144;9.9790325;0.1340753
11:29:32:860;-0.32561144;9.9790325;0.1340753
11:29:32:860;-0.32561144;9.9790325;0.1340753
11:29:32:860;-0.32561144;9.9790325;0.1340753
11:29:32:978;-0.19153613;10.055647;0.21068975
11:29:32:978;-0.19153613;10.055647;0.21068975
11:29:32:978;-0.19153613;10.055647;0.21068975
11:29:32:978;-0.19153613;10.055647;0.21068975
11:29:32:978;-0.19153613;10.055647;0.21068975
11:29:32:978;-0.19153613;10.055647;0.21068975
11:29:32:978;-0.19153613;10.055647;0.21068975
11:29:32:978;-0.19153613;10.055647;0.21068975
11:29:32:978;-0.19153613;10.055647;0.21068975
11:29:32:978;-0.19153613;10.055647;0.21068975
11:29:32:978;-0.19153613;10.055647;0.21068975
11:29:32:978;-0.19153613;10.055647;0.21068975
11:29:32:978;-0.19153613;10.055647;0.21068975
11:29:33:082;-0.2873042;10.036493;0.19153613
11:29:33:082;-0.2873042;10.036493;0.19153613
11:29:33:082;-0.2873042;10.036493;0.19153613
11:29:33:082;-0.2873042;10.036493;0.19153613
11:29:33:082;-0.2873042;10.036493;0.19153613
11:29:33:082;-0.2873042;10.036493;0.19153613
11:29:33:082;-0.2873042;10.036493;0.19153613
11:29:33:082;-0.2873042;10.036493;0.19153613
11:29:33:082;-0.2873042;10.036493;0.19153613
11:29:33:082;-0.2873042;10.036493;0.19153613
11:29:33:082;-0.2873042;10.036493;0.19153613
11:29:33:082;-0.2873042;10.036493;0.19153613
11:29:33:082;-0.2873042;10.036493;0.19153613
11:29:33:082;-0.2873042;10.036493;0.19153613
11:29:33:195;-0.40222588;9.9790325;0.24899697
11:29:33:195;-0.40222588;9.9790325;0.24899697
11:29:33:195;-0.40222588;9.9790325;0.24899697
11:29:33:195;-0.40222588;9.9790325;0.24899697
11:29:33:195;-0.40222588;9.9790325;0.24899697
11:29:33:195;-0.40222588;9.9790325;0.24899697
11:29:33:195;-0.40222588;9.9790325;0.24899697
11:29:33:195;-0.40222588;9.9790325;0.24899697
11:29:33:195;-0.40222588;9.9790325;0.24899697
11:29:33:195;-0.40222588;9.9790325;0.24899697
11:29:33:195;-0.40222588;9.9790325;0.24899697
11:29:33:195;-0.40222588;9.9790325;0.24899697
11:29:33:195;-0.40222588;9.9790325;0.24899697
11:29:33:195;-0.40222588;9.9790325;0.24899697
11:29:33:195;-0.40222588;9.9790325;0.24899697
11:29:33:308;-0.45968673;10.0748005;0.2873042
11:29:33:308;-0.45968673;10.0748005;0.2873042
11:29:33:308;-0.45968673;10.0748005;0.2873042
11:29:33:308;-0.45968673;10.0748005;0.2873042
11:29:33:308;-0.45968673;10.0748005;0.2873042
11:29:33:308;-0.45968673;10.0748005;0.2873042
11:29:33:308;-0.45968673;10.0748005;0.2873042
11:29:33:308;-0.45968673;10.0748005;0.2873042
11:29:33:308;-0.45968673;10.0748005;0.2873042
11:29:33:308;-0.45968673;10.0748005;0.2873042
11:29:33:308;-0.45968673;10.0748005;0.2873042
11:29:33:308;-0.45968673;10.0748005;0.2873042
11:29:33:308;-0.45968673;10.0748005;0.2873042
11:29:33:308;-0.45968673;10.0748005;0.2873042
11:29:33:308;-0.45968673;10.0748005;0.2873042
11:29:33:308;-0.45968673;10.0748005;0.2873042
11:29:33:308;-0.45968673;10.0748005;0.2873042
11:29:33:441;-0.21068975;10.01734;0.1340753
11:29:33:441;-0.21068975;10.01734;0.1340753
11:29:33:441;-0.21068975;10.01734;0.1340753
11:29:33:441;-0.21068975;10.01734;0.1340753
11:29:33:441;-0.21068975;10.01734;0.1340753
11:29:33:441;-0.21068975;10.01734;0.1340753
11:29:33:441;-0.21068975;10.01734;0.1340753
11:29:33:441;-0.21068975;10.01734;0.1340753
11:29:33:441;-0.21068975;10.01734;0.1340753
11:29:33:441;-0.21068975;10.01734;0.1340753
11:29:33:441;-0.21068975;10.01734;0.1340753
11:29:33:441;-0.21068975;10.01734;0.1340753
11:29:33:441;-0.21068975;10.01734;0.1340753
11:29:33:441;-0.21068975;10.01734;0.1340753
11:29:33:549;-0.30645782;9.844957;0.095768064
11:29:33:549;-0.30645782;9.844957;0.095768064
11:29:33:549;-0.30645782;9.844957;0.095768064
11:29:33:549;-0.30645782;9.844957;0.095768064
11:29:33:549;-0.30645782;9.844957;0.095768064
11:29:33:549;-0.30645782;9.844957;0.095768064
11:29:33:549;-0.30645782;9.844957;0.095768064
11:29:33:549;-0.30645782;9.844957;0.095768064
11:29:33:549;-0.30645782;9.844957;0.095768064
11:29:33:549;-0.30645782;9.844957;0.095768064
11:29:33:549;-0.30645782;9.844957;0.095768064
11:29:33:549;-0.30645782;9.844957;0.095768064
11:29:33:549;-0.30645782;9.844957;0.095768064
11:29:33:656;-0.19153613;9.902418;0.24899697
11:29:33:656;-0.19153613;9.902418;0.24899697
11:29:33:656;-0.19153613;9.902418;0.24899697
11:29:33:656;-0.19153613;9.902418;0.24899697
11:29:33:656;-0.19153613;9.902418;0.24899697
11:29:33:656;-0.19153613;9.902418;0.24899697
11:29:33:656;-0.19153613;9.902418;0.24899697
11:29:33:656;-0.19153613;9.902418;0.24899697
11:29:33:656;-0.19153613;9.902418;0.24899697
11:29:33:656;-0.19153613;9.902418;0.24899697
11:29:33:656;-0.19153613;9.902418;0.24899697
11:29:33:656;-0.19153613;9.902418;0.24899697
11:29:33:656;-0.19153613;9.902418;0.24899697
11:29:33:656;-0.19153613;9.902418;0.24899697
11:29:33:656;-0.19153613;9.902418;0.24899697
11:29:33:656;-0.19153613;9.902418;0.24899697
11:29:33:656;-0.19153613;9.902418;0.24899697
11:29:33:656;-0.19153613;9.902418;0.24899697
11:29:33:790;-0.38307226;9.9790325;0.22984336
11:29:33:790;-0.38307226;9.9790325;0.22984336
11:29:33:790;-0.38307226;9.9790325;0.22984336
11:29:33:790;-0.38307226;9.9790325;0.22984336
11:29:33:790;-0.38307226;9.9790325;0.22984336
11:29:33:790;-0.38307226;9.9790325;0.22984336
11:29:33:790;-0.38307226;9.9790325;0.22984336
11:29:33:790;-0.38307226;9.9790325;0.22984336
11:29:33:790;-0.38307226;9.9790325;0.22984336
11:29:33:790;-0.38307226;9.9790325;0.22984336
11:29:33:790;-0.38307226;9.9790325;0.22984336
11:29:33:790;-0.38307226;9.9790325;0.22984336
11:29:33:790;-0.38307226;9.9790325;0.22984336
11:29:33:892;-0.17238252;9.921572;0.1340753
11:29:33:892;-0.17238252;9.921572;0.1340753
11:29:33:892;-0.17238252;9.921572;0.1340753
11:29:33:892;-0.17238252;9.921572;0.1340753
11:29:33:892;-0.17238252;9.921572;0.1340753
11:29:33:892;-0.17238252;9.921572;0.1340753
11:29:33:892;-0.17238252;9.921572;0.1340753
11:29:33:892;-0.17238252;9.921572;0.1340753
11:29:33:892;-0.17238252;9.921572;0.1340753
11:29:33:892;-0.17238252;9.921572;0.1340753
11:29:33:892;-0.17238252;9.921572;0.1340753
11:29:33:892;-0.17238252;9.921572;0.1340753
11:29:33:892;-0.17238252;9.921572;0.1340753
11:29:33:892;-0.17238252;9.921572;0.1340753
11:29:33:892;-0.17238252;9.921572;0.1340753
11:29:33:892;-0.17238252;9.921572;0.1340753
11:29:33:892;-0.17238252;9.921572;0.1340753
11:29:33:892;-0.17238252;9.921572;0.1340753
11:29:33:892;-0.17238252;9.921572;0.1340753
11:29:34:043;-0.30645782;9.998186;0.2681506
11:29:34:043;-0.30645782;9.998186;0.2681506
11:29:34:043;-0.30645782;9.998186;0.2681506
11:29:34:043;-0.30645782;9.998186;0.2681506
11:29:34:043;-0.30645782;9.998186;0.2681506
11:29:34:043;-0.30645782;9.998186;0.2681506
11:29:34:043;-0.30645782;9.998186;0.2681506
11:29:34:043;-0.30645782;9.998186;0.2681506
11:29:34:043;-0.30645782;9.998186;0.2681506
11:29:34:043;-0.30645782;9.998186;0.2681506
11:29:34:043;-0.30645782;9.998186;0.2681506
11:29:34:043;-0.30645782;9.998186;0.2681506
11:29:34:043;-0.30645782;9.998186;0.2681506
11:29:34:043;-0.30645782;9.998186;0.2681506
11:29:34:149;-0.36391866;10.01734;0.24899697
11:29:34:149;-0.36391866;10.01734;0.24899697
11:29:34:149;-0.36391866;10.01734;0.24899697
11:29:34:149;-0.36391866;10.01734;0.24899697
11:29:34:149;-0.36391866;10.01734;0.24899697
11:29:34:149;-0.36391866;10.01734;0.24899697
11:29:34:149;-0.36391866;10.01734;0.24899697
11:29:34:149;-0.36391866;10.01734;0.24899697
11:29:34:149;-0.36391866;10.01734;0.24899697
11:29:34:149;-0.36391866;10.01734;0.24899697
11:29:34:149;-0.36391866;10.01734;0.24899697
11:29:34:149;-0.36391866;10.01734;0.24899697
11:29:34:149;-0.36391866;10.01734;0.24899697
11:29:34:149;-0.36391866;10.01734;0.24899697
11:29:34:149;-0.36391866;10.01734;0.24899697
11:29:34:268;-0.36391866;10.01734;0.2681506
11:29:34:268;-0.36391866;10.01734;0.2681506
11:29:34:268;-0.36391866;10.01734;0.2681506
11:29:34:268;-0.36391866;10.01734;0.2681506
11:29:34:268;-0.36391866;10.01734;0.2681506
11:29:34:268;-0.36391866;10.01734;0.2681506
11:29:34:268;-0.36391866;10.01734;0.2681506
11:29:34:268;-0.36391866;10.01734;0.2681506
11:29:34:268;-0.36391866;10.01734;0.2681506
11:29:34:268;-0.36391866;10.01734;0.2681506
11:29:34:268;-0.36391866;10.01734;0.2681506
11:29:34:268;-0.36391866;10.01734;0.2681506
11:29:34:268;-0.36391866;10.01734;0.2681506
11:29:34:375;-0.2681506;9.959879;0.22984336
11:29:34:375;-0.2681506;9.959879;0.22984336
11:29:34:375;-0.2681506;9.959879;0.22984336
11:29:34:375;-0.2681506;9.959879;0.22984336
11:29:34:375;-0.2681506;9.959879;0.22984336
11:29:34:375;-0.2681506;9.959879;0.22984336
11:29:34:375;-0.2681506;9.959879;0.22984336
11:29:34:375;-0.2681506;9.959879;0.22984336
11:29:34:375;-0.2681506;9.959879;0.22984336
11:29:34:375;-0.2681506;9.959879;0.22984336
11:29:34:375;-0.2681506;9.959879;0.22984336
11:29:34:375;-0.2681506;9.959879;0.22984336
11:29:34:375;-0.2681506;9.959879;0.22984336
11:29:34:375;-0.2681506;9.959879;0.22984336
11:29:34:375;-0.2681506;9.959879;0.22984336
11:29:34:375;-0.2681506;9.959879;0.22984336
11:29:34:493;-0.24899697;9.921572;0.17238252
11:29:34:493;-0.24899697;9.921572;0.17238252
11:29:34:493;-0.24899697;9.921572;0.17238252
11:29:34:493;-0.24899697;9.921572;0.17238252
11:29:34:493;-0.24899697;9.921572;0.17238252
11:29:34:493;-0.24899697;9.921572;0.17238252
11:29:34:493;-0.24899697;9.921572;0.17238252
11:29:34:493;-0.24899697;9.921572;0.17238252
11:29:34:493;-0.24899697;9.921572;0.17238252
11:29:34:493;-0.24899697;9.921572;0.17238252
11:29:34:493;-0.24899697;9.921572;0.17238252
11:29:34:493;-0.24899697;9.921572;0.17238252
11:29:34:493;-0.24899697;9.921572;0.17238252
11:29:34:493;-0.24899697;9.921572;0.17238252
11:29:34:493;-0.24899697;9.921572;0.17238252
11:29:34:613;-0.05746084;9.883265;0.21068975
11:29:34:613;-0.05746084;9.883265;0.21068975
11:29:34:613;-0.05746084;9.883265;0.21068975
11:29:34:613;-0.05746084;9.883265;0.21068975
11:29:34:613;-0.05746084;9.883265;0.21068975
11:29:34:613;-0.05746084;9.883265;0.21068975
11:29:34:613;-0.05746084;9.883265;0.21068975
11:29:34:613;-0.05746084;9.883265;0.21068975
11:29:34:613;-0.05746084;9.883265;0.21068975
11:29:34:613;-0.05746084;9.883265;0.21068975
11:29:34:613;-0.05746084;9.883265;0.21068975
11:29:34:613;-0.05746084;9.883265;0.21068975
11:29:34:613;-0.05746084;9.883265;0.21068975
11:29:34:716;-0.34476504;10.093954;0.17238252
11:29:34:716;-0.34476504;10.093954;0.17238252
11:29:34:716;-0.34476504;10.093954;0.17238252
11:29:34:716;-0.34476504;10.093954;0.17238252
11:29:34:716;-0.34476504;10.093954;0.17238252
11:29:34:716;-0.34476504;10.093954;0.17238252
11:29:34:716;-0.34476504;10.093954;0.17238252
11:29:34:716;-0.34476504;10.093954;0.17238252
11:29:34:716;-0.34476504;10.093954;0.17238252
11:29:34:716;-0.34476504;10.093954;0.17238252
11:29:34:716;-0.34476504;10.093954;0.17238252
11:29:34:716;-0.34476504;10.093954;0.17238252
11:29:34:716;-0.34476504;10.093954;0.17238252
11:29:34:716;-0.34476504;10.093954;0.17238252
11:29:34:716;-0.34476504;10.093954;0.17238252
11:29:34:835;-0.34476504;9.883265;0.2681506
11:29:34:835;-0.34476504;9.883265;0.2681506
11:29:34:835;-0.34476504;9.883265;0.2681506
11:29:34:835;-0.34476504;9.883265;0.2681506
11:29:34:835;-0.34476504;9.883265;0.2681506
11:29:34:835;-0.34476504;9.883265;0.2681506
11:29:34:835;-0.34476504;9.883265;0.2681506
11:29:34:835;-0.34476504;9.883265;0.2681506
11:29:34:835;-0.34476504;9.883265;0.2681506
11:29:34:835;-0.34476504;9.883265;0.2681506
11:29:34:835;-0.34476504;9.883265;0.2681506
11:29:34:835;-0.34476504;9.883265;0.2681506
11:29:34:835;-0.34476504;9.883265;0.2681506
11:29:34:937;-0.038307227;9.9790325;0.34476504
11:29:34:937;-0.038307227;9.9790325;0.34476504
11:29:34:937;-0.038307227;9.9790325;0.34476504
11:29:34:937;-0.038307227;9.9790325;0.34476504
11:29:34:937;-0.038307227;9.9790325;0.34476504
11:29:34:937;-0.038307227;9.9790325;0.34476504
11:29:34:937;-0.038307227;9.9790325;0.34476504
11:29:34:937;-0.038307227;9.9790325;0.34476504
11:29:34:937;-0.038307227;9.9790325;0.34476504
11:29:34:937;-0.038307227;9.9790325;0.34476504
11:29:34:937;-0.038307227;9.9790325;0.34476504
11:29:34:937;-0.038307227;9.9790325;0.34476504
11:29:34:937;-0.038307227;9.9790325;0.34476504
11:29:34:937;-0.038307227;9.9790325;0.34476504
11:29:34:937;-0.038307227;9.9790325;0.34476504
11:29:34:937;-0.038307227;9.9790325;0.34476504
11:29:34:937;-0.038307227;9.9790325;0.34476504
11:29:34:937;-0.038307227;9.9790325;0.34476504
11:29:35:071;-0.5363012;9.921572;0.1340753
11:29:35:071;-0.5363012;9.921572;0.1340753
11:29:35:071;-0.5363012;9.921572;0.1340753
11:29:35:071;-0.5363012;9.921572;0.1340753
11:29:35:071;-0.5363012;9.921572;0.1340753
11:29:35:071;-0.5363012;9.921572;0.1340753
11:29:35:071;-0.5363012;9.921572;0.1340753
11:29:35:071;-0.5363012;9.921572;0.1340753
11:29:35:071;-0.5363012;9.921572;0.1340753
11:29:35:071;-0.5363012;9.921572;0.1340753
11:29:35:071;-0.5363012;9.921572;0.1340753
11:29:35:071;-0.5363012;9.921572;0.1340753
11:29:35:071;-0.5363012;9.921572;0.1340753
11:29:35:178;-0.15322891;9.940725;0.11492168
11:29:35:178;-0.15322891;9.940725;0.11492168
11:29:35:178;-0.15322891;9.940725;0.11492168
11:29:35:178;-0.15322891;9.940725;0.11492168
11:29:35:178;-0.15322891;9.940725;0.11492168
11:29:35:178;-0.15322891;9.940725;0.11492168
11:29:35:178;-0.15322891;9.940725;0.11492168
11:29:35:178;-0.15322891;9.940725;0.11492168
11:29:35:178;-0.15322891;9.940725;0.11492168
11:29:35:178;-0.15322891;9.940725;0.11492168
11:29:35:178;-0.15322891;9.940725;0.11492168
11:29:35:178;-0.15322891;9.940725;0.11492168
11:29:35:178;-0.15322891;9.940725;0.11492168
11:29:35:178;-0.15322891;9.940725;0.11492168
11:29:35:283;-0.47884035;9.5385;0.5363012
11:29:35:283;-0.47884035;9.5385;0.5363012
11:29:35:283;-0.47884035;9.5385;0.5363012
11:29:35:283;-0.47884035;9.5385;0.5363012
11:29:35:283;-0.47884035;9.5385;0.5363012
11:29:35:283;-0.47884035;9.5385;0.5363012
11:29:35:283;-0.47884035;9.5385;0.5363012
11:29:35:283;-0.47884035;9.5385;0.5363012
11:29:35:283;-0.47884035;9.5385;0.5363012
11:29:35:283;-0.47884035;9.5385;0.5363012
11:29:35:283;-0.47884035;9.5385;0.5363012
11:29:35:283;-0.47884035;9.5385;0.5363012
11:29:35:283;-0.47884035;9.5385;0.5363012
11:29:35:283;-0.47884035;9.5385;0.5363012
11:29:35:283;-0.47884035;9.5385;0.5363012
11:29:35:401;-0.15322891;10.228029;-0.2681506
11:29:35:401;-0.15322891;10.228029;-0.2681506
11:29:35:401;-0.15322891;10.228029;-0.2681506
11:29:35:401;-0.15322891;10.228029;-0.2681506
11:29:35:401;-0.15322891;10.228029;-0.2681506
11:29:35:401;-0.15322891;10.228029;-0.2681506
11:29:35:401;-0.15322891;10.228029;-0.2681506
11:29:35:401;-0.15322891;10.228029;-0.2681506
11:29:35:401;-0.15322891;10.228029;-0.2681506
11:29:35:401;-0.15322891;10.228029;-0.2681506
11:29:35:401;-0.15322891;10.228029;-0.2681506
11:29:35:401;-0.15322891;10.228029;-0.2681506
11:29:35:401;-0.15322891;10.228029;-0.2681506
11:29:35:401;-0.15322891;10.228029;-0.2681506
11:29:35:401;-0.15322891;10.228029;-0.2681506
11:29:35:518;-0.4405331;10.170568;0.2681506
11:29:35:518;-0.4405331;10.170568;0.2681506
11:29:35:518;-0.4405331;10.170568;0.2681506
11:29:35:518;-0.4405331;10.170568;0.2681506
11:29:35:518;-0.4405331;10.170568;0.2681506
11:29:35:518;-0.4405331;10.170568;0.2681506
11:29:35:518;-0.4405331;10.170568;0.2681506
11:29:35:518;-0.4405331;10.170568;0.2681506
11:29:35:518;-0.4405331;10.170568;0.2681506
11:29:35:518;-0.4405331;10.170568;0.2681506
11:29:35:518;-0.4405331;10.170568;0.2681506
11:29:35:518;-0.4405331;10.170568;0.2681506
11:29:35:518;-0.4405331;10.170568;0.2681506
11:29:35:620;-0.095768064;10.266336;0.019153614
11:29:35:620;-0.095768064;10.266336;0.019153614
11:29:35:620;-0.095768064;10.266336;0.019153614
11:29:35:620;-0.095768064;10.266336;0.019153614
11:29:35:620;-0.095768064;10.266336;0.019153614
11:29:35:620;-0.095768064;10.266336;0.019153614
11:29:35:620;-0.095768064;10.266336;0.019153614
11:29:35:620;-0.095768064;10.266336;0.019153614
11:29:35:620;-0.095768064;10.266336;0.019153614
11:29:35:620;-0.095768064;10.266336;0.019153614
11:29:35:620;-0.095768064;10.266336;0.019153614
11:29:35:620;-0.095768064;10.266336;0.019153614
11:29:35:620;-0.095768064;10.266336;0.019153614
11:29:35:620;-0.095768064;10.266336;0.019153614
11:29:35:620;-0.095768064;10.266336;0.019153614
11:29:35:737;-0.47884035;10.036493;0.30645782
11:29:35:737;-0.47884035;10.036493;0.30645782
11:29:35:737;-0.47884035;10.036493;0.30645782
11:29:35:737;-0.47884035;10.036493;0.30645782
11:29:35:737;-0.47884035;10.036493;0.30645782
11:29:35:737;-0.47884035;10.036493;0.30645782
11:29:35:737;-0.47884035;10.036493;0.30645782
11:29:35:737;-0.47884035;10.036493;0.30645782
11:29:35:737;-0.47884035;10.036493;0.30645782
11:29:35:737;-0.47884035;10.036493;0.30645782
11:29:35:737;-0.47884035;10.036493;0.30645782
11:29:35:737;-0.47884035;10.036493;0.30645782
11:29:35:737;-0.47884035;10.036493;0.30645782
11:29:35:737;-0.47884035;10.036493;0.30645782
11:29:35:737;-0.47884035;10.036493;0.30645782
11:29:35:737;-0.47884035;10.036493;0.30645782
11:29:35:863;-0.49799395;9.844957;0.6703765
11:29:35:863;-0.49799395;9.844957;0.6703765
11:29:35:863;-0.49799395;9.844957;0.6703765
11:29:35:863;-0.49799395;9.844957;0.6703765
11:29:35:863;-0.49799395;9.844957;0.6703765
11:29:35:863;-0.49799395;9.844957;0.6703765
11:29:35:863;-0.49799395;9.844957;0.6703765
11:29:35:863;-0.49799395;9.844957;0.6703765
11:29:35:863;-0.49799395;9.844957;0.6703765
11:29:35:863;-0.49799395;9.844957;0.6703765
11:29:35:863;-0.49799395;9.844957;0.6703765
11:29:35:863;-0.49799395;9.844957;0.6703765
11:29:35:863;-0.49799395;9.844957;0.6703765
11:29:35:863;-0.49799395;9.844957;0.6703765
11:29:35:974;-0.11492168;9.940725;0.1340753
11:29:35:974;-0.11492168;9.940725;0.1340753
11:29:35:974;-0.11492168;9.940725;0.1340753
11:29:35:974;-0.11492168;9.940725;0.1340753
11:29:35:974;-0.11492168;9.940725;0.1340753
11:29:35:974;-0.11492168;9.940725;0.1340753
11:29:35:974;-0.11492168;9.940725;0.1340753
11:29:35:974;-0.11492168;9.940725;0.1340753
11:29:35:974;-0.11492168;9.940725;0.1340753
11:29:35:974;-0.11492168;9.940725;0.1340753
11:29:35:974;-0.11492168;9.940725;0.1340753
11:29:35:974;-0.11492168;9.940725;0.1340753
11:29:35:974;-0.11492168;9.940725;0.1340753
11:29:36:075;-0.51714754;9.825804;0.24899697
11:29:36:075;-0.51714754;9.825804;0.24899697
11:29:36:075;-0.51714754;9.825804;0.24899697
11:29:36:075;-0.51714754;9.825804;0.24899697
11:29:36:075;-0.51714754;9.825804;0.24899697
11:29:36:075;-0.51714754;9.825804;0.24899697
11:29:36:075;-0.51714754;9.825804;0.24899697
11:29:36:075;-0.51714754;9.825804;0.24899697
11:29:36:075;-0.51714754;9.825804;0.24899697
11:29:36:075;-0.51714754;9.825804;0.24899697
11:29:36:075;-0.51714754;9.825804;0.24899697
11:29:36:075;-0.51714754;9.825804;0.24899697
11:29:36:075;-0.51714754;9.825804;0.24899697
11:29:36:075;-0.51714754;9.825804;0.24899697
11:29:36:075;-0.51714754;9.825804;0.24899697
11:29:36:075;-0.51714754;9.825804;0.24899697
11:29:36:200;-0.4405331;9.998186;0.4213795
11:29:36:200;-0.4405331;9.998186;0.4213795
11:29:36:200;-0.4405331;9.998186;0.4213795
11:29:36:200;-0.4405331;9.998186;0.4213795
11:29:36:200;-0.4405331;9.998186;0.4213795
11:29:36:200;-0.4405331;9.998186;0.4213795
11:29:36:200;-0.4405331;9.998186;0.4213795
11:29:36:200;-0.4405331;9.998186;0.4213795
11:29:36:200;-0.4405331;9.998186;0.4213795
11:29:36:200;-0.4405331;9.998186;0.4213795
11:29:36:200;-0.4405331;9.998186;0.4213795
11:29:36:200;-0.4405331;9.998186;0.4213795
11:29:36:200;-0.4405331;9.998186;0.4213795
11:29:36:200;-0.4405331;9.998186;0.4213795
11:29:36:305;-0.30645782;9.959879;0.2681506
11:29:36:305;-0.30645782;9.959879;0.2681506
11:29:36:305;-0.30645782;9.959879;0.2681506
11:29:36:305;-0.30645782;9.959879;0.2681506
11:29:36:305;-0.30645782;9.959879;0.2681506
11:29:36:305;-0.30645782;9.959879;0.2681506
11:29:36:305;-0.30645782;9.959879;0.2681506
11:29:36:305;-0.30645782;9.959879;0.2681506
11:29:36:305;-0.30645782;9.959879;0.2681506
11:29:36:305;-0.30645782;9.959879;0.2681506
11:29:36:305;-0.30645782;9.959879;0.2681506
11:29:36:305;-0.30645782;9.959879;0.2681506
11:29:36:305;-0.30645782;9.959879;0.2681506
11:29:36:413;-0.24899697;9.883265;0.05746084
11:29:36:413;-0.24899697;9.883265;0.05746084
11:29:36:413;-0.24899697;9.883265;0.05746084
11:29:36:413;-0.24899697;9.883265;0.05746084
11:29:36:413;-0.24899697;9.883265;0.05746084
11:29:36:413;-0.24899697;9.883265;0.05746084
11:29:36:413;-0.24899697;9.883265;0.05746084
11:29:36:413;-0.24899697;9.883265;0.05746084
11:29:36:413;-0.24899697;9.883265;0.05746084
11:29:36:413;-0.24899697;9.883265;0.05746084
11:29:36:413;-0.24899697;9.883265;0.05746084
11:29:36:413;-0.24899697;9.883265;0.05746084
11:29:36:413;-0.24899697;9.883265;0.05746084
11:29:36:413;-0.24899697;9.883265;0.05746084
11:29:36:413;-0.24899697;9.883265;0.05746084
11:29:36:413;-0.24899697;9.883265;0.05746084
11:29:36:413;-0.24899697;9.883265;0.05746084
11:29:36:544;-0.36391866;10.01734;0.32561144
11:29:36:544;-0.36391866;10.01734;0.32561144
11:29:36:544;-0.36391866;10.01734;0.32561144
11:29:36:544;-0.36391866;10.01734;0.32561144
11:29:36:544;-0.36391866;10.01734;0.32561144
11:29:36:544;-0.36391866;10.01734;0.32561144
11:29:36:544;-0.36391866;10.01734;0.32561144
11:29:36:544;-0.36391866;10.01734;0.32561144
11:29:36:544;-0.36391866;10.01734;0.32561144
11:29:36:544;-0.36391866;10.01734;0.32561144
11:29:36:544;-0.36391866;10.01734;0.32561144
11:29:36:544;-0.36391866;10.01734;0.32561144
11:29:36:544;-0.36391866;10.01734;0.32561144
11:29:36:544;-0.36391866;10.01734;0.32561144
11:29:36:649;-0.40222588;10.036493;0.21068975
11:29:36:649;-0.40222588;10.036493;0.21068975
11:29:36:649;-0.40222588;10.036493;0.21068975
11:29:36:649;-0.40222588;10.036493;0.21068975
11:29:36:649;-0.40222588;10.036493;0.21068975
11:29:36:649;-0.40222588;10.036493;0.21068975
11:29:36:649;-0.40222588;10.036493;0.21068975
11:29:36:649;-0.40222588;10.036493;0.21068975
11:29:36:649;-0.40222588;10.036493;0.21068975
11:29:36:649;-0.40222588;10.036493;0.21068975
11:29:36:649;-0.40222588;10.036493;0.21068975
11:29:36:649;-0.40222588;10.036493;0.21068975
11:29:36:649;-0.40222588;10.036493;0.21068975
11:29:36:649;-0.40222588;10.036493;0.21068975
11:29:36:761;-0.40222588;10.055647;0.1340753
11:29:36:761;-0.40222588;10.055647;0.1340753
11:29:36:761;-0.40222588;10.055647;0.1340753
11:29:36:761;-0.40222588;10.055647;0.1340753
11:29:36:761;-0.40222588;10.055647;0.1340753
11:29:36:761;-0.40222588;10.055647;0.1340753
11:29:36:761;-0.40222588;10.055647;0.1340753
11:29:36:761;-0.40222588;10.055647;0.1340753
11:29:36:761;-0.40222588;10.055647;0.1340753
11:29:36:761;-0.40222588;10.055647;0.1340753
11:29:36:761;-0.40222588;10.055647;0.1340753
11:29:36:761;-0.40222588;10.055647;0.1340753
11:29:36:761;-0.40222588;10.055647;0.1340753
11:29:36:761;-0.40222588;10.055647;0.1340753
11:29:36:868;-0.19153613;9.959879;-0.076614454
11:29:36:868;-0.19153613;9.959879;-0.076614454
11:29:36:868;-0.19153613;9.959879;-0.076614454
11:29:36:868;-0.19153613;9.959879;-0.076614454
11:29:36:868;-0.19153613;9.959879;-0.076614454
11:29:36:868;-0.19153613;9.959879;-0.076614454
11:29:36:868;-0.19153613;9.959879;-0.076614454
11:29:36:868;-0.19153613;9.959879;-0.076614454
11:29:36:868;-0.19153613;9.959879;-0.076614454
11:29:36:868;-0.19153613;9.959879;-0.076614454
11:29:36:868;-0.19153613;9.959879;-0.076614454
11:29:36:868;-0.19153613;9.959879;-0.076614454
11:29:36:868;-0.19153613;9.959879;-0.076614454
11:29:36:868;-0.19153613;9.959879;-0.076614454
11:29:36:868;-0.19153613;9.959879;-0.076614454
11:29:36:988;-0.22984336;10.228029;0.05746084
11:29:36:988;-0.22984336;10.228029;0.05746084
11:29:36:988;-0.22984336;10.228029;0.05746084
11:29:36:988;-0.22984336;10.228029;0.05746084
11:29:36:988;-0.22984336;10.228029;0.05746084
11:29:36:988;-0.22984336;10.228029;0.05746084
11:29:36:988;-0.22984336;10.228029;0.05746084
11:29:36:988;-0.22984336;10.228029;0.05746084
11:29:36:988;-0.22984336;10.228029;0.05746084
11:29:36:988;-0.22984336;10.228029;0.05746084
11:29:36:988;-0.22984336;10.228029;0.05746084
11:29:36:988;-0.22984336;10.228029;0.05746084
11:29:36:988;-0.22984336;10.228029;0.05746084
11:29:36:988;-0.22984336;10.228029;0.05746084
11:29:36:988;-0.22984336;10.228029;0.05746084
11:29:37:107;-0.4405331;9.9790325;0.30645782
11:29:37:107;-0.4405331;9.9790325;0.30645782
11:29:37:107;-0.4405331;9.9790325;0.30645782
11:29:37:107;-0.4405331;9.9790325;0.30645782
11:29:37:107;-0.4405331;9.9790325;0.30645782
11:29:37:107;-0.4405331;9.9790325;0.30645782
11:29:37:107;-0.4405331;9.9790325;0.30645782
11:29:37:107;-0.4405331;9.9790325;0.30645782
11:29:37:107;-0.4405331;9.9790325;0.30645782
11:29:37:107;-0.4405331;9.9790325;0.30645782
11:29:37:107;-0.4405331;9.9790325;0.30645782
11:29:37:107;-0.4405331;9.9790325;0.30645782
11:29:37:107;-0.4405331;9.9790325;0.30645782
11:29:37:107;-0.4405331;9.9790325;0.30645782
11:29:37:213;-0.24899697;9.940725;0.34476504
11:29:37:213;-0.24899697;9.940725;0.34476504
11:29:37:213;-0.24899697;9.940725;0.34476504
11:29:37:213;-0.24899697;9.940725;0.34476504
11:29:37:213;-0.24899697;9.940725;0.34476504
11:29:37:213;-0.24899697;9.940725;0.34476504
11:29:37:213;-0.24899697;9.940725;0.34476504
11:29:37:213;-0.24899697;9.940725;0.34476504
11:29:37:213;-0.24899697;9.940725;0.34476504
11:29:37:213;-0.24899697;9.940725;0.34476504
11:29:37:213;-0.24899697;9.940725;0.34476504
11:29:37:213;-0.24899697;9.940725;0.34476504
11:29:37:213;-0.24899697;9.940725;0.34476504
11:29:37:319;-0.17238252;10.208876;0.19153613
11:29:37:319;-0.17238252;10.208876;0.19153613
11:29:37:319;-0.17238252;10.208876;0.19153613
11:29:37:319;-0.17238252;10.208876;0.19153613
11:29:37:319;-0.17238252;10.208876;0.19153613
11:29:37:319;-0.17238252;10.208876;0.19153613
11:29:37:319;-0.17238252;10.208876;0.19153613
11:29:37:319;-0.17238252;10.208876;0.19153613
11:29:37:319;-0.17238252;10.208876;0.19153613
11:29:37:319;-0.17238252;10.208876;0.19153613
11:29:37:319;-0.17238252;10.208876;0.19153613
11:29:37:319;-0.17238252;10.208876;0.19153613
11:29:37:319;-0.17238252;10.208876;0.19153613
11:29:37:319;-0.17238252;10.208876;0.19153613
11:29:37:319;-0.17238252;10.208876;0.19153613
11:29:37:437;-0.32561144;10.036493;0.2873042
11:29:37:437;-0.32561144;10.036493;0.2873042
11:29:37:437;-0.32561144;10.036493;0.2873042
11:29:37:437;-0.32561144;10.036493;0.2873042
11:29:37:437;-0.32561144;10.036493;0.2873042
11:29:37:437;-0.32561144;10.036493;0.2873042
11:29:37:437;-0.32561144;10.036493;0.2873042
11:29:37:437;-0.32561144;10.036493;0.2873042
11:29:37:437;-0.32561144;10.036493;0.2873042
11:29:37:437;-0.32561144;10.036493;0.2873042
11:29:37:437;-0.32561144;10.036493;0.2873042
11:29:37:437;-0.32561144;10.036493;0.2873042
11:29:37:437;-0.32561144;10.036493;0.2873042
11:29:37:437;-0.32561144;10.036493;0.2873042
11:29:37:546;-0.38307226;10.01734;0.1340753
11:29:37:546;-0.38307226;10.01734;0.1340753
11:29:37:546;-0.38307226;10.01734;0.1340753
11:29:37:546;-0.38307226;10.01734;0.1340753
11:29:37:546;-0.38307226;10.01734;0.1340753
11:29:37:546;-0.38307226;10.01734;0.1340753
11:29:37:546;-0.38307226;10.01734;0.1340753
11:29:37:546;-0.38307226;10.01734;0.1340753
11:29:37:546;-0.38307226;10.01734;0.1340753
11:29:37:546;-0.38307226;10.01734;0.1340753
11:29:37:546;-0.38307226;10.01734;0.1340753
11:29:37:546;-0.38307226;10.01734;0.1340753
11:29:37:546;-0.38307226;10.01734;0.1340753
11:29:37:546;-0.38307226;10.01734;0.1340753
11:29:37:655;-0.22984336;10.036493;0.038307227
11:29:37:655;-0.22984336;10.036493;0.038307227
11:29:37:655;-0.22984336;10.036493;0.038307227
11:29:37:655;-0.22984336;10.036493;0.038307227
11:29:37:655;-0.22984336;10.036493;0.038307227
11:29:37:655;-0.22984336;10.036493;0.038307227
11:29:37:655;-0.22984336;10.036493;0.038307227
11:29:37:655;-0.22984336;10.036493;0.038307227
11:29:37:655;-0.22984336;10.036493;0.038307227
11:29:37:655;-0.22984336;10.036493;0.038307227
11:29:37:655;-0.22984336;10.036493;0.038307227
11:29:37:655;-0.22984336;10.036493;0.038307227
11:29:37:655;-0.22984336;10.036493;0.038307227
11:29:37:655;-0.22984336;10.036493;0.038307227
11:29:37:655;-0.22984336;10.036493;0.038307227
11:29:37:770;-0.21068975;9.9790325;0.19153613
11:29:37:770;-0.21068975;9.9790325;0.19153613
11:29:37:770;-0.21068975;9.9790325;0.19153613
11:29:37:770;-0.21068975;9.9790325;0.19153613
11:29:37:770;-0.21068975;9.9790325;0.19153613
11:29:37:770;-0.21068975;9.9790325;0.19153613
11:29:37:770;-0.21068975;9.9790325;0.19153613
11:29:37:770;-0.21068975;9.9790325;0.19153613
11:29:37:770;-0.21068975;9.9790325;0.19153613
11:29:37:770;-0.21068975;9.9790325;0.19153613
11:29:37:770;-0.21068975;9.9790325;0.19153613
11:29:37:770;-0.21068975;9.9790325;0.19153613
11:29:37:770;-0.21068975;9.9790325;0.19153613
11:29:37:770;-0.21068975;9.9790325;0.19153613
11:29:37:770;-0.21068975;9.9790325;0.19153613
11:29:37:770;-0.21068975;9.9790325;0.19153613
11:29:37:770;-0.21068975;9.9790325;0.19153613
11:29:37:770;-0.21068975;9.9790325;0.19153613
11:29:37:770;-0.21068975;9.9790325;0.19153613
11:29:37:770;-0.21068975;9.9790325;0.19153613
11:29:37:770;-0.21068975;9.9790325;0.19153613
11:29:37:770;-0.21068975;9.9790325;0.19153613
11:29:37:770;-0.21068975;9.9790325;0.19153613
11:29:37:770;-0.21068975;9.9790325;0.19153613
11:29:37:957;-0.36391866;10.055647;0.21068975
11:29:37:957;-0.36391866;10.055647;0.21068975
11:29:37:957;-0.36391866;10.055647;0.21068975
11:29:37:957;-0.36391866;10.055647;0.21068975
11:29:37:957;-0.36391866;10.055647;0.21068975
11:29:37:957;-0.36391866;10.055647;0.21068975
11:29:37:957;-0.36391866;10.055647;0.21068975
11:29:37:957;-0.36391866;10.055647;0.21068975
11:29:37:957;-0.36391866;10.055647;0.21068975
11:29:37:957;-0.36391866;10.055647;0.21068975
11:29:37:957;-0.36391866;10.055647;0.21068975
11:29:37:957;-0.36391866;10.055647;0.21068975
11:29:37:957;-0.36391866;10.055647;0.21068975
11:29:37:957;-0.36391866;10.055647;0.21068975
11:29:37:957;-0.36391866;10.055647;0.21068975
11:29:38:076;-0.45968673;9.787497;0.38307226
11:29:38:076;-0.45968673;9.787497;0.38307226
11:29:38:076;-0.45968673;9.787497;0.38307226
11:29:38:076;-0.45968673;9.787497;0.38307226
11:29:38:076;-0.45968673;9.787497;0.38307226
11:29:38:076;-0.45968673;9.787497;0.38307226
11:29:38:076;-0.45968673;9.787497;0.38307226
11:29:38:076;-0.45968673;9.787497;0.38307226
11:29:38:076;-0.45968673;9.787497;0.38307226
11:29:38:076;-0.45968673;9.787497;0.38307226
11:29:38:076;-0.45968673;9.787497;0.38307226
11:29:38:076;-0.45968673;9.787497;0.38307226
11:29:38:076;-0.45968673;9.787497;0.38307226
11:29:38:076;-0.45968673;9.787497;0.38307226
11:29:38:182;-0.05746084;9.940725;0.15322891
11:29:38:182;-0.05746084;9.940725;0.15322891
11:29:38:182;-0.05746084;9.940725;0.15322891
11:29:38:182;-0.05746084;9.940725;0.15322891
11:29:38:182;-0.05746084;9.940725;0.15322891
11:29:38:182;-0.05746084;9.940725;0.15322891
11:29:38:182;-0.05746084;9.940725;0.15322891
11:29:38:182;-0.05746084;9.940725;0.15322891
11:29:38:182;-0.05746084;9.940725;0.15322891
11:29:38:182;-0.05746084;9.940725;0.15322891
11:29:38:182;-0.05746084;9.940725;0.15322891
11:29:38:182;-0.05746084;9.940725;0.15322891
11:29:38:182;-0.05746084;9.940725;0.15322891
11:29:38:288;-0.45968673;9.9790325;0.51714754
11:29:38:288;-0.45968673;9.9790325;0.51714754
11:29:38:288;-0.45968673;9.9790325;0.51714754
11:29:38:288;-0.45968673;9.9790325;0.51714754
11:29:38:288;-0.45968673;9.9790325;0.51714754
11:29:38:288;-0.45968673;9.9790325;0.51714754
11:29:38:288;-0.45968673;9.9790325;0.51714754
11:29:38:288;-0.45968673;9.9790325;0.51714754
11:29:38:288;-0.45968673;9.9790325;0.51714754
11:29:38:288;-0.45968673;9.9790325;0.51714754
11:29:38:288;-0.45968673;9.9790325;0.51714754
11:29:38:288;-0.45968673;9.9790325;0.51714754
11:29:38:288;-0.45968673;9.9790325;0.51714754
11:29:38:288;-0.45968673;9.9790325;0.51714754
11:29:38:288;-0.45968673;9.9790325;0.51714754
11:29:38:288;-0.45968673;9.9790325;0.51714754
11:29:38:408;-0.4213795;9.844957;0.36391866
11:29:38:408;-0.4213795;9.844957;0.36391866
11:29:38:408;-0.4213795;9.844957;0.36391866
11:29:38:408;-0.4213795;9.844957;0.36391866
11:29:38:408;-0.4213795;9.844957;0.36391866
11:29:38:408;-0.4213795;9.844957;0.36391866
11:29:38:408;-0.4213795;9.844957;0.36391866
11:29:38:408;-0.4213795;9.844957;0.36391866
11:29:38:408;-0.4213795;9.844957;0.36391866
11:29:38:408;-0.4213795;9.844957;0.36391866
11:29:38:408;-0.4213795;9.844957;0.36391866
11:29:38:408;-0.4213795;9.844957;0.36391866
11:29:38:408;-0.4213795;9.844957;0.36391866
11:29:38:408;-0.4213795;9.844957;0.36391866
11:29:38:408;-0.4213795;9.844957;0.36391866
11:29:38:525;-0.38307226;9.883265;0.17238252
11:29:38:525;-0.38307226;9.883265;0.17238252
11:29:38:525;-0.38307226;9.883265;0.17238252
11:29:38:525;-0.38307226;9.883265;0.17238252
11:29:38:525;-0.38307226;9.883265;0.17238252
11:29:38:525;-0.38307226;9.883265;0.17238252
11:29:38:525;-0.38307226;9.883265;0.17238252
11:29:38:525;-0.38307226;9.883265;0.17238252
11:29:38:525;-0.38307226;9.883265;0.17238252
11:29:38:525;-0.38307226;9.883265;0.17238252
11:29:38:525;-0.38307226;9.883265;0.17238252
11:29:38:525;-0.38307226;9.883265;0.17238252
11:29:38:525;-0.38307226;9.883265;0.17238252
11:29:38:525;-0.38307226;9.883265;0.17238252
11:29:38:525;-0.38307226;9.883265;0.17238252
11:29:38:644;-0.24899697;9.902418;0.30645782
11:29:38:644;-0.24899697;9.902418;0.30645782
11:29:38:644;-0.24899697;9.902418;0.30645782
11:29:38:644;-0.24899697;9.902418;0.30645782
11:29:38:644;-0.24899697;9.902418;0.30645782
11:29:38:644;-0.24899697;9.902418;0.30645782
11:29:38:644;-0.24899697;9.902418;0.30645782
11:29:38:644;-0.24899697;9.902418;0.30645782
11:29:38:644;-0.24899697;9.902418;0.30645782
11:29:38:644;-0.24899697;9.902418;0.30645782
11:29:38:644;-0.24899697;9.902418;0.30645782
11:29:38:644;-0.24899697;9.902418;0.30645782
11:29:38:644;-0.24899697;9.902418;0.30645782
11:29:38:644;-0.24899697;9.902418;0.30645782
11:29:38:644;-0.24899697;9.902418;0.30645782
11:29:38:761;-0.038307227;9.959879;0.21068975
11:29:38:761;-0.038307227;9.959879;0.21068975
11:29:38:761;-0.038307227;9.959879;0.21068975
11:29:38:761;-0.038307227;9.959879;0.21068975
11:29:38:761;-0.038307227;9.959879;0.21068975
11:29:38:761;-0.038307227;9.959879;0.21068975
11:29:38:761;-0.038307227;9.959879;0.21068975
11:29:38:761;-0.038307227;9.959879;0.21068975
11:29:38:761;-0.038307227;9.959879;0.21068975
11:29:38:761;-0.038307227;9.959879;0.21068975
11:29:38:761;-0.038307227;9.959879;0.21068975
11:29:38:761;-0.038307227;9.959879;0.21068975
11:29:38:761;-0.038307227;9.959879;0.21068975
11:29:38:761;-0.038307227;9.959879;0.21068975
11:29:38:761;-0.038307227;9.959879;0.21068975
11:29:38:878;-0.21068975;10.093954;0.2681506
11:29:38:878;-0.21068975;10.093954;0.2681506
11:29:38:878;-0.21068975;10.093954;0.2681506
11:29:38:878;-0.21068975;10.093954;0.2681506
11:29:38:878;-0.21068975;10.093954;0.2681506
11:29:38:878;-0.21068975;10.093954;0.2681506
11:29:38:878;-0.21068975;10.093954;0.2681506
11:29:38:878;-0.21068975;10.093954;0.2681506
11:29:38:878;-0.21068975;10.093954;0.2681506
11:29:38:878;-0.21068975;10.093954;0.2681506
11:29:38:878;-0.21068975;10.093954;0.2681506
11:29:38:878;-0.21068975;10.093954;0.2681506
11:29:38:878;-0.21068975;10.093954;0.2681506
11:29:38:980;-0.19153613;9.940725;0.36391866
11:29:38:980;-0.19153613;9.940725;0.36391866
11:29:38:980;-0.19153613;9.940725;0.36391866
11:29:38:980;-0.19153613;9.940725;0.36391866
11:29:38:980;-0.19153613;9.940725;0.36391866
11:29:38:980;-0.19153613;9.940725;0.36391866
11:29:38:980;-0.19153613;9.940725;0.36391866
11:29:38:980;-0.19153613;9.940725;0.36391866
11:29:38:980;-0.19153613;9.940725;0.36391866
11:29:38:980;-0.19153613;9.940725;0.36391866
11:29:38:980;-0.19153613;9.940725;0.36391866
11:29:38:980;-0.19153613;9.940725;0.36391866
11:29:38:980;-0.19153613;9.940725;0.36391866
11:29:38:980;-0.19153613;9.940725;0.36391866
11:29:38:980;-0.19153613;9.940725;0.36391866
11:29:39:099;-0.17238252;10.093954;0.17238252
11:29:39:099;-0.17238252;10.093954;0.17238252
11:29:39:099;-0.17238252;10.093954;0.17238252
11:29:39:099;-0.17238252;10.093954;0.17238252
11:29:39:099;-0.17238252;10.093954;0.17238252
11:29:39:099;-0.17238252;10.093954;0.17238252
11:29:39:099;-0.17238252;10.093954;0.17238252
11:29:39:099;-0.17238252;10.093954;0.17238252
11:29:39:099;-0.17238252;10.093954;0.17238252
11:29:39:099;-0.17238252;10.093954;0.17238252
11:29:39:099;-0.17238252;10.093954;0.17238252
11:29:39:099;-0.17238252;10.093954;0.17238252
11:29:39:099;-0.17238252;10.093954;0.17238252
11:29:39:203;-0.2873042;10.055647;0.2873042
11:29:39:203;-0.2873042;10.055647;0.2873042
11:29:39:203;-0.2873042;10.055647;0.2873042
11:29:39:203;-0.2873042;10.055647;0.2873042
11:29:39:203;-0.2873042;10.055647;0.2873042
11:29:39:203;-0.2873042;10.055647;0.2873042
11:29:39:203;-0.2873042;10.055647;0.2873042
11:29:39:203;-0.2873042;10.055647;0.2873042
11:29:39:203;-0.2873042;10.055647;0.2873042
11:29:39:203;-0.2873042;10.055647;0.2873042
11:29:39:203;-0.2873042;10.055647;0.2873042
11:29:39:203;-0.2873042;10.055647;0.2873042
11:29:39:203;-0.2873042;10.055647;0.2873042
11:29:39:203;-0.2873042;10.055647;0.2873042
11:29:39:203;-0.2873042;10.055647;0.2873042
11:29:39:203;-0.2873042;10.055647;0.2873042
11:29:39:323;-0.2681506;9.883265;0.17238252
11:29:39:323;-0.2681506;9.883265;0.17238252
11:29:39:323;-0.2681506;9.883265;0.17238252
11:29:39:323;-0.2681506;9.883265;0.17238252
11:29:39:323;-0.2681506;9.883265;0.17238252
11:29:39:323;-0.2681506;9.883265;0.17238252
11:29:39:323;-0.2681506;9.883265;0.17238252
11:29:39:323;-0.2681506;9.883265;0.17238252
11:29:39:323;-0.2681506;9.883265;0.17238252
11:29:39:323;-0.2681506;9.883265;0.17238252
11:29:39:323;-0.2681506;9.883265;0.17238252
11:29:39:323;-0.2681506;9.883265;0.17238252
11:29:39:323;-0.2681506;9.883265;0.17238252
11:29:39:424;-0.30645782;10.132261;0.15322891
11:29:39:424;-0.30645782;10.132261;0.15322891
11:29:39:424;-0.30645782;10.132261;0.15322891
11:29:39:424;-0.30645782;10.132261;0.15322891
11:29:39:424;-0.30645782;10.132261;0.15322891
11:29:39:424;-0.30645782;10.132261;0.15322891
11:29:39:424;-0.30645782;10.132261;0.15322891
11:29:39:424;-0.30645782;10.132261;0.15322891
11:29:39:424;-0.30645782;10.132261;0.15322891
11:29:39:424;-0.30645782;10.132261;0.15322891
11:29:39:424;-0.30645782;10.132261;0.15322891
11:29:39:424;-0.30645782;10.132261;0.15322891
11:29:39:424;-0.30645782;10.132261;0.15322891
11:29:39:424;-0.30645782;10.132261;0.15322891
11:29:39:424;-0.30645782;10.132261;0.15322891
11:29:39:541;-0.30645782;9.9790325;0.11492168
11:29:39:541;-0.30645782;9.9790325;0.11492168
11:29:39:541;-0.30645782;9.9790325;0.11492168
11:29:39:541;-0.30645782;9.9790325;0.11492168
11:29:39:541;-0.30645782;9.9790325;0.11492168
11:29:39:541;-0.30645782;9.9790325;0.11492168
11:29:39:541;-0.30645782;9.9790325;0.11492168
11:29:39:541;-0.30645782;9.9790325;0.11492168
11:29:39:541;-0.30645782;9.9790325;0.11492168
11:29:39:541;-0.30645782;9.9790325;0.11492168
11:29:39:541;-0.30645782;9.9790325;0.11492168
11:29:39:541;-0.30645782;9.9790325;0.11492168
11:29:39:541;-0.30645782;9.9790325;0.11492168
11:29:39:541;-0.30645782;9.9790325;0.11492168
11:29:39:541;-0.30645782;9.9790325;0.11492168
11:29:39:659;-0.38307226;10.01734;0.24899697
11:29:39:659;-0.38307226;10.01734;0.24899697
11:29:39:659;-0.38307226;10.01734;0.24899697
11:29:39:659;-0.38307226;10.01734;0.24899697
11:29:39:659;-0.38307226;10.01734;0.24899697
11:29:39:659;-0.38307226;10.01734;0.24899697
11:29:39:659;-0.38307226;10.01734;0.24899697
11:29:39:659;-0.38307226;10.01734;0.24899697
11:29:39:659;-0.38307226;10.01734;0.24899697
11:29:39:659;-0.38307226;10.01734;0.24899697
11:29:39:659;-0.38307226;10.01734;0.24899697
11:29:39:659;-0.38307226;10.01734;0.24899697
11:29:39:659;-0.38307226;10.01734;0.24899697
11:29:39:765;-0.40222588;10.01734;0.15322891
11:29:39:765;-0.40222588;10.01734;0.15322891
11:29:39:765;-0.40222588;10.01734;0.15322891
11:29:39:765;-0.40222588;10.01734;0.15322891
11:29:39:765;-0.40222588;10.01734;0.15322891
11:29:39:765;-0.40222588;10.01734;0.15322891
11:29:39:765;-0.40222588;10.01734;0.15322891
11:29:39:765;-0.40222588;10.01734;0.15322891
11:29:39:765;-0.40222588;10.01734;0.15322891
11:29:39:765;-0.40222588;10.01734;0.15322891
11:29:39:765;-0.40222588;10.01734;0.15322891
