Time_Biotrace;Time_Accel;AccelX;AccelY;AccelZ
10:30:23:007;10:30:22:916;0.11492168;10.132261;0.019153614
10:30:23:015;10:30:22:916;0.11492168;10.132261;0.019153614
10:30:23:023;10:30:23:019;0.2873042;9.749189;-0.30645782
10:30:23:031;10:30:23:019;0.2873042;9.749189;-0.30645782
10:30:23:039;10:30:23:019;0.2873042;9.749189;-0.30645782
10:30:23:046;10:30:23:019;0.2873042;9.749189;-0.30645782
10:30:23:054;10:30:23:019;0.2873042;9.749189;-0.30645782
10:30:23:062;10:30:23:019;0.2873042;9.749189;-0.30645782
10:30:23:070;10:30:23:019;0.2873042;9.749189;-0.30645782
10:30:23:078;10:30:23:019;0.2873042;9.749189;-0.30645782
10:30:23:085;10:30:23:019;0.2873042;9.749189;-0.30645782
10:30:23:093;10:30:23:019;0.2873042;9.749189;-0.30645782
10:30:23:101;10:30:23:019;0.2873042;9.749189;-0.30645782
10:30:23:109;10:30:23:019;0.2873042;9.749189;-0.30645782
10:30:23:117;10:30:23:019;0.2873042;9.749189;-0.30645782
10:30:23:125;10:30:23:019;0.2873042;9.749189;-0.30645782
10:30:23:132;10:30:23:019;0.2873042;9.749189;-0.30645782
10:30:23:140;10:30:23:019;0.2873042;9.749189;-0.30645782
10:30:23:148;10:30:23:142;0.24899697;9.902418;-0.17238252
10:30:23:156;10:30:23:142;0.24899697;9.902418;-0.17238252
10:30:23:164;10:30:23:142;0.24899697;9.902418;-0.17238252
10:30:23:171;10:30:23:142;0.24899697;9.902418;-0.17238252
10:30:23:179;10:30:23:142;0.24899697;9.902418;-0.17238252
10:30:23:187;10:30:23:142;0.24899697;9.902418;-0.17238252
10:30:23:195;10:30:23:142;0.24899697;9.902418;-0.17238252
10:30:23:203;10:30:23:142;0.24899697;9.902418;-0.17238252
10:30:23:210;10:30:23:142;0.24899697;9.902418;-0.17238252
10:30:23:218;10:30:23:142;0.24899697;9.902418;-0.17238252
10:30:23:226;10:30:23:142;0.24899697;9.902418;-0.17238252
10:30:23:234;10:30:23:142;0.24899697;9.902418;-0.17238252
10:30:23:242;10:30:23:142;0.24899697;9.902418;-0.17238252
10:30:23:250;10:30:23:142;0.24899697;9.902418;-0.17238252
10:30:23:257;10:30:23:256;0.21068975;9.940725;-0.36391866
10:30:23:265;10:30:23:256;0.21068975;9.940725;-0.36391866
10:30:23:273;10:30:23:256;0.21068975;9.940725;-0.36391866
10:30:23:281;10:30:23:256;0.21068975;9.940725;-0.36391866
10:30:23:289;10:30:23:256;0.21068975;9.940725;-0.36391866
10:30:23:296;10:30:23:256;0.21068975;9.940725;-0.36391866
10:30:23:304;10:30:23:256;0.21068975;9.940725;-0.36391866
10:30:23:312;10:30:23:256;0.21068975;9.940725;-0.36391866
10:30:23:320;10:30:23:256;0.21068975;9.940725;-0.36391866
10:30:23:328;10:30:23:256;0.21068975;9.940725;-0.36391866
10:30:23:335;10:30:23:256;0.21068975;9.940725;-0.36391866
10:30:23:343;10:30:23:256;0.21068975;9.940725;-0.36391866
10:30:23:351;10:30:23:256;0.21068975;9.940725;-0.36391866
10:30:23:359;10:30:23:256;0.21068975;9.940725;-0.36391866
10:30:23:367;10:30:23:256;0.21068975;9.940725;-0.36391866
10:30:23:375;10:30:23:256;0.21068975;9.940725;-0.36391866
10:30:23:382;10:30:23:377;0.36391866;9.844957;-0.22984336
10:30:23:390;10:30:23:377;0.36391866;9.844957;-0.22984336
10:30:23:398;10:30:23:377;0.36391866;9.844957;-0.22984336
10:30:23:406;10:30:23:377;0.36391866;9.844957;-0.22984336
10:30:23:414;10:30:23:377;0.36391866;9.844957;-0.22984336
10:30:23:421;10:30:23:377;0.36391866;9.844957;-0.22984336
10:30:23:429;10:30:23:377;0.36391866;9.844957;-0.22984336
10:30:23:437;10:30:23:377;0.36391866;9.844957;-0.22984336
10:30:23:445;10:30:23:377;0.36391866;9.844957;-0.22984336
10:30:23:453;10:30:23:377;0.36391866;9.844957;-0.22984336
10:30:23:460;10:30:23:377;0.36391866;9.844957;-0.22984336
10:30:23:468;10:30:23:377;0.36391866;9.844957;-0.22984336
10:30:23:476;10:30:23:377;0.36391866;9.844957;-0.22984336
10:30:23:484;10:30:23:377;0.36391866;9.844957;-0.22984336
10:30:23:492;10:30:23:488;0.076614454;9.9790325;-0.1340753
10:30:23:500;10:30:23:488;0.076614454;9.9790325;-0.1340753
10:30:23:507;10:30:23:488;0.076614454;9.9790325;-0.1340753
10:30:23:515;10:30:23:488;0.076614454;9.9790325;-0.1340753
10:30:23:523;10:30:23:488;0.076614454;9.9790325;-0.1340753
10:30:23:531;10:30:23:488;0.076614454;9.9790325;-0.1340753
10:30:23:539;10:30:23:488;0.076614454;9.9790325;-0.1340753
10:30:23:546;10:30:23:488;0.076614454;9.9790325;-0.1340753
10:30:23:554;10:30:23:488;0.076614454;9.9790325;-0.1340753
10:30:23:562;10:30:23:488;0.076614454;9.9790325;-0.1340753
10:30:23:570;10:30:23:488;0.076614454;9.9790325;-0.1340753
10:30:23:578;10:30:23:488;0.076614454;9.9790325;-0.1340753
10:30:23:585;10:30:23:488;0.076614454;9.9790325;-0.1340753
10:30:23:593;10:30:23:591;0.095768064;10.0748005;-0.11492168
10:30:23:601;10:30:23:591;0.095768064;10.0748005;-0.11492168
10:30:23:609;10:30:23:591;0.095768064;10.0748005;-0.11492168
10:30:23:617;10:30:23:591;0.095768064;10.0748005;-0.11492168
10:30:23:625;10:30:23:591;0.095768064;10.0748005;-0.11492168
10:30:23:632;10:30:23:591;0.095768064;10.0748005;-0.11492168
10:30:23:640;10:30:23:591;0.095768064;10.0748005;-0.11492168
10:30:23:648;10:30:23:591;0.095768064;10.0748005;-0.11492168
10:30:23:656;10:30:23:591;0.095768064;10.0748005;-0.11492168
10:30:23:664;10:30:23:591;0.095768064;10.0748005;-0.11492168
10:30:23:671;10:30:23:591;0.095768064;10.0748005;-0.11492168
10:30:23:679;10:30:23:591;0.095768064;10.0748005;-0.11492168
10:30:23:687;10:30:23:591;0.095768064;10.0748005;-0.11492168
10:30:23:695;10:30:23:591;0.095768064;10.0748005;-0.11492168
10:30:23:703;10:30:23:591;0.095768064;10.0748005;-0.11492168
10:30:23:710;10:30:23:591;0.095768064;10.0748005;-0.11492168
10:30:23:718;10:30:23:714;0.15322891;10.036493;-0.32561144
10:30:23:726;10:30:23:714;0.15322891;10.036493;-0.32561144
10:30:23:734;10:30:23:714;0.15322891;10.036493;-0.32561144
10:30:23:742;10:30:23:714;0.15322891;10.036493;-0.32561144
10:30:23:750;10:30:23:714;0.15322891;10.036493;-0.32561144
10:30:23:757;10:30:23:714;0.15322891;10.036493;-0.32561144
10:30:23:765;10:30:23:714;0.15322891;10.036493;-0.32561144
10:30:23:773;10:30:23:714;0.15322891;10.036493;-0.32561144
10:30:23:781;10:30:23:714;0.15322891;10.036493;-0.32561144
10:30:23:789;10:30:23:714;0.15322891;10.036493;-0.32561144
10:30:23:796;10:30:23:714;0.15322891;10.036493;-0.32561144
10:30:23:804;10:30:23:714;0.15322891;10.036493;-0.32561144
10:30:23:812;10:30:23:714;0.15322891;10.036493;-0.32561144
10:30:23:820;10:30:23:714;0.15322891;10.036493;-0.32561144
10:30:23:828;10:30:23:714;0.15322891;10.036493;-0.32561144
10:30:23:835;10:30:23:831;0.05746084;9.998186;-0.21068975
10:30:23:843;10:30:23:831;0.05746084;9.998186;-0.21068975
10:30:23:851;10:30:23:831;0.05746084;9.998186;-0.21068975
10:30:23:859;10:30:23:831;0.05746084;9.998186;-0.21068975
10:30:23:867;10:30:23:831;0.05746084;9.998186;-0.21068975
10:30:23:875;10:30:23:831;0.05746084;9.998186;-0.21068975
10:30:23:882;10:30:23:831;0.05746084;9.998186;-0.21068975
10:30:23:890;10:30:23:831;0.05746084;9.998186;-0.21068975
10:30:23:898;10:30:23:831;0.05746084;9.998186;-0.21068975
10:30:23:906;10:30:23:831;0.05746084;9.998186;-0.21068975
10:30:23:914;10:30:23:831;0.05746084;9.998186;-0.21068975
10:30:23:921;10:30:23:831;0.05746084;9.998186;-0.21068975
10:30:23:929;10:30:23:831;0.05746084;9.998186;-0.21068975
10:30:23:937;10:30:23:831;0.05746084;9.998186;-0.21068975
10:30:23:945;10:30:23:831;0.05746084;9.998186;-0.21068975
10:30:23:953;10:30:23:948;0.1340753;9.921572;-0.05746084
10:30:23:960;10:30:23:948;0.1340753;9.921572;-0.05746084
10:30:23:968;10:30:23:948;0.1340753;9.921572;-0.05746084
10:30:23:976;10:30:23:948;0.1340753;9.921572;-0.05746084
10:30:23:984;10:30:23:948;0.1340753;9.921572;-0.05746084
10:30:23:992;10:30:23:948;0.1340753;9.921572;-0.05746084
10:30:24:000;10:30:23:948;0.1340753;9.921572;-0.05746084
10:30:24:007;10:30:23:948;0.1340753;9.921572;-0.05746084
10:30:24:015;10:30:23:948;0.1340753;9.921572;-0.05746084
10:30:24:023;10:30:23:948;0.1340753;9.921572;-0.05746084
10:30:24:031;10:30:23:948;0.1340753;9.921572;-0.05746084
10:30:24:039;10:30:23:948;0.1340753;9.921572;-0.05746084
10:30:24:046;10:30:23:948;0.1340753;9.921572;-0.05746084
10:30:24:054;10:30:23:948;0.1340753;9.921572;-0.05746084
10:30:24:062;10:30:23:948;0.1340753;9.921572;-0.05746084
10:30:24:070;10:30:24:068;0.19153613;10.0748005;-0.6703765
10:30:24:078;10:30:24:068;0.19153613;10.0748005;-0.6703765
10:30:24:085;10:30:24:068;0.19153613;10.0748005;-0.6703765
10:30:24:093;10:30:24:068;0.19153613;10.0748005;-0.6703765
10:30:24:101;10:30:24:068;0.19153613;10.0748005;-0.6703765
10:30:24:109;10:30:24:068;0.19153613;10.0748005;-0.6703765
10:30:24:117;10:30:24:068;0.19153613;10.0748005;-0.6703765
10:30:24:125;10:30:24:068;0.19153613;10.0748005;-0.6703765
10:30:24:132;10:30:24:068;0.19153613;10.0748005;-0.6703765
10:30:24:140;10:30:24:068;0.19153613;10.0748005;-0.6703765
10:30:24:148;10:30:24:068;0.19153613;10.0748005;-0.6703765
10:30:24:156;10:30:24:068;0.19153613;10.0748005;-0.6703765
10:30:24:164;10:30:24:068;0.19153613;10.0748005;-0.6703765
10:30:24:171;10:30:24:170;-0.019153614;10.055647;-0.7661445
10:30:24:179;10:30:24:170;-0.019153614;10.055647;-0.7661445
10:30:24:187;10:30:24:170;-0.019153614;10.055647;-0.7661445
10:30:24:195;10:30:24:170;-0.019153614;10.055647;-0.7661445
10:30:24:203;10:30:24:170;-0.019153614;10.055647;-0.7661445
10:30:24:210;10:30:24:170;-0.019153614;10.055647;-0.7661445
10:30:24:218;10:30:24:170;-0.019153614;10.055647;-0.7661445
10:30:24:226;10:30:24:170;-0.019153614;10.055647;-0.7661445
10:30:24:234;10:30:24:170;-0.019153614;10.055647;-0.7661445
10:30:24:242;10:30:24:170;-0.019153614;10.055647;-0.7661445
10:30:24:250;10:30:24:170;-0.019153614;10.055647;-0.7661445
10:30:24:257;10:30:24:170;-0.019153614;10.055647;-0.7661445
10:30:24:265;10:30:24:170;-0.019153614;10.055647;-0.7661445
10:30:24:273;10:30:24:170;-0.019153614;10.055647;-0.7661445
10:30:24:281;10:30:24:274;0.05746084;10.093954;-0.6512229
10:30:24:289;10:30:24:274;0.05746084;10.093954;-0.6512229
10:30:24:296;10:30:24:274;0.05746084;10.093954;-0.6512229
10:30:24:304;10:30:24:274;0.05746084;10.093954;-0.6512229
10:30:24:312;10:30:24:274;0.05746084;10.093954;-0.6512229
10:30:24:320;10:30:24:274;0.05746084;10.093954;-0.6512229
10:30:24:328;10:30:24:274;0.05746084;10.093954;-0.6512229
10:30:24:335;10:30:24:274;0.05746084;10.093954;-0.6512229
10:30:24:343;10:30:24:274;0.05746084;10.093954;-0.6512229
10:30:24:351;10:30:24:274;0.05746084;10.093954;-0.6512229
10:30:24:359;10:30:24:274;0.05746084;10.093954;-0.6512229
10:30:24:367;10:30:24:274;0.05746084;10.093954;-0.6512229
10:30:24:375;10:30:24:274;0.05746084;10.093954;-0.6512229
10:30:24:382;10:30:24:376;0.11492168;10.228029;-0.61291564
10:30:24:390;10:30:24:376;0.11492168;10.228029;-0.61291564
10:30:24:398;10:30:24:376;0.11492168;10.228029;-0.61291564
10:30:24:406;10:30:24:376;0.11492168;10.228029;-0.61291564
10:30:24:414;10:30:24:376;0.11492168;10.228029;-0.61291564
10:30:24:421;10:30:24:376;0.11492168;10.228029;-0.61291564
10:30:24:429;10:30:24:376;0.11492168;10.228029;-0.61291564
10:30:24:437;10:30:24:376;0.11492168;10.228029;-0.61291564
10:30:24:445;10:30:24:376;0.11492168;10.228029;-0.61291564
10:30:24:453;10:30:24:376;0.11492168;10.228029;-0.61291564
10:30:24:460;10:30:24:376;0.11492168;10.228029;-0.61291564
10:30:24:468;10:30:24:376;0.11492168;10.228029;-0.61291564
10:30:24:476;10:30:24:376;0.11492168;10.228029;-0.61291564
10:30:24:484;10:30:24:376;0.11492168;10.228029;-0.61291564
10:30:24:492;10:30:24:376;0.11492168;10.228029;-0.61291564
10:30:24:500;10:30:24:376;0.11492168;10.228029;-0.61291564
10:30:24:507;10:30:24:376;0.11492168;10.228029;-0.61291564
10:30:24:515;10:30:24:376;0.11492168;10.228029;-0.61291564
10:30:24:523;10:30:24:376;0.11492168;10.228029;-0.61291564
10:30:24:531;10:30:24:376;0.11492168;10.228029;-0.61291564
10:30:24:539;10:30:24:376;0.11492168;10.228029;-0.61291564
10:30:24:546;10:30:24:376;0.11492168;10.228029;-0.61291564
10:30:24:554;10:30:24:376;0.11492168;10.228029;-0.61291564
10:30:24:562;10:30:24:376;0.11492168;10.228029;-0.61291564
10:30:24:570;10:30:24:376;0.11492168;10.228029;-0.61291564
10:30:24:578;10:30:24:376;0.11492168;10.228029;-0.61291564
10:30:24:585;10:30:24:376;0.11492168;10.228029;-0.61291564
10:30:24:593;10:30:24:376;0.11492168;10.228029;-0.61291564
10:30:24:601;10:30:24:376;0.11492168;10.228029;-0.61291564
10:30:24:609;10:30:24:376;0.11492168;10.228029;-0.61291564
10:30:24:617;10:30:24:376;0.11492168;10.228029;-0.61291564
10:30:24:625;10:30:24:376;0.11492168;10.228029;-0.61291564
10:30:24:632;10:30:24:376;0.11492168;10.228029;-0.61291564
10:30:24:640;10:30:24:376;0.11492168;10.228029;-0.61291564
10:30:24:648;10:30:24:376;0.11492168;10.228029;-0.61291564
10:30:24:656;10:30:24:376;0.11492168;10.228029;-0.61291564
10:30:24:664;10:30:24:376;0.11492168;10.228029;-0.61291564
10:30:24:671;10:30:24:376;0.11492168;10.228029;-0.61291564
10:30:24:679;10:30:24:376;0.11492168;10.228029;-0.61291564
10:30:24:687;10:30:24:376;0.11492168;10.228029;-0.61291564
10:30:24:695;10:30:24:376;0.11492168;10.228029;-0.61291564
10:30:24:703;10:30:24:376;0.11492168;10.228029;-0.61291564
10:30:24:710;10:30:24:376;0.11492168;10.228029;-0.61291564
10:30:24:718;10:30:24:376;0.11492168;10.228029;-0.61291564
10:30:24:726;10:30:24:376;0.11492168;10.228029;-0.61291564
10:30:24:734;10:30:24:376;0.11492168;10.228029;-0.61291564
10:30:24:742;10:30:24:376;0.11492168;10.228029;-0.61291564
10:30:24:750;10:30:24:376;0.11492168;10.228029;-0.61291564
10:30:24:757;10:30:24:376;0.11492168;10.228029;-0.61291564
10:30:24:765;10:30:24:376;0.11492168;10.228029;-0.61291564
10:30:24:773;10:30:24:376;0.11492168;10.228029;-0.61291564
10:30:24:781;10:30:24:376;0.11492168;10.228029;-0.61291564
10:30:24:789;10:30:24:376;0.11492168;10.228029;-0.61291564
10:30:24:796;10:30:24:376;0.11492168;10.228029;-0.61291564
10:30:24:804;10:30:24:376;0.11492168;10.228029;-0.61291564
10:30:24:812;10:30:24:376;0.11492168;10.228029;-0.61291564
10:30:24:820;10:30:24:376;0.11492168;10.228029;-0.61291564
10:30:24:828;10:30:24:376;0.11492168;10.228029;-0.61291564
10:30:24:835;10:30:24:376;0.11492168;10.228029;-0.61291564
10:30:24:843;10:30:24:376;0.11492168;10.228029;-0.61291564
10:30:24:851;10:30:24:376;0.11492168;10.228029;-0.61291564
10:30:24:859;10:30:24:376;0.11492168;10.228029;-0.61291564
10:30:24:867;10:30:24:376;0.11492168;10.228029;-0.61291564
10:30:24:875;10:30:24:376;0.11492168;10.228029;-0.61291564
10:30:24:882;10:30:24:376;0.11492168;10.228029;-0.61291564
10:30:24:890;10:30:24:376;0.11492168;10.228029;-0.61291564
10:30:24:898;10:30:24:376;0.11492168;10.228029;-0.61291564
10:30:24:906;10:30:24:376;0.11492168;10.228029;-0.61291564
10:30:24:914;10:30:24:376;0.11492168;10.228029;-0.61291564
10:30:24:921;10:30:24:376;0.11492168;10.228029;-0.61291564
10:30:24:929;10:30:24:376;0.11492168;10.228029;-0.61291564
10:30:24:937;10:30:24:376;0.11492168;10.228029;-0.61291564
10:30:24:945;10:30:24:376;0.11492168;10.228029;-0.61291564
10:30:24:953;10:30:24:376;0.11492168;10.228029;-0.61291564
10:30:24:960;10:30:24:376;0.11492168;10.228029;-0.61291564
10:30:24:968;10:30:24:376;0.11492168;10.228029;-0.61291564
10:30:24:976;10:30:24:376;0.11492168;10.228029;-0.61291564
10:30:24:984;10:30:24:376;0.11492168;10.228029;-0.61291564
10:30:24:992;10:30:24:376;0.11492168;10.228029;-0.61291564
10:30:25:000;10:30:24:376;0.11492168;10.228029;-0.61291564
10:30:25:007;10:30:24:376;0.11492168;10.228029;-0.61291564
10:30:25:015;10:30:24:376;0.11492168;10.228029;-0.61291564
10:30:25:023;10:30:24:376;0.11492168;10.228029;-0.61291564
10:30:25:031;10:30:24:376;0.11492168;10.228029;-0.61291564
10:30:25:039;10:30:24:376;0.11492168;10.228029;-0.61291564
10:30:25:046;10:30:24:376;0.11492168;10.228029;-0.61291564
10:30:25:054;10:30:24:376;0.11492168;10.228029;-0.61291564
10:30:25:062;10:30:24:376;0.11492168;10.228029;-0.61291564
10:30:25:070;10:30:24:376;0.11492168;10.228029;-0.61291564
10:30:25:078;10:30:24:376;0.11492168;10.228029;-0.61291564
10:30:25:085;10:30:24:376;0.11492168;10.228029;-0.61291564
10:30:25:093;10:30:24:376;0.11492168;10.228029;-0.61291564
10:30:25:101;10:30:24:376;0.11492168;10.228029;-0.61291564
10:30:25:109;10:30:24:376;0.11492168;10.228029;-0.61291564
10:30:25:117;10:30:24:376;0.11492168;10.228029;-0.61291564
10:30:25:125;10:30:24:376;0.11492168;10.228029;-0.61291564
10:30:25:132;10:30:24:376;0.11492168;10.228029;-0.61291564
10:30:25:140;10:30:24:376;0.11492168;10.228029;-0.61291564
10:30:25:148;10:30:24:376;0.11492168;10.228029;-0.61291564
10:30:25:156;10:30:24:376;0.11492168;10.228029;-0.61291564
10:30:25:164;10:30:24:376;0.11492168;10.228029;-0.61291564
10:30:25:171;10:30:24:376;0.11492168;10.228029;-0.61291564
10:30:25:179;10:30:24:376;0.11492168;10.228029;-0.61291564
10:30:25:187;10:30:24:376;0.11492168;10.228029;-0.61291564
10:30:25:195;10:30:24:376;0.11492168;10.228029;-0.61291564
10:30:25:203;10:30:24:376;0.11492168;10.228029;-0.61291564
10:30:25:210;10:30:24:376;0.11492168;10.228029;-0.61291564
10:30:25:218;10:30:24:376;0.11492168;10.228029;-0.61291564
10:30:25:226;10:30:24:376;0.11492168;10.228029;-0.61291564
10:30:25:234;10:30:24:376;0.11492168;10.228029;-0.61291564
10:30:25:242;10:30:24:376;0.11492168;10.228029;-0.61291564
10:30:25:250;10:30:24:376;0.11492168;10.228029;-0.61291564
10:30:25:257;10:30:24:376;0.11492168;10.228029;-0.61291564
10:30:25:265;10:30:24:376;0.11492168;10.228029;-0.61291564
10:30:25:273;10:30:24:376;0.11492168;10.228029;-0.61291564
10:30:25:281;10:30:24:376;0.11492168;10.228029;-0.61291564
10:30:25:289;10:30:24:376;0.11492168;10.228029;-0.61291564
10:30:25:296;10:30:24:376;0.11492168;10.228029;-0.61291564
10:30:25:304;10:30:24:376;0.11492168;10.228029;-0.61291564
10:30:25:312;10:30:24:376;0.11492168;10.228029;-0.61291564
10:30:25:320;10:30:24:376;0.11492168;10.228029;-0.61291564
10:30:25:328;10:30:24:376;0.11492168;10.228029;-0.61291564
10:30:25:335;10:30:24:376;0.11492168;10.228029;-0.61291564
10:30:25:343;10:30:24:376;0.11492168;10.228029;-0.61291564
10:30:25:351;10:30:24:376;0.11492168;10.228029;-0.61291564
10:30:25:359;10:30:25:352;0.11492168;9.940725;-0.47884035
10:30:25:367;10:30:25:352;0.11492168;9.940725;-0.47884035
10:30:25:375;10:30:25:352;0.11492168;9.940725;-0.47884035
10:30:25:382;10:30:25:352;0.11492168;9.940725;-0.47884035
10:30:25:390;10:30:25:352;0.11492168;9.940725;-0.47884035
10:30:25:398;10:30:25:352;0.11492168;9.940725;-0.47884035
10:30:25:406;10:30:25:352;0.11492168;9.940725;-0.47884035
10:30:25:414;10:30:25:352;0.11492168;9.940725;-0.47884035
10:30:25:421;10:30:25:352;0.11492168;9.940725;-0.47884035
10:30:25:429;10:30:25:352;0.11492168;9.940725;-0.47884035
10:30:25:437;10:30:25:352;0.11492168;9.940725;-0.47884035
10:30:25:445;10:30:25:352;0.11492168;9.940725;-0.47884035
10:30:25:453;10:30:25:352;0.11492168;9.940725;-0.47884035
10:30:25:460;10:30:25:352;0.11492168;9.940725;-0.47884035
10:30:25:468;10:30:25:352;0.11492168;9.940725;-0.47884035
10:30:25:476;10:30:25:352;0.11492168;9.940725;-0.47884035
10:30:25:484;10:30:25:352;0.11492168;9.940725;-0.47884035
10:30:25:492;10:30:25:352;0.11492168;9.940725;-0.47884035
10:30:25:500;10:30:25:352;0.11492168;9.940725;-0.47884035
10:30:25:507;10:30:25:352;0.11492168;9.940725;-0.47884035
10:30:25:515;10:30:25:352;0.11492168;9.940725;-0.47884035
10:30:25:523;10:30:25:352;0.11492168;9.940725;-0.47884035
10:30:25:531;10:30:25:529;0.1340753;10.151415;-0.63206923
10:30:25:539;10:30:25:529;0.1340753;10.151415;-0.63206923
10:30:25:546;10:30:25:529;0.1340753;10.151415;-0.63206923
10:30:25:554;10:30:25:529;0.1340753;10.151415;-0.63206923
10:30:25:562;10:30:25:529;0.1340753;10.151415;-0.63206923
10:30:25:570;10:30:25:529;0.1340753;10.151415;-0.63206923
10:30:25:578;10:30:25:529;0.1340753;10.151415;-0.63206923
10:30:25:585;10:30:25:529;0.1340753;10.151415;-0.63206923
10:30:25:593;10:30:25:529;0.1340753;10.151415;-0.63206923
10:30:25:601;10:30:25:529;0.1340753;10.151415;-0.63206923
10:30:25:609;10:30:25:529;0.1340753;10.151415;-0.63206923
10:30:25:617;10:30:25:529;0.1340753;10.151415;-0.63206923
10:30:25:625;10:30:25:529;0.1340753;10.151415;-0.63206923
10:30:25:632;10:30:25:632;-0.019153614;10.055647;-0.49799395
10:30:25:640;10:30:25:632;-0.019153614;10.055647;-0.49799395
10:30:25:648;10:30:25:632;-0.019153614;10.055647;-0.49799395
10:30:25:656;10:30:25:632;-0.019153614;10.055647;-0.49799395
10:30:25:664;10:30:25:632;-0.019153614;10.055647;-0.49799395
10:30:25:671;10:30:25:632;-0.019153614;10.055647;-0.49799395
10:30:25:679;10:30:25:632;-0.019153614;10.055647;-0.49799395
10:30:25:687;10:30:25:632;-0.019153614;10.055647;-0.49799395
10:30:25:695;10:30:25:632;-0.019153614;10.055647;-0.49799395
10:30:25:703;10:30:25:632;-0.019153614;10.055647;-0.49799395
10:30:25:710;10:30:25:632;-0.019153614;10.055647;-0.49799395
10:30:25:718;10:30:25:632;-0.019153614;10.055647;-0.49799395
10:30:25:726;10:30:25:632;-0.019153614;10.055647;-0.49799395
10:30:25:734;10:30:25:632;-0.019153614;10.055647;-0.49799395
10:30:25:742;10:30:25:737;0.34476504;10.055647;-0.2873042
10:30:25:750;10:30:25:737;0.34476504;10.055647;-0.2873042
10:30:25:757;10:30:25:737;0.34476504;10.055647;-0.2873042
10:30:25:765;10:30:25:737;0.34476504;10.055647;-0.2873042
10:30:25:773;10:30:25:737;0.34476504;10.055647;-0.2873042
10:30:25:781;10:30:25:737;0.34476504;10.055647;-0.2873042
10:30:25:789;10:30:25:737;0.34476504;10.055647;-0.2873042
10:30:25:796;10:30:25:737;0.34476504;10.055647;-0.2873042
10:30:25:804;10:30:25:737;0.34476504;10.055647;-0.2873042
10:30:25:812;10:30:25:737;0.34476504;10.055647;-0.2873042
10:30:25:820;10:30:25:737;0.34476504;10.055647;-0.2873042
10:30:25:828;10:30:25:737;0.34476504;10.055647;-0.2873042
10:30:25:835;10:30:25:737;0.34476504;10.055647;-0.2873042
10:30:25:843;10:30:25:737;0.34476504;10.055647;-0.2873042
10:30:25:851;10:30:25:737;0.34476504;10.055647;-0.2873042
10:30:25:859;10:30:25:855;0.038307227;9.902418;-0.32561144
10:30:25:867;10:30:25:855;0.038307227;9.902418;-0.32561144
10:30:25:875;10:30:25:855;0.038307227;9.902418;-0.32561144
10:30:25:882;10:30:25:855;0.038307227;9.902418;-0.32561144
10:30:25:890;10:30:25:855;0.038307227;9.902418;-0.32561144
10:30:25:898;10:30:25:855;0.038307227;9.902418;-0.32561144
10:30:25:906;10:30:25:855;0.038307227;9.902418;-0.32561144
10:30:25:914;10:30:25:855;0.038307227;9.902418;-0.32561144
10:30:25:921;10:30:25:855;0.038307227;9.902418;-0.32561144
10:30:25:929;10:30:25:855;0.038307227;9.902418;-0.32561144
10:30:25:937;10:30:25:855;0.038307227;9.902418;-0.32561144
10:30:25:945;10:30:25:855;0.038307227;9.902418;-0.32561144
10:30:25:953;10:30:25:855;0.038307227;9.902418;-0.32561144
10:30:25:960;10:30:25:855;0.038307227;9.902418;-0.32561144
10:30:25:968;10:30:25:964;-0.32561144;9.959879;-0.40222588
10:30:25:976;10:30:25:964;-0.32561144;9.959879;-0.40222588
10:30:25:984;10:30:25:964;-0.32561144;9.959879;-0.40222588
10:30:25:992;10:30:25:964;-0.32561144;9.959879;-0.40222588
10:30:26:000;10:30:25:964;-0.32561144;9.959879;-0.40222588
10:30:26:007;10:30:25:964;-0.32561144;9.959879;-0.40222588
10:30:26:015;10:30:25:964;-0.32561144;9.959879;-0.40222588
10:30:26:023;10:30:25:964;-0.32561144;9.959879;-0.40222588
10:30:26:031;10:30:25:964;-0.32561144;9.959879;-0.40222588
10:30:26:039;10:30:25:964;-0.32561144;9.959879;-0.40222588
10:30:26:046;10:30:25:964;-0.32561144;9.959879;-0.40222588
10:30:26:054;10:30:25:964;-0.32561144;9.959879;-0.40222588
10:30:26:062;10:30:25:964;-0.32561144;9.959879;-0.40222588
10:30:26:070;10:30:25:964;-0.32561144;9.959879;-0.40222588
10:30:26:078;10:30:26:075;-0.24899697;9.921572;-0.5363012
10:30:26:085;10:30:26:075;-0.24899697;9.921572;-0.5363012
10:30:26:093;10:30:26:075;-0.24899697;9.921572;-0.5363012
10:30:26:101;10:30:26:075;-0.24899697;9.921572;-0.5363012
10:30:26:109;10:30:26:075;-0.24899697;9.921572;-0.5363012
10:30:26:117;10:30:26:075;-0.24899697;9.921572;-0.5363012
10:30:26:125;10:30:26:075;-0.24899697;9.921572;-0.5363012
10:30:26:132;10:30:26:075;-0.24899697;9.921572;-0.5363012
10:30:26:140;10:30:26:075;-0.24899697;9.921572;-0.5363012
10:30:26:148;10:30:26:075;-0.24899697;9.921572;-0.5363012
10:30:26:156;10:30:26:075;-0.24899697;9.921572;-0.5363012
10:30:26:164;10:30:26:075;-0.24899697;9.921572;-0.5363012
10:30:26:171;10:30:26:075;-0.24899697;9.921572;-0.5363012
10:30:26:179;10:30:26:075;-0.24899697;9.921572;-0.5363012
10:30:26:187;10:30:26:075;-0.24899697;9.921572;-0.5363012
10:30:26:195;10:30:26:192;-0.36391866;10.093954;-0.8619126
10:30:26:203;10:30:26:192;-0.36391866;10.093954;-0.8619126
10:30:26:210;10:30:26:192;-0.36391866;10.093954;-0.8619126
10:30:26:218;10:30:26:192;-0.36391866;10.093954;-0.8619126
10:30:26:226;10:30:26:192;-0.36391866;10.093954;-0.8619126
10:30:26:234;10:30:26:192;-0.36391866;10.093954;-0.8619126
10:30:26:242;10:30:26:192;-0.36391866;10.093954;-0.8619126
10:30:26:250;10:30:26:192;-0.36391866;10.093954;-0.8619126
10:30:26:257;10:30:26:192;-0.36391866;10.093954;-0.8619126
10:30:26:265;10:30:26:192;-0.36391866;10.093954;-0.8619126
10:30:26:273;10:30:26:192;-0.36391866;10.093954;-0.8619126
10:30:26:281;10:30:26:192;-0.36391866;10.093954;-0.8619126
10:30:26:289;10:30:26:192;-0.36391866;10.093954;-0.8619126
10:30:26:296;10:30:26:293;-0.22984336;9.9790325;-1.0726024
10:30:26:304;10:30:26:293;-0.22984336;9.9790325;-1.0726024
10:30:26:312;10:30:26:293;-0.22984336;9.9790325;-1.0726024
10:30:26:320;10:30:26:293;-0.22984336;9.9790325;-1.0726024
10:30:26:328;10:30:26:293;-0.22984336;9.9790325;-1.0726024
10:30:26:335;10:30:26:293;-0.22984336;9.9790325;-1.0726024
10:30:26:343;10:30:26:293;-0.22984336;9.9790325;-1.0726024
10:30:26:351;10:30:26:293;-0.22984336;9.9790325;-1.0726024
10:30:26:359;10:30:26:293;-0.22984336;9.9790325;-1.0726024
10:30:26:367;10:30:26:293;-0.22984336;9.9790325;-1.0726024
10:30:26:375;10:30:26:293;-0.22984336;9.9790325;-1.0726024
10:30:26:382;10:30:26:293;-0.22984336;9.9790325;-1.0726024
10:30:26:390;10:30:26:293;-0.22984336;9.9790325;-1.0726024
10:30:26:398;10:30:26:293;-0.22984336;9.9790325;-1.0726024
10:30:26:406;10:30:26:293;-0.22984336;9.9790325;-1.0726024
10:30:26:414;10:30:26:412;-0.05746084;9.825804;-1.1875241
10:30:26:421;10:30:26:412;-0.05746084;9.825804;-1.1875241
10:30:26:429;10:30:26:412;-0.05746084;9.825804;-1.1875241
10:30:26:437;10:30:26:412;-0.05746084;9.825804;-1.1875241
10:30:26:445;10:30:26:412;-0.05746084;9.825804;-1.1875241
10:30:26:453;10:30:26:412;-0.05746084;9.825804;-1.1875241
10:30:26:460;10:30:26:412;-0.05746084;9.825804;-1.1875241
10:30:26:468;10:30:26:412;-0.05746084;9.825804;-1.1875241
10:30:26:476;10:30:26:412;-0.05746084;9.825804;-1.1875241
10:30:26:484;10:30:26:412;-0.05746084;9.825804;-1.1875241
10:30:26:492;10:30:26:412;-0.05746084;9.825804;-1.1875241
10:30:26:500;10:30:26:412;-0.05746084;9.825804;-1.1875241
10:30:26:507;10:30:26:412;-0.05746084;9.825804;-1.1875241
10:30:26:515;10:30:26:515;-0.24899697;9.940725;-1.2066777
10:30:26:523;10:30:26:515;-0.24899697;9.940725;-1.2066777
10:30:26:531;10:30:26:515;-0.24899697;9.940725;-1.2066777
10:30:26:539;10:30:26:515;-0.24899697;9.940725;-1.2066777
10:30:26:546;10:30:26:515;-0.24899697;9.940725;-1.2066777
10:30:26:554;10:30:26:515;-0.24899697;9.940725;-1.2066777
10:30:26:562;10:30:26:515;-0.24899697;9.940725;-1.2066777
10:30:26:570;10:30:26:515;-0.24899697;9.940725;-1.2066777
10:30:26:578;10:30:26:515;-0.24899697;9.940725;-1.2066777
10:30:26:585;10:30:26:515;-0.24899697;9.940725;-1.2066777
10:30:26:593;10:30:26:515;-0.24899697;9.940725;-1.2066777
10:30:26:601;10:30:26:515;-0.24899697;9.940725;-1.2066777
10:30:26:609;10:30:26:515;-0.24899697;9.940725;-1.2066777
10:30:26:617;10:30:26:515;-0.24899697;9.940725;-1.2066777
10:30:26:625;10:30:26:515;-0.24899697;9.940725;-1.2066777
10:30:26:632;10:30:26:632;-0.78529817;10.036493;-1.0726024
10:30:26:640;10:30:26:632;-0.78529817;10.036493;-1.0726024
10:30:26:648;10:30:26:632;-0.78529817;10.036493;-1.0726024
10:30:26:656;10:30:26:632;-0.78529817;10.036493;-1.0726024
10:30:26:664;10:30:26:632;-0.78529817;10.036493;-1.0726024
10:30:26:671;10:30:26:632;-0.78529817;10.036493;-1.0726024
10:30:26:679;10:30:26:632;-0.78529817;10.036493;-1.0726024
10:30:26:687;10:30:26:632;-0.78529817;10.036493;-1.0726024
10:30:26:695;10:30:26:632;-0.78529817;10.036493;-1.0726024
10:30:26:703;10:30:26:632;-0.78529817;10.036493;-1.0726024
10:30:26:710;10:30:26:632;-0.78529817;10.036493;-1.0726024
10:30:26:718;10:30:26:632;-0.78529817;10.036493;-1.0726024
10:30:26:726;10:30:26:632;-0.78529817;10.036493;-1.0726024
10:30:26:734;10:30:26:734;-0.5554548;10.132261;-1.2449849
10:30:26:742;10:30:26:734;-0.5554548;10.132261;-1.2449849
10:30:26:750;10:30:26:734;-0.5554548;10.132261;-1.2449849
10:30:26:757;10:30:26:734;-0.5554548;10.132261;-1.2449849
10:30:26:765;10:30:26:734;-0.5554548;10.132261;-1.2449849
10:30:26:773;10:30:26:734;-0.5554548;10.132261;-1.2449849
10:30:26:781;10:30:26:734;-0.5554548;10.132261;-1.2449849
10:30:26:789;10:30:26:734;-0.5554548;10.132261;-1.2449849
10:30:26:796;10:30:26:734;-0.5554548;10.132261;-1.2449849
10:30:26:804;10:30:26:734;-0.5554548;10.132261;-1.2449849
10:30:26:812;10:30:26:734;-0.5554548;10.132261;-1.2449849
10:30:26:820;10:30:26:734;-0.5554548;10.132261;-1.2449849
10:30:26:828;10:30:26:734;-0.5554548;10.132261;-1.2449849
10:30:26:835;10:30:26:734;-0.5554548;10.132261;-1.2449849
10:30:26:843;10:30:26:734;-0.5554548;10.132261;-1.2449849
10:30:26:851;10:30:26:734;-0.5554548;10.132261;-1.2449849
10:30:26:859;10:30:26:852;-0.80445176;10.170568;-0.80445176
10:30:26:867;10:30:26:852;-0.80445176;10.170568;-0.80445176
10:30:26:875;10:30:26:852;-0.80445176;10.170568;-0.80445176
10:30:26:882;10:30:26:852;-0.80445176;10.170568;-0.80445176
10:30:26:890;10:30:26:852;-0.80445176;10.170568;-0.80445176
10:30:26:898;10:30:26:852;-0.80445176;10.170568;-0.80445176
10:30:26:906;10:30:26:852;-0.80445176;10.170568;-0.80445176
10:30:26:914;10:30:26:852;-0.80445176;10.170568;-0.80445176
10:30:26:921;10:30:26:852;-0.80445176;10.170568;-0.80445176
10:30:26:929;10:30:26:852;-0.80445176;10.170568;-0.80445176
10:30:26:937;10:30:26:852;-0.80445176;10.170568;-0.80445176
10:30:26:945;10:30:26:852;-0.80445176;10.170568;-0.80445176
10:30:26:953;10:30:26:852;-0.80445176;10.170568;-0.80445176
10:30:26:960;10:30:26:852;-0.80445176;10.170568;-0.80445176
10:30:26:968;10:30:26:852;-0.80445176;10.170568;-0.80445176
10:30:26:976;10:30:26:975;-0.45968673;9.883265;-0.8810662
10:30:26:984;10:30:26:975;-0.45968673;9.883265;-0.8810662
10:30:26:992;10:30:26:975;-0.45968673;9.883265;-0.8810662
10:30:27:000;10:30:26:975;-0.45968673;9.883265;-0.8810662
10:30:27:007;10:30:26:975;-0.45968673;9.883265;-0.8810662
10:30:27:015;10:30:26:975;-0.45968673;9.883265;-0.8810662
10:30:27:023;10:30:26:975;-0.45968673;9.883265;-0.8810662
10:30:27:031;10:30:26:975;-0.45968673;9.883265;-0.8810662
10:30:27:039;10:30:26:975;-0.45968673;9.883265;-0.8810662
10:30:27:046;10:30:26:975;-0.45968673;9.883265;-0.8810662
10:30:27:054;10:30:26:975;-0.45968673;9.883265;-0.8810662
10:30:27:062;10:30:26:975;-0.45968673;9.883265;-0.8810662
10:30:27:070;10:30:26:975;-0.45968673;9.883265;-0.8810662
10:30:27:078;10:30:26:975;-0.45968673;9.883265;-0.8810662
10:30:27:085;10:30:26:975;-0.45968673;9.883265;-0.8810662
10:30:27:093;10:30:27:087;-0.8810662;9.959879;-1.091756
10:30:27:101;10:30:27:087;-0.8810662;9.959879;-1.091756
10:30:27:109;10:30:27:087;-0.8810662;9.959879;-1.091756
10:30:27:117;10:30:27:087;-0.8810662;9.959879;-1.091756
10:30:27:125;10:30:27:087;-0.8810662;9.959879;-1.091756
10:30:27:132;10:30:27:087;-0.8810662;9.959879;-1.091756
10:30:27:140;10:30:27:087;-0.8810662;9.959879;-1.091756
10:30:27:148;10:30:27:087;-0.8810662;9.959879;-1.091756
10:30:27:156;10:30:27:087;-0.8810662;9.959879;-1.091756
10:30:27:164;10:30:27:087;-0.8810662;9.959879;-1.091756
10:30:27:171;10:30:27:087;-0.8810662;9.959879;-1.091756
10:30:27:179;10:30:27:087;-0.8810662;9.959879;-1.091756
10:30:27:187;10:30:27:087;-0.8810662;9.959879;-1.091756
10:30:27:195;10:30:27:189;-1.1109096;9.557653;-0.5554548
10:30:27:203;10:30:27:189;-1.1109096;9.557653;-0.5554548
10:30:27:210;10:30:27:189;-1.1109096;9.557653;-0.5554548
10:30:27:218;10:30:27:189;-1.1109096;9.557653;-0.5554548
10:30:27:226;10:30:27:189;-1.1109096;9.557653;-0.5554548
10:30:27:234;10:30:27:189;-1.1109096;9.557653;-0.5554548
10:30:27:242;10:30:27:189;-1.1109096;9.557653;-0.5554548
10:30:27:250;10:30:27:189;-1.1109096;9.557653;-0.5554548
10:30:27:257;10:30:27:189;-1.1109096;9.557653;-0.5554548
10:30:27:265;10:30:27:189;-1.1109096;9.557653;-0.5554548
10:30:27:273;10:30:27:189;-1.1109096;9.557653;-0.5554548
10:30:27:281;10:30:27:189;-1.1109096;9.557653;-0.5554548
10:30:27:289;10:30:27:189;-1.1109096;9.557653;-0.5554548
10:30:27:296;10:30:27:189;-1.1109096;9.557653;-0.5554548
10:30:27:304;10:30:27:189;-1.1109096;9.557653;-0.5554548
10:30:27:312;10:30:27:305;-0.7661445;9.9790325;-0.6703765
10:30:27:320;10:30:27:305;-0.7661445;9.9790325;-0.6703765
10:30:27:328;10:30:27:305;-0.7661445;9.9790325;-0.6703765
10:30:27:335;10:30:27:305;-0.7661445;9.9790325;-0.6703765
10:30:27:343;10:30:27:305;-0.7661445;9.9790325;-0.6703765
10:30:27:351;10:30:27:305;-0.7661445;9.9790325;-0.6703765
10:30:27:359;10:30:27:305;-0.7661445;9.9790325;-0.6703765
10:30:27:367;10:30:27:305;-0.7661445;9.9790325;-0.6703765
10:30:27:375;10:30:27:305;-0.7661445;9.9790325;-0.6703765
10:30:27:382;10:30:27:305;-0.7661445;9.9790325;-0.6703765
10:30:27:390;10:30:27:305;-0.7661445;9.9790325;-0.6703765
10:30:27:398;10:30:27:305;-0.7661445;9.9790325;-0.6703765
10:30:27:406;10:30:27:305;-0.7661445;9.9790325;-0.6703765
10:30:27:414;10:30:27:412;-0.842759;10.28549;-1.1683705
10:30:27:421;10:30:27:412;-0.842759;10.28549;-1.1683705
10:30:27:429;10:30:27:412;-0.842759;10.28549;-1.1683705
10:30:27:437;10:30:27:412;-0.842759;10.28549;-1.1683705
10:30:27:445;10:30:27:412;-0.842759;10.28549;-1.1683705
10:30:27:453;10:30:27:412;-0.842759;10.28549;-1.1683705
10:30:27:460;10:30:27:412;-0.842759;10.28549;-1.1683705
10:30:27:468;10:30:27:412;-0.842759;10.28549;-1.1683705
10:30:27:476;10:30:27:412;-0.842759;10.28549;-1.1683705
10:30:27:484;10:30:27:412;-0.842759;10.28549;-1.1683705
10:30:27:492;10:30:27:412;-0.842759;10.28549;-1.1683705
10:30:27:500;10:30:27:412;-0.842759;10.28549;-1.1683705
10:30:27:507;10:30:27:412;-0.842759;10.28549;-1.1683705
10:30:27:515;10:30:27:412;-0.842759;10.28549;-1.1683705
10:30:27:523;10:30:27:412;-0.842759;10.28549;-1.1683705
10:30:27:531;10:30:27:527;-0.6512229;9.80665;-0.8810662
10:30:27:539;10:30:27:527;-0.6512229;9.80665;-0.8810662
10:30:27:546;10:30:27:527;-0.6512229;9.80665;-0.8810662
10:30:27:554;10:30:27:527;-0.6512229;9.80665;-0.8810662
10:30:27:562;10:30:27:527;-0.6512229;9.80665;-0.8810662
10:30:27:570;10:30:27:527;-0.6512229;9.80665;-0.8810662
10:30:27:578;10:30:27:527;-0.6512229;9.80665;-0.8810662
10:30:27:585;10:30:27:527;-0.6512229;9.80665;-0.8810662
10:30:27:593;10:30:27:527;-0.6512229;9.80665;-0.8810662
10:30:27:601;10:30:27:527;-0.6512229;9.80665;-0.8810662
10:30:27:609;10:30:27:527;-0.6512229;9.80665;-0.8810662
10:30:27:617;10:30:27:527;-0.6512229;9.80665;-0.8810662
10:30:27:625;10:30:27:527;-0.6512229;9.80665;-0.8810662
10:30:27:632;10:30:27:527;-0.6512229;9.80665;-0.8810662
10:30:27:640;10:30:27:527;-0.6512229;9.80665;-0.8810662
10:30:27:648;10:30:27:527;-0.6512229;9.80665;-0.8810662
10:30:27:656;10:30:27:651;-0.90021986;10.189722;-0.59376204
10:30:27:664;10:30:27:651;-0.90021986;10.189722;-0.59376204
10:30:27:671;10:30:27:651;-0.90021986;10.189722;-0.59376204
10:30:27:679;10:30:27:651;-0.90021986;10.189722;-0.59376204
10:30:27:687;10:30:27:651;-0.90021986;10.189722;-0.59376204
10:30:27:695;10:30:27:651;-0.90021986;10.189722;-0.59376204
10:30:27:703;10:30:27:651;-0.90021986;10.189722;-0.59376204
10:30:27:710;10:30:27:651;-0.90021986;10.189722;-0.59376204
10:30:27:718;10:30:27:651;-0.90021986;10.189722;-0.59376204
10:30:27:726;10:30:27:651;-0.90021986;10.189722;-0.59376204
10:30:27:734;10:30:27:651;-0.90021986;10.189722;-0.59376204
10:30:27:742;10:30:27:651;-0.90021986;10.189722;-0.59376204
10:30:27:750;10:30:27:651;-0.90021986;10.189722;-0.59376204
10:30:27:757;10:30:27:651;-0.90021986;10.189722;-0.59376204
10:30:27:765;10:30:27:651;-0.90021986;10.189722;-0.59376204
10:30:27:773;10:30:27:766;-0.45968673;10.0748005;-0.82360536
10:30:27:781;10:30:27:766;-0.45968673;10.0748005;-0.82360536
10:30:27:789;10:30:27:766;-0.45968673;10.0748005;-0.82360536
10:30:27:796;10:30:27:766;-0.45968673;10.0748005;-0.82360536
10:30:27:804;10:30:27:766;-0.45968673;10.0748005;-0.82360536
10:30:27:812;10:30:27:766;-0.45968673;10.0748005;-0.82360536
10:30:27:820;10:30:27:766;-0.45968673;10.0748005;-0.82360536
10:30:27:828;10:30:27:766;-0.45968673;10.0748005;-0.82360536
10:30:27:835;10:30:27:766;-0.45968673;10.0748005;-0.82360536
10:30:27:843;10:30:27:766;-0.45968673;10.0748005;-0.82360536
10:30:27:851;10:30:27:766;-0.45968673;10.0748005;-0.82360536
10:30:27:859;10:30:27:766;-0.45968673;10.0748005;-0.82360536
10:30:27:867;10:30:27:766;-0.45968673;10.0748005;-0.82360536
10:30:27:875;10:30:27:766;-0.45968673;10.0748005;-0.82360536
10:30:27:882;10:30:27:766;-0.45968673;10.0748005;-0.82360536
10:30:27:890;10:30:27:885;-0.076614454;9.653421;-0.9576807
10:30:27:898;10:30:27:885;-0.076614454;9.653421;-0.9576807
10:30:27:906;10:30:27:885;-0.076614454;9.653421;-0.9576807
10:30:27:914;10:30:27:885;-0.076614454;9.653421;-0.9576807
10:30:27:921;10:30:27:885;-0.076614454;9.653421;-0.9576807
10:30:27:929;10:30:27:885;-0.076614454;9.653421;-0.9576807
10:30:27:937;10:30:27:885;-0.076614454;9.653421;-0.9576807
10:30:27:945;10:30:27:885;-0.076614454;9.653421;-0.9576807
10:30:27:953;10:30:27:885;-0.076614454;9.653421;-0.9576807
10:30:27:960;10:30:27:885;-0.076614454;9.653421;-0.9576807
10:30:27:968;10:30:27:885;-0.076614454;9.653421;-0.9576807
10:30:27:976;10:30:27:885;-0.076614454;9.653421;-0.9576807
10:30:27:984;10:30:27:885;-0.076614454;9.653421;-0.9576807
10:30:27:992;10:30:27:885;-0.076614454;9.653421;-0.9576807
10:30:28:000;10:30:27:885;-0.076614454;9.653421;-0.9576807
10:30:28:007;10:30:28:002;0.11492168;9.519346;-0.82360536
10:30:28:015;10:30:28:002;0.11492168;9.519346;-0.82360536
10:30:28:023;10:30:28:002;0.11492168;9.519346;-0.82360536
10:30:28:031;10:30:28:002;0.11492168;9.519346;-0.82360536
10:30:28:039;10:30:28:002;0.11492168;9.519346;-0.82360536
10:30:28:046;10:30:28:002;0.11492168;9.519346;-0.82360536
10:30:28:054;10:30:28:002;0.11492168;9.519346;-0.82360536
10:30:28:062;10:30:28:002;0.11492168;9.519346;-0.82360536
10:30:28:070;10:30:28:002;0.11492168;9.519346;-0.82360536
10:30:28:078;10:30:28:002;0.11492168;9.519346;-0.82360536
10:30:28:085;10:30:28:002;0.11492168;9.519346;-0.82360536
10:30:28:093;10:30:28:002;0.11492168;9.519346;-0.82360536
10:30:28:101;10:30:28:002;0.11492168;9.519346;-0.82360536
10:30:28:109;10:30:28:109;-0.17238252;10.055647;-0.80445176
10:30:28:117;10:30:28:109;-0.17238252;10.055647;-0.80445176
10:30:28:125;10:30:28:109;-0.17238252;10.055647;-0.80445176
10:30:28:132;10:30:28:109;-0.17238252;10.055647;-0.80445176
10:30:28:140;10:30:28:109;-0.17238252;10.055647;-0.80445176
10:30:28:148;10:30:28:109;-0.17238252;10.055647;-0.80445176
10:30:28:156;10:30:28:109;-0.17238252;10.055647;-0.80445176
10:30:28:164;10:30:28:109;-0.17238252;10.055647;-0.80445176
10:30:28:171;10:30:28:109;-0.17238252;10.055647;-0.80445176
10:30:28:179;10:30:28:109;-0.17238252;10.055647;-0.80445176
10:30:28:187;10:30:28:109;-0.17238252;10.055647;-0.80445176
10:30:28:195;10:30:28:109;-0.17238252;10.055647;-0.80445176
10:30:28:203;10:30:28:109;-0.17238252;10.055647;-0.80445176
10:30:28:210;10:30:28:109;-0.17238252;10.055647;-0.80445176
10:30:28:218;10:30:28:109;-0.17238252;10.055647;-0.80445176
10:30:28:226;10:30:28:223;-0.2873042;10.247183;-0.30645782
10:30:28:234;10:30:28:223;-0.2873042;10.247183;-0.30645782
10:30:28:242;10:30:28:223;-0.2873042;10.247183;-0.30645782
10:30:28:250;10:30:28:223;-0.2873042;10.247183;-0.30645782
10:30:28:257;10:30:28:223;-0.2873042;10.247183;-0.30645782
10:30:28:265;10:30:28:223;-0.2873042;10.247183;-0.30645782
10:30:28:273;10:30:28:223;-0.2873042;10.247183;-0.30645782
10:30:28:281;10:30:28:223;-0.2873042;10.247183;-0.30645782
10:30:28:289;10:30:28:223;-0.2873042;10.247183;-0.30645782
10:30:28:296;10:30:28:223;-0.2873042;10.247183;-0.30645782
10:30:28:304;10:30:28:223;-0.2873042;10.247183;-0.30645782
10:30:28:312;10:30:28:223;-0.2873042;10.247183;-0.30645782
10:30:28:320;10:30:28:223;-0.2873042;10.247183;-0.30645782
10:30:28:328;10:30:28:223;-0.2873042;10.247183;-0.30645782
10:30:28:335;10:30:28:223;-0.2873042;10.247183;-0.30645782
10:30:28:343;10:30:28:223;-0.2873042;10.247183;-0.30645782
10:30:28:351;10:30:28:351;-0.19153613;10.189722;-0.49799395
10:30:28:359;10:30:28:351;-0.19153613;10.189722;-0.49799395
10:30:28:367;10:30:28:351;-0.19153613;10.189722;-0.49799395
10:30:28:375;10:30:28:351;-0.19153613;10.189722;-0.49799395
10:30:28:382;10:30:28:351;-0.19153613;10.189722;-0.49799395
10:30:28:390;10:30:28:351;-0.19153613;10.189722;-0.49799395
10:30:28:398;10:30:28:351;-0.19153613;10.189722;-0.49799395
10:30:28:406;10:30:28:351;-0.19153613;10.189722;-0.49799395
10:30:28:414;10:30:28:351;-0.19153613;10.189722;-0.49799395
10:30:28:421;10:30:28:351;-0.19153613;10.189722;-0.49799395
10:30:28:429;10:30:28:351;-0.19153613;10.189722;-0.49799395
10:30:28:437;10:30:28:351;-0.19153613;10.189722;-0.49799395
10:30:28:445;10:30:28:351;-0.19153613;10.189722;-0.49799395
10:30:28:453;10:30:28:351;-0.19153613;10.189722;-0.49799395
10:30:28:460;10:30:28:456;-0.05746084;9.9790325;-1.2066777
10:30:28:468;10:30:28:456;-0.05746084;9.9790325;-1.2066777
10:30:28:476;10:30:28:456;-0.05746084;9.9790325;-1.2066777
10:30:28:484;10:30:28:456;-0.05746084;9.9790325;-1.2066777
10:30:28:492;10:30:28:456;-0.05746084;9.9790325;-1.2066777
10:30:28:500;10:30:28:456;-0.05746084;9.9790325;-1.2066777
10:30:28:507;10:30:28:456;-0.05746084;9.9790325;-1.2066777
10:30:28:515;10:30:28:456;-0.05746084;9.9790325;-1.2066777
10:30:28:523;10:30:28:456;-0.05746084;9.9790325;-1.2066777
10:30:28:531;10:30:28:456;-0.05746084;9.9790325;-1.2066777
10:30:28:539;10:30:28:456;-0.05746084;9.9790325;-1.2066777
10:30:28:546;10:30:28:456;-0.05746084;9.9790325;-1.2066777
10:30:28:554;10:30:28:456;-0.05746084;9.9790325;-1.2066777
10:30:28:562;10:30:28:456;-0.05746084;9.9790325;-1.2066777
10:30:28:570;10:30:28:456;-0.05746084;9.9790325;-1.2066777
10:30:28:578;10:30:28:574;-0.6703765;9.730036;-0.30645782
10:30:28:585;10:30:28:574;-0.6703765;9.730036;-0.30645782
10:30:28:593;10:30:28:574;-0.6703765;9.730036;-0.30645782
10:30:28:601;10:30:28:574;-0.6703765;9.730036;-0.30645782
10:30:28:609;10:30:28:574;-0.6703765;9.730036;-0.30645782
10:30:28:617;10:30:28:574;-0.6703765;9.730036;-0.30645782
10:30:28:625;10:30:28:574;-0.6703765;9.730036;-0.30645782
10:30:28:632;10:30:28:574;-0.6703765;9.730036;-0.30645782
10:30:28:640;10:30:28:574;-0.6703765;9.730036;-0.30645782
10:30:28:648;10:30:28:574;-0.6703765;9.730036;-0.30645782
10:30:28:656;10:30:28:574;-0.6703765;9.730036;-0.30645782
10:30:28:664;10:30:28:574;-0.6703765;9.730036;-0.30645782
10:30:28:671;10:30:28:574;-0.6703765;9.730036;-0.30645782
10:30:28:679;10:30:28:574;-0.6703765;9.730036;-0.30645782
10:30:28:687;10:30:28:574;-0.6703765;9.730036;-0.30645782
10:30:28:695;10:30:28:693;-0.30645782;9.481039;-0.22984336
10:30:28:703;10:30:28:693;-0.30645782;9.481039;-0.22984336
10:30:28:710;10:30:28:693;-0.30645782;9.481039;-0.22984336
10:30:28:718;10:30:28:693;-0.30645782;9.481039;-0.22984336
10:30:28:726;10:30:28:693;-0.30645782;9.481039;-0.22984336
10:30:28:734;10:30:28:693;-0.30645782;9.481039;-0.22984336
10:30:28:742;10:30:28:693;-0.30645782;9.481039;-0.22984336
10:30:28:750;10:30:28:693;-0.30645782;9.481039;-0.22984336
10:30:28:757;10:30:28:693;-0.30645782;9.481039;-0.22984336
10:30:28:765;10:30:28:693;-0.30645782;9.481039;-0.22984336
10:30:28:773;10:30:28:693;-0.30645782;9.481039;-0.22984336
10:30:28:781;10:30:28:693;-0.30645782;9.481039;-0.22984336
10:30:28:789;10:30:28:693;-0.30645782;9.481039;-0.22984336
10:30:28:796;10:30:28:693;-0.30645782;9.481039;-0.22984336
10:30:28:804;10:30:28:693;-0.30645782;9.481039;-0.22984336
10:30:28:812;10:30:28:811;-0.36391866;9.80665;-0.38307226
10:30:28:820;10:30:28:811;-0.36391866;9.80665;-0.38307226
10:30:28:828;10:30:28:811;-0.36391866;9.80665;-0.38307226
10:30:28:835;10:30:28:811;-0.36391866;9.80665;-0.38307226
10:30:28:843;10:30:28:811;-0.36391866;9.80665;-0.38307226
10:30:28:851;10:30:28:811;-0.36391866;9.80665;-0.38307226
10:30:28:859;10:30:28:811;-0.36391866;9.80665;-0.38307226
10:30:28:867;10:30:28:811;-0.36391866;9.80665;-0.38307226
10:30:28:875;10:30:28:811;-0.36391866;9.80665;-0.38307226
10:30:28:882;10:30:28:811;-0.36391866;9.80665;-0.38307226
10:30:28:890;10:30:28:811;-0.36391866;9.80665;-0.38307226
10:30:28:898;10:30:28:811;-0.36391866;9.80665;-0.38307226
10:30:28:906;10:30:28:811;-0.36391866;9.80665;-0.38307226
10:30:28:914;10:30:28:811;-0.36391866;9.80665;-0.38307226
10:30:28:921;10:30:28:811;-0.36391866;9.80665;-0.38307226
10:30:28:929;10:30:28:926;-0.63206923;9.902418;-0.22984336
10:30:28:937;10:30:28:926;-0.63206923;9.902418;-0.22984336
10:30:28:945;10:30:28:926;-0.63206923;9.902418;-0.22984336
10:30:28:953;10:30:28:926;-0.63206923;9.902418;-0.22984336
10:30:28:960;10:30:28:926;-0.63206923;9.902418;-0.22984336
10:30:28:968;10:30:28:926;-0.63206923;9.902418;-0.22984336
10:30:28:976;10:30:28:926;-0.63206923;9.902418;-0.22984336
10:30:28:984;10:30:28:926;-0.63206923;9.902418;-0.22984336
10:30:28:992;10:30:28:926;-0.63206923;9.902418;-0.22984336
10:30:29:000;10:30:28:926;-0.63206923;9.902418;-0.22984336
10:30:29:007;10:30:28:926;-0.63206923;9.902418;-0.22984336
10:30:29:015;10:30:28:926;-0.63206923;9.902418;-0.22984336
10:30:29:023;10:30:28:926;-0.63206923;9.902418;-0.22984336
10:30:29:031;10:30:29:031;-0.82360536;9.902418;-0.11492168
10:30:29:039;10:30:29:031;-0.82360536;9.902418;-0.11492168
10:30:29:046;10:30:29:031;-0.82360536;9.902418;-0.11492168
10:30:29:054;10:30:29:031;-0.82360536;9.902418;-0.11492168
10:30:29:062;10:30:29:031;-0.82360536;9.902418;-0.11492168
10:30:29:070;10:30:29:031;-0.82360536;9.902418;-0.11492168
10:30:29:078;10:30:29:031;-0.82360536;9.902418;-0.11492168
10:30:29:085;10:30:29:031;-0.82360536;9.902418;-0.11492168
10:30:29:093;10:30:29:031;-0.82360536;9.902418;-0.11492168
10:30:29:101;10:30:29:031;-0.82360536;9.902418;-0.11492168
10:30:29:109;10:30:29:031;-0.82360536;9.902418;-0.11492168
10:30:29:117;10:30:29:031;-0.82360536;9.902418;-0.11492168
10:30:29:125;10:30:29:031;-0.82360536;9.902418;-0.11492168
10:30:29:132;10:30:29:031;-0.82360536;9.902418;-0.11492168
10:30:29:140;10:30:29:031;-0.82360536;9.902418;-0.11492168
10:30:29:148;10:30:29:031;-0.82360536;9.902418;-0.11492168
10:30:29:156;10:30:29:031;-0.82360536;9.902418;-0.11492168
10:30:29:164;10:30:29:161;-1.091756;9.998186;-0.51714754
10:30:29:171;10:30:29:161;-1.091756;9.998186;-0.51714754
10:30:29:179;10:30:29:161;-1.091756;9.998186;-0.51714754
10:30:29:187;10:30:29:161;-1.091756;9.998186;-0.51714754
10:30:29:195;10:30:29:161;-1.091756;9.998186;-0.51714754
10:30:29:203;10:30:29:161;-1.091756;9.998186;-0.51714754
10:30:29:210;10:30:29:161;-1.091756;9.998186;-0.51714754
10:30:29:218;10:30:29:161;-1.091756;9.998186;-0.51714754
10:30:29:226;10:30:29:161;-1.091756;9.998186;-0.51714754
10:30:29:234;10:30:29:161;-1.091756;9.998186;-0.51714754
10:30:29:242;10:30:29:161;-1.091756;9.998186;-0.51714754
10:30:29:250;10:30:29:161;-1.091756;9.998186;-0.51714754
10:30:29:257;10:30:29:161;-1.091756;9.998186;-0.51714754
10:30:29:265;10:30:29:161;-1.091756;9.998186;-0.51714754
10:30:29:273;10:30:29:268;-1.2258313;9.998186;0.11492168
10:30:29:281;10:30:29:268;-1.2258313;9.998186;0.11492168
10:30:29:289;10:30:29:268;-1.2258313;9.998186;0.11492168
10:30:29:296;10:30:29:268;-1.2258313;9.998186;0.11492168
10:30:29:304;10:30:29:268;-1.2258313;9.998186;0.11492168
10:30:29:312;10:30:29:268;-1.2258313;9.998186;0.11492168
10:30:29:320;10:30:29:268;-1.2258313;9.998186;0.11492168
10:30:29:328;10:30:29:268;-1.2258313;9.998186;0.11492168
10:30:29:335;10:30:29:268;-1.2258313;9.998186;0.11492168
10:30:29:343;10:30:29:268;-1.2258313;9.998186;0.11492168
10:30:29:351;10:30:29:268;-1.2258313;9.998186;0.11492168
10:30:29:359;10:30:29:268;-1.2258313;9.998186;0.11492168
10:30:29:367;10:30:29:268;-1.2258313;9.998186;0.11492168
10:30:29:375;10:30:29:268;-1.2258313;9.998186;0.11492168
10:30:29:382;10:30:29:378;-1.5705963;10.132261;0.11492168
10:30:29:390;10:30:29:378;-1.5705963;10.132261;0.11492168
10:30:29:398;10:30:29:378;-1.5705963;10.132261;0.11492168
10:30:29:406;10:30:29:378;-1.5705963;10.132261;0.11492168
10:30:29:414;10:30:29:378;-1.5705963;10.132261;0.11492168
10:30:29:421;10:30:29:378;-1.5705963;10.132261;0.11492168
10:30:29:429;10:30:29:378;-1.5705963;10.132261;0.11492168
10:30:29:437;10:30:29:378;-1.5705963;10.132261;0.11492168
10:30:29:445;10:30:29:378;-1.5705963;10.132261;0.11492168
10:30:29:453;10:30:29:378;-1.5705963;10.132261;0.11492168
10:30:29:460;10:30:29:378;-1.5705963;10.132261;0.11492168
10:30:29:468;10:30:29:378;-1.5705963;10.132261;0.11492168
10:30:29:476;10:30:29:378;-1.5705963;10.132261;0.11492168
10:30:29:484;10:30:29:378;-1.5705963;10.132261;0.11492168
10:30:29:492;10:30:29:378;-1.5705963;10.132261;0.11492168
10:30:29:500;10:30:29:378;-1.5705963;10.132261;0.11492168
10:30:29:507;10:30:29:378;-1.5705963;10.132261;0.11492168
10:30:29:515;10:30:29:378;-1.5705963;10.132261;0.11492168
10:30:29:523;10:30:29:378;-1.5705963;10.132261;0.11492168
10:30:29:531;10:30:29:378;-1.5705963;10.132261;0.11492168
10:30:29:539;10:30:29:378;-1.5705963;10.132261;0.11492168
10:30:29:546;10:30:29:543;-1.3599066;9.844957;-0.019153614
10:30:29:554;10:30:29:543;-1.3599066;9.844957;-0.019153614
10:30:29:562;10:30:29:543;-1.3599066;9.844957;-0.019153614
10:30:29:570;10:30:29:543;-1.3599066;9.844957;-0.019153614
10:30:29:578;10:30:29:543;-1.3599066;9.844957;-0.019153614
10:30:29:585;10:30:29:543;-1.3599066;9.844957;-0.019153614
10:30:29:593;10:30:29:543;-1.3599066;9.844957;-0.019153614
10:30:29:601;10:30:29:543;-1.3599066;9.844957;-0.019153614
10:30:29:609;10:30:29:543;-1.3599066;9.844957;-0.019153614
10:30:29:617;10:30:29:543;-1.3599066;9.844957;-0.019153614
10:30:29:625;10:30:29:543;-1.3599066;9.844957;-0.019153614
10:30:29:632;10:30:29:543;-1.3599066;9.844957;-0.019153614
10:30:29:640;10:30:29:543;-1.3599066;9.844957;-0.019153614
10:30:29:648;10:30:29:543;-1.3599066;9.844957;-0.019153614
10:30:29:656;10:30:29:543;-1.3599066;9.844957;-0.019153614
10:30:29:664;10:30:29:543;-1.3599066;9.844957;-0.019153614
10:30:29:671;10:30:29:543;-1.3599066;9.844957;-0.019153614
10:30:29:679;10:30:29:543;-1.3599066;9.844957;-0.019153614
10:30:29:687;10:30:29:543;-1.3599066;9.844957;-0.019153614
10:30:29:695;10:30:29:543;-1.3599066;9.844957;-0.019153614
10:30:29:703;10:30:29:543;-1.3599066;9.844957;-0.019153614
10:30:29:710;10:30:29:543;-1.3599066;9.844957;-0.019153614
10:30:29:718;10:30:29:543;-1.3599066;9.844957;-0.019153614
10:30:29:726;10:30:29:543;-1.3599066;9.844957;-0.019153614
10:30:29:734;10:30:29:543;-1.3599066;9.844957;-0.019153614
10:30:29:742;10:30:29:543;-1.3599066;9.844957;-0.019153614
10:30:29:750;10:30:29:543;-1.3599066;9.844957;-0.019153614
10:30:29:757;10:30:29:543;-1.3599066;9.844957;-0.019153614
10:30:29:765;10:30:29:543;-1.3599066;9.844957;-0.019153614
10:30:29:773;10:30:29:543;-1.3599066;9.844957;-0.019153614
10:30:29:781;10:30:29:543;-1.3599066;9.844957;-0.019153614
10:30:29:789;10:30:29:543;-1.3599066;9.844957;-0.019153614
10:30:29:796;10:30:29:543;-1.3599066;9.844957;-0.019153614
10:30:29:804;10:30:29:543;-1.3599066;9.844957;-0.019153614
10:30:29:812;10:30:29:543;-1.3599066;9.844957;-0.019153614
10:30:29:820;10:30:29:543;-1.3599066;9.844957;-0.019153614
10:30:29:828;10:30:29:543;-1.3599066;9.844957;-0.019153614
10:30:29:835;10:30:29:543;-1.3599066;9.844957;-0.019153614
10:30:29:843;10:30:29:543;-1.3599066;9.844957;-0.019153614
10:30:29:851;10:30:29:543;-1.3599066;9.844957;-0.019153614
10:30:29:859;10:30:29:543;-1.3599066;9.844957;-0.019153614
10:30:29:867;10:30:29:543;-1.3599066;9.844957;-0.019153614
10:30:29:875;10:30:29:543;-1.3599066;9.844957;-0.019153614
10:30:29:882;10:30:29:543;-1.3599066;9.844957;-0.019153614
10:30:29:890;10:30:29:543;-1.3599066;9.844957;-0.019153614
10:30:29:898;10:30:29:543;-1.3599066;9.844957;-0.019153614
10:30:29:906;10:30:29:900;-1.1109096;9.902418;0.05746084
10:30:29:914;10:30:29:900;-1.1109096;9.902418;0.05746084
10:30:29:921;10:30:29:900;-1.1109096;9.902418;0.05746084
10:30:29:929;10:30:29:900;-1.1109096;9.902418;0.05746084
10:30:29:937;10:30:29:900;-1.1109096;9.902418;0.05746084
10:30:29:945;10:30:29:900;-1.1109096;9.902418;0.05746084
10:30:29:953;10:30:29:900;-1.1109096;9.902418;0.05746084
10:30:29:960;10:30:29:900;-1.1109096;9.902418;0.05746084
10:30:29:968;10:30:29:900;-1.1109096;9.902418;0.05746084
10:30:29:976;10:30:29:900;-1.1109096;9.902418;0.05746084
10:30:29:984;10:30:29:900;-1.1109096;9.902418;0.05746084
10:30:29:992;10:30:29:900;-1.1109096;9.902418;0.05746084
10:30:30:000;10:30:29:900;-1.1109096;9.902418;0.05746084
10:30:30:007;10:30:29:900;-1.1109096;9.902418;0.05746084
10:30:30:015;10:30:30:013;-1.6663644;10.5919485;0.90021986
10:30:30:023;10:30:30:013;-1.6663644;10.5919485;0.90021986
10:30:30:031;10:30:30:013;-1.6663644;10.5919485;0.90021986
10:30:30:039;10:30:30:013;-1.6663644;10.5919485;0.90021986
10:30:30:046;10:30:30:013;-1.6663644;10.5919485;0.90021986
10:30:30:054;10:30:30:013;-1.6663644;10.5919485;0.90021986
10:30:30:062;10:30:30:013;-1.6663644;10.5919485;0.90021986
10:30:30:070;10:30:30:013;-1.6663644;10.5919485;0.90021986
10:30:30:078;10:30:30:013;-1.6663644;10.5919485;0.90021986
10:30:30:085;10:30:30:013;-1.6663644;10.5919485;0.90021986
10:30:30:093;10:30:30:013;-1.6663644;10.5919485;0.90021986
10:30:30:101;10:30:30:013;-1.6663644;10.5919485;0.90021986
10:30:30:109;10:30:30:013;-1.6663644;10.5919485;0.90021986
10:30:30:117;10:30:30:114;-1.2641385;10.208876;0.6703765
10:30:30:125;10:30:30:114;-1.2641385;10.208876;0.6703765
10:30:30:132;10:30:30:114;-1.2641385;10.208876;0.6703765
10:30:30:140;10:30:30:114;-1.2641385;10.208876;0.6703765
10:30:30:148;10:30:30:114;-1.2641385;10.208876;0.6703765
10:30:30:156;10:30:30:114;-1.2641385;10.208876;0.6703765
10:30:30:164;10:30:30:114;-1.2641385;10.208876;0.6703765
10:30:30:171;10:30:30:114;-1.2641385;10.208876;0.6703765
10:30:30:179;10:30:30:114;-1.2641385;10.208876;0.6703765
10:30:30:187;10:30:30:114;-1.2641385;10.208876;0.6703765
10:30:30:195;10:30:30:114;-1.2641385;10.208876;0.6703765
10:30:30:203;10:30:30:114;-1.2641385;10.208876;0.6703765
10:30:30:210;10:30:30:114;-1.2641385;10.208876;0.6703765
10:30:30:218;10:30:30:114;-1.2641385;10.208876;0.6703765
10:30:30:226;10:30:30:114;-1.2641385;10.208876;0.6703765
10:30:30:234;10:30:30:232;-1.3790601;10.228029;1.532289
10:30:30:242;10:30:30:232;-1.3790601;10.228029;1.532289
10:30:30:250;10:30:30:232;-1.3790601;10.228029;1.532289
10:30:30:257;10:30:30:232;-1.3790601;10.228029;1.532289
10:30:30:265;10:30:30:232;-1.3790601;10.228029;1.532289
10:30:30:273;10:30:30:232;-1.3790601;10.228029;1.532289
10:30:30:281;10:30:30:232;-1.3790601;10.228029;1.532289
10:30:30:289;10:30:30:232;-1.3790601;10.228029;1.532289
10:30:30:296;10:30:30:232;-1.3790601;10.228029;1.532289
10:30:30:304;10:30:30:232;-1.3790601;10.228029;1.532289
10:30:30:312;10:30:30:232;-1.3790601;10.228029;1.532289
10:30:30:320;10:30:30:232;-1.3790601;10.228029;1.532289
10:30:30:328;10:30:30:232;-1.3790601;10.228029;1.532289
10:30:30:335;10:30:30:232;-1.3790601;10.228029;1.532289
10:30:30:343;10:30:30:341;-1.6089035;10.342952;0.63206923
10:30:30:351;10:30:30:341;-1.6089035;10.342952;0.63206923
10:30:30:359;10:30:30:341;-1.6089035;10.342952;0.63206923
10:30:30:367;10:30:30:341;-1.6089035;10.342952;0.63206923
10:30:30:375;10:30:30:341;-1.6089035;10.342952;0.63206923
10:30:30:382;10:30:30:341;-1.6089035;10.342952;0.63206923
10:30:30:390;10:30:30:341;-1.6089035;10.342952;0.63206923
10:30:30:398;10:30:30:341;-1.6089035;10.342952;0.63206923
10:30:30:406;10:30:30:341;-1.6089035;10.342952;0.63206923
10:30:30:414;10:30:30:341;-1.6089035;10.342952;0.63206923
10:30:30:421;10:30:30:341;-1.6089035;10.342952;0.63206923
10:30:30:429;10:30:30:341;-1.6089035;10.342952;0.63206923
10:30:30:437;10:30:30:341;-1.6089035;10.342952;0.63206923
10:30:30:445;10:30:30:341;-1.6089035;10.342952;0.63206923
10:30:30:453;10:30:30:341;-1.6089035;10.342952;0.63206923
10:30:30:460;10:30:30:341;-1.6089035;10.342952;0.63206923
10:30:30:468;10:30:30:462;-0.8810662;9.423578;0.9576807
10:30:30:476;10:30:30:462;-0.8810662;9.423578;0.9576807
10:30:30:484;10:30:30:462;-0.8810662;9.423578;0.9576807
10:30:30:492;10:30:30:462;-0.8810662;9.423578;0.9576807
10:30:30:500;10:30:30:462;-0.8810662;9.423578;0.9576807
10:30:30:507;10:30:30:462;-0.8810662;9.423578;0.9576807
10:30:30:515;10:30:30:462;-0.8810662;9.423578;0.9576807
10:30:30:523;10:30:30:462;-0.8810662;9.423578;0.9576807
10:30:30:531;10:30:30:462;-0.8810662;9.423578;0.9576807
10:30:30:539;10:30:30:462;-0.8810662;9.423578;0.9576807
10:30:30:546;10:30:30:462;-0.8810662;9.423578;0.9576807
10:30:30:554;10:30:30:462;-0.8810662;9.423578;0.9576807
10:30:30:562;10:30:30:462;-0.8810662;9.423578;0.9576807
10:30:30:570;10:30:30:462;-0.8810662;9.423578;0.9576807
10:30:30:578;10:30:30:578;-1.0151415;9.710882;0.30645782
10:30:30:585;10:30:30:578;-1.0151415;9.710882;0.30645782
10:30:30:593;10:30:30:578;-1.0151415;9.710882;0.30645782
10:30:30:601;10:30:30:578;-1.0151415;9.710882;0.30645782
10:30:30:609;10:30:30:578;-1.0151415;9.710882;0.30645782
10:30:30:617;10:30:30:578;-1.0151415;9.710882;0.30645782
10:30:30:625;10:30:30:578;-1.0151415;9.710882;0.30645782
10:30:30:632;10:30:30:578;-1.0151415;9.710882;0.30645782
10:30:30:640;10:30:30:578;-1.0151415;9.710882;0.30645782
10:30:30:648;10:30:30:578;-1.0151415;9.710882;0.30645782
10:30:30:656;10:30:30:578;-1.0151415;9.710882;0.30645782
10:30:30:664;10:30:30:578;-1.0151415;9.710882;0.30645782
10:30:30:671;10:30:30:578;-1.0151415;9.710882;0.30645782
10:30:30:679;10:30:30:578;-1.0151415;9.710882;0.30645782
10:30:30:687;10:30:30:578;-1.0151415;9.710882;0.30645782
10:30:30:695;10:30:30:578;-1.0151415;9.710882;0.30645782
10:30:30:703;10:30:30:578;-1.0151415;9.710882;0.30645782
10:30:30:710;10:30:30:578;-1.0151415;9.710882;0.30645782
10:30:30:718;10:30:30:578;-1.0151415;9.710882;0.30645782
10:30:30:726;10:30:30:578;-1.0151415;9.710882;0.30645782
10:30:30:734;10:30:30:578;-1.0151415;9.710882;0.30645782
10:30:30:742;10:30:30:578;-1.0151415;9.710882;0.30645782
10:30:30:750;10:30:30:747;-1.1875241;9.500193;0.24899697
10:30:30:757;10:30:30:747;-1.1875241;9.500193;0.24899697
10:30:30:765;10:30:30:747;-1.1875241;9.500193;0.24899697
10:30:30:773;10:30:30:747;-1.1875241;9.500193;0.24899697
10:30:30:781;10:30:30:747;-1.1875241;9.500193;0.24899697
10:30:30:789;10:30:30:747;-1.1875241;9.500193;0.24899697
10:30:30:796;10:30:30:747;-1.1875241;9.500193;0.24899697
10:30:30:804;10:30:30:747;-1.1875241;9.500193;0.24899697
10:30:30:812;10:30:30:747;-1.1875241;9.500193;0.24899697
10:30:30:820;10:30:30:747;-1.1875241;9.500193;0.24899697
10:30:30:828;10:30:30:747;-1.1875241;9.500193;0.24899697
10:30:30:835;10:30:30:747;-1.1875241;9.500193;0.24899697
10:30:30:843;10:30:30:747;-1.1875241;9.500193;0.24899697
10:30:30:851;10:30:30:747;-1.1875241;9.500193;0.24899697
10:30:30:859;10:30:30:854;0.038307227;9.959879;0.038307227
10:30:30:867;10:30:30:854;0.038307227;9.959879;0.038307227
10:30:30:875;10:30:30:854;0.038307227;9.959879;0.038307227
10:30:30:882;10:30:30:854;0.038307227;9.959879;0.038307227
10:30:30:890;10:30:30:854;0.038307227;9.959879;0.038307227
10:30:30:898;10:30:30:854;0.038307227;9.959879;0.038307227
10:30:30:906;10:30:30:854;0.038307227;9.959879;0.038307227
10:30:30:914;10:30:30:854;0.038307227;9.959879;0.038307227
10:30:30:921;10:30:30:854;0.038307227;9.959879;0.038307227
10:30:30:929;10:30:30:854;0.038307227;9.959879;0.038307227
10:30:30:937;10:30:30:854;0.038307227;9.959879;0.038307227
10:30:30:945;10:30:30:854;0.038307227;9.959879;0.038307227
10:30:30:953;10:30:30:854;0.038307227;9.959879;0.038307227
10:30:30:960;10:30:30:955;-1.9919758;10.783484;0.34476504
10:30:30:968;10:30:30:955;-1.9919758;10.783484;0.34476504
10:30:30:976;10:30:30:955;-1.9919758;10.783484;0.34476504
10:30:30:984;10:30:30:955;-1.9919758;10.783484;0.34476504
10:30:30:992;10:30:30:955;-1.9919758;10.783484;0.34476504
10:30:31:000;10:30:30:955;-1.9919758;10.783484;0.34476504
10:30:31:007;10:30:30:955;-1.9919758;10.783484;0.34476504
10:30:31:015;10:30:30:955;-1.9919758;10.783484;0.34476504
10:30:31:023;10:30:30:955;-1.9919758;10.783484;0.34476504
10:30:31:031;10:30:30:955;-1.9919758;10.783484;0.34476504
10:30:31:039;10:30:30:955;-1.9919758;10.783484;0.34476504
10:30:31:046;10:30:30:955;-1.9919758;10.783484;0.34476504
10:30:31:054;10:30:30:955;-1.9919758;10.783484;0.34476504
10:30:31:062;10:30:31:057;-1.2066777;10.170568;0.40222588
10:30:31:070;10:30:31:057;-1.2066777;10.170568;0.40222588
10:30:31:078;10:30:31:057;-1.2066777;10.170568;0.40222588
10:30:31:085;10:30:31:057;-1.2066777;10.170568;0.40222588
10:30:31:093;10:30:31:057;-1.2066777;10.170568;0.40222588
10:30:31:101;10:30:31:057;-1.2066777;10.170568;0.40222588
10:30:31:109;10:30:31:057;-1.2066777;10.170568;0.40222588
10:30:31:117;10:30:31:057;-1.2066777;10.170568;0.40222588
10:30:31:125;10:30:31:057;-1.2066777;10.170568;0.40222588
10:30:31:132;10:30:31:057;-1.2066777;10.170568;0.40222588
10:30:31:140;10:30:31:057;-1.2066777;10.170568;0.40222588
10:30:31:148;10:30:31:057;-1.2066777;10.170568;0.40222588
10:30:31:156;10:30:31:057;-1.2066777;10.170568;0.40222588
10:30:31:164;10:30:31:057;-1.2066777;10.170568;0.40222588
10:30:31:171;10:30:31:057;-1.2066777;10.170568;0.40222588
10:30:31:179;10:30:31:057;-1.2066777;10.170568;0.40222588
10:30:31:187;10:30:31:057;-1.2066777;10.170568;0.40222588
10:30:31:195;10:30:31:193;0.40222588;9.308656;0.5363012
10:30:31:203;10:30:31:193;0.40222588;9.308656;0.5363012
10:30:31:210;10:30:31:193;0.40222588;9.308656;0.5363012
10:30:31:218;10:30:31:193;0.40222588;9.308656;0.5363012
10:30:31:226;10:30:31:193;0.40222588;9.308656;0.5363012
10:30:31:234;10:30:31:193;0.40222588;9.308656;0.5363012
10:30:31:242;10:30:31:193;0.40222588;9.308656;0.5363012
10:30:31:250;10:30:31:193;0.40222588;9.308656;0.5363012
10:30:31:257;10:30:31:193;0.40222588;9.308656;0.5363012
10:30:31:265;10:30:31:193;0.40222588;9.308656;0.5363012
10:30:31:273;10:30:31:193;0.40222588;9.308656;0.5363012
10:30:31:281;10:30:31:193;0.40222588;9.308656;0.5363012
10:30:31:289;10:30:31:193;0.40222588;9.308656;0.5363012
10:30:31:296;10:30:31:193;0.40222588;9.308656;0.5363012
10:30:31:304;10:30:31:300;-0.15322891;9.615114;1.436521
10:30:31:312;10:30:31:300;-0.15322891;9.615114;1.436521
10:30:31:320;10:30:31:300;-0.15322891;9.615114;1.436521
10:30:31:328;10:30:31:300;-0.15322891;9.615114;1.436521
10:30:31:335;10:30:31:300;-0.15322891;9.615114;1.436521
10:30:31:343;10:30:31:300;-0.15322891;9.615114;1.436521
10:30:31:351;10:30:31:300;-0.15322891;9.615114;1.436521
10:30:31:359;10:30:31:300;-0.15322891;9.615114;1.436521
10:30:31:367;10:30:31:300;-0.15322891;9.615114;1.436521
10:30:31:375;10:30:31:300;-0.15322891;9.615114;1.436521
10:30:31:382;10:30:31:300;-0.15322891;9.615114;1.436521
10:30:31:390;10:30:31:300;-0.15322891;9.615114;1.436521
10:30:31:398;10:30:31:300;-0.15322891;9.615114;1.436521
10:30:31:406;10:30:31:300;-0.15322891;9.615114;1.436521
10:30:31:414;10:30:31:414;-0.36391866;9.998186;1.1492168
10:30:31:421;10:30:31:414;-0.36391866;9.998186;1.1492168
10:30:31:429;10:30:31:414;-0.36391866;9.998186;1.1492168
10:30:31:437;10:30:31:414;-0.36391866;9.998186;1.1492168
10:30:31:445;10:30:31:414;-0.36391866;9.998186;1.1492168
10:30:31:453;10:30:31:414;-0.36391866;9.998186;1.1492168
10:30:31:460;10:30:31:414;-0.36391866;9.998186;1.1492168
10:30:31:468;10:30:31:414;-0.36391866;9.998186;1.1492168
10:30:31:476;10:30:31:414;-0.36391866;9.998186;1.1492168
10:30:31:484;10:30:31:414;-0.36391866;9.998186;1.1492168
10:30:31:492;10:30:31:414;-0.36391866;9.998186;1.1492168
10:30:31:500;10:30:31:414;-0.36391866;9.998186;1.1492168
10:30:31:507;10:30:31:414;-0.36391866;9.998186;1.1492168
10:30:31:515;10:30:31:414;-0.36391866;9.998186;1.1492168
10:30:31:523;10:30:31:414;-0.36391866;9.998186;1.1492168
10:30:31:531;10:30:31:414;-0.36391866;9.998186;1.1492168
10:30:31:539;10:30:31:414;-0.36391866;9.998186;1.1492168
10:30:31:546;10:30:31:414;-0.36391866;9.998186;1.1492168
10:30:31:554;10:30:31:414;-0.36391866;9.998186;1.1492168
10:30:31:562;10:30:31:414;-0.36391866;9.998186;1.1492168
10:30:31:570;10:30:31:568;-0.5554548;11.070788;2.2218192
10:30:31:578;10:30:31:568;-0.5554548;11.070788;2.2218192
10:30:31:585;10:30:31:568;-0.5554548;11.070788;2.2218192
10:30:31:593;10:30:31:568;-0.5554548;11.070788;2.2218192
10:30:31:601;10:30:31:568;-0.5554548;11.070788;2.2218192
10:30:31:609;10:30:31:568;-0.5554548;11.070788;2.2218192
10:30:31:617;10:30:31:568;-0.5554548;11.070788;2.2218192
10:30:31:625;10:30:31:568;-0.5554548;11.070788;2.2218192
10:30:31:632;10:30:31:568;-0.5554548;11.070788;2.2218192
10:30:31:640;10:30:31:568;-0.5554548;11.070788;2.2218192
10:30:31:648;10:30:31:568;-0.5554548;11.070788;2.2218192
10:30:31:656;10:30:31:568;-0.5554548;11.070788;2.2218192
10:30:31:664;10:30:31:568;-0.5554548;11.070788;2.2218192
10:30:31:671;10:30:31:568;-0.5554548;11.070788;2.2218192
10:30:31:679;10:30:31:568;-0.5554548;11.070788;2.2218192
10:30:31:687;10:30:31:568;-0.5554548;11.070788;2.2218192
10:30:31:695;10:30:31:690;-0.095768064;10.055647;2.1260512
10:30:31:703;10:30:31:690;-0.095768064;10.055647;2.1260512
10:30:31:710;10:30:31:690;-0.095768064;10.055647;2.1260512
10:30:31:718;10:30:31:690;-0.095768064;10.055647;2.1260512
10:30:31:726;10:30:31:690;-0.095768064;10.055647;2.1260512
10:30:31:734;10:30:31:690;-0.095768064;10.055647;2.1260512
10:30:31:742;10:30:31:690;-0.095768064;10.055647;2.1260512
10:30:31:750;10:30:31:690;-0.095768064;10.055647;2.1260512
10:30:31:757;10:30:31:690;-0.095768064;10.055647;2.1260512
10:30:31:765;10:30:31:690;-0.095768064;10.055647;2.1260512
10:30:31:773;10:30:31:690;-0.095768064;10.055647;2.1260512
10:30:31:781;10:30:31:690;-0.095768064;10.055647;2.1260512
10:30:31:789;10:30:31:690;-0.095768064;10.055647;2.1260512
10:30:31:796;10:30:31:690;-0.095768064;10.055647;2.1260512
10:30:31:804;10:30:31:803;0.19153613;10.208876;2.27928
10:30:31:812;10:30:31:803;0.19153613;10.208876;2.27928
10:30:31:820;10:30:31:803;0.19153613;10.208876;2.27928
10:30:31:828;10:30:31:803;0.19153613;10.208876;2.27928
10:30:31:835;10:30:31:803;0.19153613;10.208876;2.27928
10:30:31:843;10:30:31:803;0.19153613;10.208876;2.27928
10:30:31:851;10:30:31:803;0.19153613;10.208876;2.27928
10:30:31:859;10:30:31:803;0.19153613;10.208876;2.27928
10:30:31:867;10:30:31:803;0.19153613;10.208876;2.27928
10:30:31:875;10:30:31:803;0.19153613;10.208876;2.27928
10:30:31:882;10:30:31:803;0.19153613;10.208876;2.27928
10:30:31:890;10:30:31:803;0.19153613;10.208876;2.27928
10:30:31:898;10:30:31:803;0.19153613;10.208876;2.27928
10:30:31:906;10:30:31:803;0.19153613;10.208876;2.27928
10:30:31:914;10:30:31:803;0.19153613;10.208876;2.27928
10:30:31:921;10:30:31:803;0.19153613;10.208876;2.27928
10:30:31:929;10:30:31:924;0.019153614;10.01734;2.030283
10:30:31:937;10:30:31:924;0.019153614;10.01734;2.030283
10:30:31:945;10:30:31:924;0.019153614;10.01734;2.030283
10:30:31:953;10:30:31:924;0.019153614;10.01734;2.030283
10:30:31:960;10:30:31:924;0.019153614;10.01734;2.030283
10:30:31:968;10:30:31:924;0.019153614;10.01734;2.030283
10:30:31:976;10:30:31:924;0.019153614;10.01734;2.030283
10:30:31:984;10:30:31:924;0.019153614;10.01734;2.030283
10:30:31:992;10:30:31:924;0.019153614;10.01734;2.030283
10:30:32:000;10:30:31:924;0.019153614;10.01734;2.030283
10:30:32:007;10:30:31:924;0.019153614;10.01734;2.030283
10:30:32:015;10:30:31:924;0.019153614;10.01734;2.030283
10:30:32:023;10:30:31:924;0.019153614;10.01734;2.030283
10:30:32:031;10:30:32:025;0.21068975;10.093954;1.9153614
10:30:32:039;10:30:32:025;0.21068975;10.093954;1.9153614
10:30:32:046;10:30:32:025;0.21068975;10.093954;1.9153614
10:30:32:054;10:30:32:025;0.21068975;10.093954;1.9153614
10:30:32:062;10:30:32:025;0.21068975;10.093954;1.9153614
10:30:32:070;10:30:32:025;0.21068975;10.093954;1.9153614
10:30:32:078;10:30:32:025;0.21068975;10.093954;1.9153614
10:30:32:085;10:30:32:025;0.21068975;10.093954;1.9153614
10:30:32:093;10:30:32:025;0.21068975;10.093954;1.9153614
10:30:32:101;10:30:32:025;0.21068975;10.093954;1.9153614
10:30:32:109;10:30:32:025;0.21068975;10.093954;1.9153614
10:30:32:117;10:30:32:025;0.21068975;10.093954;1.9153614
10:30:32:125;10:30:32:025;0.21068975;10.093954;1.9153614
10:30:32:132;10:30:32:025;0.21068975;10.093954;1.9153614
10:30:32:140;10:30:32:025;0.21068975;10.093954;1.9153614
10:30:32:148;10:30:32:144;0.17238252;10.01734;1.9536686
10:30:32:156;10:30:32:144;0.17238252;10.01734;1.9536686
10:30:32:164;10:30:32:144;0.17238252;10.01734;1.9536686
10:30:32:171;10:30:32:144;0.17238252;10.01734;1.9536686
10:30:32:179;10:30:32:144;0.17238252;10.01734;1.9536686
10:30:32:187;10:30:32:144;0.17238252;10.01734;1.9536686
10:30:32:195;10:30:32:144;0.17238252;10.01734;1.9536686
10:30:32:203;10:30:32:144;0.17238252;10.01734;1.9536686
10:30:32:210;10:30:32:144;0.17238252;10.01734;1.9536686
10:30:32:218;10:30:32:144;0.17238252;10.01734;1.9536686
10:30:32:226;10:30:32:144;0.17238252;10.01734;1.9536686
10:30:32:234;10:30:32:144;0.17238252;10.01734;1.9536686
10:30:32:242;10:30:32:144;0.17238252;10.01734;1.9536686
10:30:32:250;10:30:32:144;0.17238252;10.01734;1.9536686
10:30:32:257;10:30:32:144;0.17238252;10.01734;1.9536686
10:30:32:265;10:30:32:262;-0.11492168;10.093954;1.685518
10:30:32:273;10:30:32:262;-0.11492168;10.093954;1.685518
10:30:32:281;10:30:32:262;-0.11492168;10.093954;1.685518
10:30:32:289;10:30:32:262;-0.11492168;10.093954;1.685518
10:30:32:296;10:30:32:262;-0.11492168;10.093954;1.685518
10:30:32:304;10:30:32:262;-0.11492168;10.093954;1.685518
10:30:32:312;10:30:32:262;-0.11492168;10.093954;1.685518
10:30:32:320;10:30:32:262;-0.11492168;10.093954;1.685518
10:30:32:328;10:30:32:262;-0.11492168;10.093954;1.685518
10:30:32:335;10:30:32:262;-0.11492168;10.093954;1.685518
10:30:32:343;10:30:32:262;-0.11492168;10.093954;1.685518
10:30:32:351;10:30:32:262;-0.11492168;10.093954;1.685518
10:30:32:359;10:30:32:262;-0.11492168;10.093954;1.685518
10:30:32:367;10:30:32:262;-0.11492168;10.093954;1.685518
10:30:32:375;10:30:32:262;-0.11492168;10.093954;1.685518
10:30:32:382;10:30:32:380;0.11492168;10.01734;2.1260512
10:30:32:390;10:30:32:380;0.11492168;10.01734;2.1260512
10:30:32:398;10:30:32:380;0.11492168;10.01734;2.1260512
10:30:32:406;10:30:32:380;0.11492168;10.01734;2.1260512
10:30:32:414;10:30:32:380;0.11492168;10.01734;2.1260512
10:30:32:421;10:30:32:380;0.11492168;10.01734;2.1260512
10:30:32:429;10:30:32:380;0.11492168;10.01734;2.1260512
10:30:32:437;10:30:32:380;0.11492168;10.01734;2.1260512
10:30:32:445;10:30:32:380;0.11492168;10.01734;2.1260512
10:30:32:453;10:30:32:380;0.11492168;10.01734;2.1260512
10:30:32:460;10:30:32:380;0.11492168;10.01734;2.1260512
10:30:32:468;10:30:32:380;0.11492168;10.01734;2.1260512
10:30:32:476;10:30:32:380;0.11492168;10.01734;2.1260512
10:30:32:484;10:30:32:380;0.11492168;10.01734;2.1260512
10:30:32:492;10:30:32:380;0.11492168;10.01734;2.1260512
10:30:32:500;10:30:32:380;0.11492168;10.01734;2.1260512
10:30:32:507;10:30:32:502;0.05746084;9.921572;1.9919758
10:30:32:515;10:30:32:502;0.05746084;9.921572;1.9919758
10:30:32:523;10:30:32:502;0.05746084;9.921572;1.9919758
10:30:32:531;10:30:32:502;0.05746084;9.921572;1.9919758
10:30:32:539;10:30:32:502;0.05746084;9.921572;1.9919758
10:30:32:546;10:30:32:502;0.05746084;9.921572;1.9919758
10:30:32:554;10:30:32:502;0.05746084;9.921572;1.9919758
10:30:32:562;10:30:32:502;0.05746084;9.921572;1.9919758
10:30:32:570;10:30:32:502;0.05746084;9.921572;1.9919758
10:30:32:578;10:30:32:502;0.05746084;9.921572;1.9919758
10:30:32:585;10:30:32:502;0.05746084;9.921572;1.9919758
10:30:32:593;10:30:32:502;0.05746084;9.921572;1.9919758
10:30:32:601;10:30:32:502;0.05746084;9.921572;1.9919758
10:30:32:609;10:30:32:502;0.05746084;9.921572;1.9919758
10:30:32:617;10:30:32:502;0.05746084;9.921572;1.9919758
10:30:32:625;10:30:32:621;-0.11492168;9.998186;1.5897499
10:30:32:632;10:30:32:621;-0.11492168;9.998186;1.5897499
10:30:32:640;10:30:32:621;-0.11492168;9.998186;1.5897499
10:30:32:648;10:30:32:621;-0.11492168;9.998186;1.5897499
10:30:32:656;10:30:32:621;-0.11492168;9.998186;1.5897499
10:30:32:664;10:30:32:621;-0.11492168;9.998186;1.5897499
10:30:32:671;10:30:32:621;-0.11492168;9.998186;1.5897499
10:30:32:679;10:30:32:621;-0.11492168;9.998186;1.5897499
10:30:32:687;10:30:32:621;-0.11492168;9.998186;1.5897499
10:30:32:695;10:30:32:621;-0.11492168;9.998186;1.5897499
10:30:32:703;10:30:32:621;-0.11492168;9.998186;1.5897499
10:30:32:710;10:30:32:621;-0.11492168;9.998186;1.5897499
10:30:32:718;10:30:32:621;-0.11492168;9.998186;1.5897499
10:30:32:726;10:30:32:621;-0.11492168;9.998186;1.5897499
10:30:32:734;10:30:32:621;-0.11492168;9.998186;1.5897499
10:30:32:742;10:30:32:741;-0.05746084;10.132261;1.0151415
10:30:32:750;10:30:32:741;-0.05746084;10.132261;1.0151415
10:30:32:757;10:30:32:741;-0.05746084;10.132261;1.0151415
10:30:32:765;10:30:32:741;-0.05746084;10.132261;1.0151415
10:30:32:773;10:30:32:741;-0.05746084;10.132261;1.0151415
10:30:32:781;10:30:32:741;-0.05746084;10.132261;1.0151415
10:30:32:789;10:30:32:741;-0.05746084;10.132261;1.0151415
10:30:32:796;10:30:32:741;-0.05746084;10.132261;1.0151415
10:30:32:804;10:30:32:741;-0.05746084;10.132261;1.0151415
10:30:32:812;10:30:32:741;-0.05746084;10.132261;1.0151415
10:30:32:820;10:30:32:741;-0.05746084;10.132261;1.0151415
10:30:32:828;10:30:32:741;-0.05746084;10.132261;1.0151415
10:30:32:835;10:30:32:741;-0.05746084;10.132261;1.0151415
10:30:32:843;10:30:32:741;-0.05746084;10.132261;1.0151415
10:30:32:851;10:30:32:741;-0.05746084;10.132261;1.0151415
10:30:32:859;10:30:32:859;-0.11492168;10.151415;-0.05746084
10:30:32:867;10:30:32:859;-0.11492168;10.151415;-0.05746084
10:30:32:875;10:30:32:859;-0.11492168;10.151415;-0.05746084
10:30:32:882;10:30:32:859;-0.11492168;10.151415;-0.05746084
10:30:32:890;10:30:32:859;-0.11492168;10.151415;-0.05746084
10:30:32:898;10:30:32:859;-0.11492168;10.151415;-0.05746084
10:30:32:906;10:30:32:859;-0.11492168;10.151415;-0.05746084
10:30:32:914;10:30:32:859;-0.11492168;10.151415;-0.05746084
10:30:32:921;10:30:32:859;-0.11492168;10.151415;-0.05746084
10:30:32:929;10:30:32:859;-0.11492168;10.151415;-0.05746084
10:30:32:937;10:30:32:859;-0.11492168;10.151415;-0.05746084
10:30:32:945;10:30:32:859;-0.11492168;10.151415;-0.05746084
10:30:32:953;10:30:32:859;-0.11492168;10.151415;-0.05746084
10:30:32:960;10:30:32:859;-0.11492168;10.151415;-0.05746084
10:30:32:968;10:30:32:859;-0.11492168;10.151415;-0.05746084
10:30:32:976;10:30:32:859;-0.11492168;10.151415;-0.05746084
10:30:32:984;10:30:32:980;-0.11492168;9.959879;-0.24899697
10:30:32:992;10:30:32:980;-0.11492168;9.959879;-0.24899697
10:30:33:000;10:30:32:980;-0.11492168;9.959879;-0.24899697
10:30:33:007;10:30:32:980;-0.11492168;9.959879;-0.24899697
10:30:33:015;10:30:32:980;-0.11492168;9.959879;-0.24899697
10:30:33:023;10:30:32:980;-0.11492168;9.959879;-0.24899697
10:30:33:031;10:30:32:980;-0.11492168;9.959879;-0.24899697
10:30:33:039;10:30:32:980;-0.11492168;9.959879;-0.24899697
10:30:33:046;10:30:32:980;-0.11492168;9.959879;-0.24899697
10:30:33:054;10:30:32:980;-0.11492168;9.959879;-0.24899697
10:30:33:062;10:30:32:980;-0.11492168;9.959879;-0.24899697
10:30:33:070;10:30:32:980;-0.11492168;9.959879;-0.24899697
10:30:33:078;10:30:32:980;-0.11492168;9.959879;-0.24899697
10:30:33:085;10:30:32:980;-0.11492168;9.959879;-0.24899697
10:30:33:093;10:30:33:086;-0.24899697;9.883265;-0.22984336
10:30:33:101;10:30:33:086;-0.24899697;9.883265;-0.22984336
10:30:33:109;10:30:33:086;-0.24899697;9.883265;-0.22984336
10:30:33:117;10:30:33:086;-0.24899697;9.883265;-0.22984336
10:30:33:125;10:30:33:086;-0.24899697;9.883265;-0.22984336
10:30:33:132;10:30:33:086;-0.24899697;9.883265;-0.22984336
10:30:33:140;10:30:33:086;-0.24899697;9.883265;-0.22984336
10:30:33:148;10:30:33:086;-0.24899697;9.883265;-0.22984336
10:30:33:156;10:30:33:086;-0.24899697;9.883265;-0.22984336
10:30:33:164;10:30:33:086;-0.24899697;9.883265;-0.22984336
10:30:33:171;10:30:33:086;-0.24899697;9.883265;-0.22984336
10:30:33:179;10:30:33:086;-0.24899697;9.883265;-0.22984336
10:30:33:187;10:30:33:086;-0.24899697;9.883265;-0.22984336
10:30:33:195;10:30:33:192;-0.40222588;9.959879;-0.2681506
10:30:33:203;10:30:33:192;-0.40222588;9.959879;-0.2681506
10:30:33:210;10:30:33:192;-0.40222588;9.959879;-0.2681506
10:30:33:218;10:30:33:192;-0.40222588;9.959879;-0.2681506
10:30:33:226;10:30:33:192;-0.40222588;9.959879;-0.2681506
10:30:33:234;10:30:33:192;-0.40222588;9.959879;-0.2681506
10:30:33:242;10:30:33:192;-0.40222588;9.959879;-0.2681506
10:30:33:250;10:30:33:192;-0.40222588;9.959879;-0.2681506
10:30:33:257;10:30:33:192;-0.40222588;9.959879;-0.2681506
10:30:33:265;10:30:33:192;-0.40222588;9.959879;-0.2681506
10:30:33:273;10:30:33:192;-0.40222588;9.959879;-0.2681506
10:30:33:281;10:30:33:192;-0.40222588;9.959879;-0.2681506
10:30:33:289;10:30:33:192;-0.40222588;9.959879;-0.2681506
10:30:33:296;10:30:33:192;-0.40222588;9.959879;-0.2681506
10:30:33:304;10:30:33:192;-0.40222588;9.959879;-0.2681506
10:30:33:312;10:30:33:307;-0.19153613;9.883265;-0.24899697
10:30:33:320;10:30:33:307;-0.19153613;9.883265;-0.24899697
10:30:33:328;10:30:33:307;-0.19153613;9.883265;-0.24899697
10:30:33:335;10:30:33:307;-0.19153613;9.883265;-0.24899697
10:30:33:343;10:30:33:307;-0.19153613;9.883265;-0.24899697
10:30:33:351;10:30:33:307;-0.19153613;9.883265;-0.24899697
10:30:33:359;10:30:33:307;-0.19153613;9.883265;-0.24899697
10:30:33:367;10:30:33:307;-0.19153613;9.883265;-0.24899697
10:30:33:375;10:30:33:307;-0.19153613;9.883265;-0.24899697
10:30:33:382;10:30:33:307;-0.19153613;9.883265;-0.24899697
10:30:33:390;10:30:33:307;-0.19153613;9.883265;-0.24899697
10:30:33:398;10:30:33:307;-0.19153613;9.883265;-0.24899697
10:30:33:406;10:30:33:307;-0.19153613;9.883265;-0.24899697
10:30:33:414;10:30:33:307;-0.19153613;9.883265;-0.24899697
10:30:33:421;10:30:33:421;-0.24899697;10.01734;-0.22984336
10:30:33:429;10:30:33:421;-0.24899697;10.01734;-0.22984336
10:30:33:437;10:30:33:421;-0.24899697;10.01734;-0.22984336
10:30:33:445;10:30:33:421;-0.24899697;10.01734;-0.22984336
10:30:33:453;10:30:33:421;-0.24899697;10.01734;-0.22984336
10:30:33:460;10:30:33:421;-0.24899697;10.01734;-0.22984336
10:30:33:468;10:30:33:421;-0.24899697;10.01734;-0.22984336
10:30:33:476;10:30:33:421;-0.24899697;10.01734;-0.22984336
10:30:33:484;10:30:33:421;-0.24899697;10.01734;-0.22984336
10:30:33:492;10:30:33:421;-0.24899697;10.01734;-0.22984336
10:30:33:500;10:30:33:421;-0.24899697;10.01734;-0.22984336
10:30:33:507;10:30:33:421;-0.24899697;10.01734;-0.22984336
10:30:33:515;10:30:33:421;-0.24899697;10.01734;-0.22984336
10:30:33:523;10:30:33:421;-0.24899697;10.01734;-0.22984336
10:30:33:531;10:30:33:421;-0.24899697;10.01734;-0.22984336
10:30:33:539;10:30:33:421;-0.24899697;10.01734;-0.22984336
10:30:33:546;10:30:33:543;-0.2873042;9.749189;-0.1340753
10:30:33:554;10:30:33:543;-0.2873042;9.749189;-0.1340753
10:30:33:562;10:30:33:543;-0.2873042;9.749189;-0.1340753
10:30:33:570;10:30:33:543;-0.2873042;9.749189;-0.1340753
10:30:33:578;10:30:33:543;-0.2873042;9.749189;-0.1340753
10:30:33:585;10:30:33:543;-0.2873042;9.749189;-0.1340753
10:30:33:593;10:30:33:543;-0.2873042;9.749189;-0.1340753
10:30:33:601;10:30:33:543;-0.2873042;9.749189;-0.1340753
10:30:33:609;10:30:33:543;-0.2873042;9.749189;-0.1340753
10:30:33:617;10:30:33:543;-0.2873042;9.749189;-0.1340753
10:30:33:625;10:30:33:543;-0.2873042;9.749189;-0.1340753
10:30:33:632;10:30:33:543;-0.2873042;9.749189;-0.1340753
10:30:33:640;10:30:33:543;-0.2873042;9.749189;-0.1340753
10:30:33:648;10:30:33:543;-0.2873042;9.749189;-0.1340753
10:30:33:656;10:30:33:543;-0.2873042;9.749189;-0.1340753
10:30:33:664;10:30:33:661;-0.4213795;10.362105;0.7278373
10:30:33:671;10:30:33:661;-0.4213795;10.362105;0.7278373
10:30:33:679;10:30:33:661;-0.4213795;10.362105;0.7278373
10:30:33:687;10:30:33:661;-0.4213795;10.362105;0.7278373
10:30:33:695;10:30:33:661;-0.4213795;10.362105;0.7278373
10:30:33:703;10:30:33:661;-0.4213795;10.362105;0.7278373
10:30:33:710;10:30:33:661;-0.4213795;10.362105;0.7278373
10:30:33:718;10:30:33:661;-0.4213795;10.362105;0.7278373
10:30:33:726;10:30:33:661;-0.4213795;10.362105;0.7278373
10:30:33:734;10:30:33:661;-0.4213795;10.362105;0.7278373
10:30:33:742;10:30:33:661;-0.4213795;10.362105;0.7278373
10:30:33:750;10:30:33:661;-0.4213795;10.362105;0.7278373
10:30:33:757;10:30:33:661;-0.4213795;10.362105;0.7278373
10:30:33:765;10:30:33:661;-0.4213795;10.362105;0.7278373
10:30:33:773;10:30:33:661;-0.4213795;10.362105;0.7278373
10:30:33:781;10:30:33:779;-0.2681506;10.783484;0.24899697
10:30:33:789;10:30:33:779;-0.2681506;10.783484;0.24899697
10:30:33:796;10:30:33:779;-0.2681506;10.783484;0.24899697
10:30:33:804;10:30:33:779;-0.2681506;10.783484;0.24899697
10:30:33:812;10:30:33:779;-0.2681506;10.783484;0.24899697
10:30:33:820;10:30:33:779;-0.2681506;10.783484;0.24899697
10:30:33:828;10:30:33:779;-0.2681506;10.783484;0.24899697
10:30:33:835;10:30:33:779;-0.2681506;10.783484;0.24899697
10:30:33:843;10:30:33:779;-0.2681506;10.783484;0.24899697
10:30:33:851;10:30:33:779;-0.2681506;10.783484;0.24899697
10:30:33:859;10:30:33:779;-0.2681506;10.783484;0.24899697
10:30:33:867;10:30:33:779;-0.2681506;10.783484;0.24899697
10:30:33:875;10:30:33:779;-0.2681506;10.783484;0.24899697
10:30:33:882;10:30:33:779;-0.2681506;10.783484;0.24899697
10:30:33:890;10:30:33:779;-0.2681506;10.783484;0.24899697
10:30:33:898;10:30:33:895;-0.34476504;10.113108;0.51714754
10:30:33:906;10:30:33:895;-0.34476504;10.113108;0.51714754
10:30:33:914;10:30:33:895;-0.34476504;10.113108;0.51714754
10:30:33:921;10:30:33:895;-0.34476504;10.113108;0.51714754
10:30:33:929;10:30:33:895;-0.34476504;10.113108;0.51714754
10:30:33:937;10:30:33:895;-0.34476504;10.113108;0.51714754
10:30:33:945;10:30:33:895;-0.34476504;10.113108;0.51714754
10:30:33:953;10:30:33:895;-0.34476504;10.113108;0.51714754
10:30:33:960;10:30:33:895;-0.34476504;10.113108;0.51714754
10:30:33:968;10:30:33:895;-0.34476504;10.113108;0.51714754
10:30:33:976;10:30:33:895;-0.34476504;10.113108;0.51714754
10:30:33:984;10:30:33:895;-0.34476504;10.113108;0.51714754
10:30:33:992;10:30:33:895;-0.34476504;10.113108;0.51714754
10:30:34:000;10:30:33:895;-0.34476504;10.113108;0.51714754
10:30:34:007;10:30:33:895;-0.34476504;10.113108;0.51714754
10:30:34:015;10:30:34:012;-0.61291564;9.385271;1.5514427
10:30:34:023;10:30:34:012;-0.61291564;9.385271;1.5514427
10:30:34:031;10:30:34:012;-0.61291564;9.385271;1.5514427
10:30:34:039;10:30:34:012;-0.61291564;9.385271;1.5514427
10:30:34:046;10:30:34:012;-0.61291564;9.385271;1.5514427
10:30:34:054;10:30:34:012;-0.61291564;9.385271;1.5514427
10:30:34:062;10:30:34:012;-0.61291564;9.385271;1.5514427
10:30:34:070;10:30:34:012;-0.61291564;9.385271;1.5514427
10:30:34:078;10:30:34:012;-0.61291564;9.385271;1.5514427
10:30:34:085;10:30:34:012;-0.61291564;9.385271;1.5514427
10:30:34:093;10:30:34:012;-0.61291564;9.385271;1.5514427
10:30:34:101;10:30:34:012;-0.61291564;9.385271;1.5514427
10:30:34:109;10:30:34:012;-0.61291564;9.385271;1.5514427
10:30:34:117;10:30:34:113;-0.4213795;9.710882;1.0342951
10:30:34:125;10:30:34:113;-0.4213795;9.710882;1.0342951
10:30:34:132;10:30:34:113;-0.4213795;9.710882;1.0342951
10:30:34:140;10:30:34:113;-0.4213795;9.710882;1.0342951
10:30:34:148;10:30:34:113;-0.4213795;9.710882;1.0342951
10:30:34:156;10:30:34:113;-0.4213795;9.710882;1.0342951
10:30:34:164;10:30:34:113;-0.4213795;9.710882;1.0342951
10:30:34:171;10:30:34:113;-0.4213795;9.710882;1.0342951
10:30:34:179;10:30:34:113;-0.4213795;9.710882;1.0342951
10:30:34:187;10:30:34:113;-0.4213795;9.710882;1.0342951
10:30:34:195;10:30:34:113;-0.4213795;9.710882;1.0342951
10:30:34:203;10:30:34:113;-0.4213795;9.710882;1.0342951
10:30:34:210;10:30:34:113;-0.4213795;9.710882;1.0342951
10:30:34:218;10:30:34:113;-0.4213795;9.710882;1.0342951
10:30:34:226;10:30:34:113;-0.4213795;9.710882;1.0342951
10:30:34:234;10:30:34:230;-0.49799395;10.0748005;1.0726024
10:30:34:242;10:30:34:230;-0.49799395;10.0748005;1.0726024
10:30:34:250;10:30:34:230;-0.49799395;10.0748005;1.0726024
10:30:34:257;10:30:34:230;-0.49799395;10.0748005;1.0726024
10:30:34:265;10:30:34:230;-0.49799395;10.0748005;1.0726024
10:30:34:273;10:30:34:230;-0.49799395;10.0748005;1.0726024
10:30:34:281;10:30:34:230;-0.49799395;10.0748005;1.0726024
10:30:34:289;10:30:34:230;-0.49799395;10.0748005;1.0726024
10:30:34:296;10:30:34:230;-0.49799395;10.0748005;1.0726024
10:30:34:304;10:30:34:230;-0.49799395;10.0748005;1.0726024
10:30:34:312;10:30:34:230;-0.49799395;10.0748005;1.0726024
10:30:34:320;10:30:34:230;-0.49799395;10.0748005;1.0726024
10:30:34:328;10:30:34:230;-0.49799395;10.0748005;1.0726024
10:30:34:335;10:30:34:331;-0.36391866;9.730036;0.5554548
10:30:34:343;10:30:34:331;-0.36391866;9.730036;0.5554548
10:30:34:351;10:30:34:331;-0.36391866;9.730036;0.5554548
10:30:34:359;10:30:34:331;-0.36391866;9.730036;0.5554548
10:30:34:367;10:30:34:331;-0.36391866;9.730036;0.5554548
10:30:34:375;10:30:34:331;-0.36391866;9.730036;0.5554548
10:30:34:382;10:30:34:331;-0.36391866;9.730036;0.5554548
10:30:34:390;10:30:34:331;-0.36391866;9.730036;0.5554548
10:30:34:398;10:30:34:331;-0.36391866;9.730036;0.5554548
10:30:34:406;10:30:34:331;-0.36391866;9.730036;0.5554548
10:30:34:414;10:30:34:331;-0.36391866;9.730036;0.5554548
10:30:34:421;10:30:34:331;-0.36391866;9.730036;0.5554548
10:30:34:429;10:30:34:331;-0.36391866;9.730036;0.5554548
10:30:34:437;10:30:34:331;-0.36391866;9.730036;0.5554548
10:30:34:445;10:30:34:444;-0.5554548;10.170568;0.34476504
10:30:34:453;10:30:34:444;-0.5554548;10.170568;0.34476504
10:30:34:460;10:30:34:444;-0.5554548;10.170568;0.34476504
10:30:34:468;10:30:34:444;-0.5554548;10.170568;0.34476504
10:30:34:476;10:30:34:444;-0.5554548;10.170568;0.34476504
10:30:34:484;10:30:34:444;-0.5554548;10.170568;0.34476504
10:30:34:492;10:30:34:444;-0.5554548;10.170568;0.34476504
10:30:34:500;10:30:34:444;-0.5554548;10.170568;0.34476504
10:30:34:507;10:30:34:444;-0.5554548;10.170568;0.34476504
10:30:34:515;10:30:34:444;-0.5554548;10.170568;0.34476504
10:30:34:523;10:30:34:444;-0.5554548;10.170568;0.34476504
10:30:34:531;10:30:34:444;-0.5554548;10.170568;0.34476504
10:30:34:539;10:30:34:444;-0.5554548;10.170568;0.34476504
10:30:34:546;10:30:34:545;-0.2681506;10.055647;0.40222588
10:30:34:554;10:30:34:545;-0.2681506;10.055647;0.40222588
10:30:34:562;10:30:34:545;-0.2681506;10.055647;0.40222588
10:30:34:570;10:30:34:545;-0.2681506;10.055647;0.40222588
10:30:34:578;10:30:34:545;-0.2681506;10.055647;0.40222588
10:30:34:585;10:30:34:545;-0.2681506;10.055647;0.40222588
10:30:34:593;10:30:34:545;-0.2681506;10.055647;0.40222588
10:30:34:601;10:30:34:545;-0.2681506;10.055647;0.40222588
10:30:34:609;10:30:34:545;-0.2681506;10.055647;0.40222588
10:30:34:617;10:30:34:545;-0.2681506;10.055647;0.40222588
10:30:34:625;10:30:34:545;-0.2681506;10.055647;0.40222588
10:30:34:632;10:30:34:545;-0.2681506;10.055647;0.40222588
10:30:34:640;10:30:34:545;-0.2681506;10.055647;0.40222588
10:30:34:648;10:30:34:545;-0.2681506;10.055647;0.40222588
10:30:34:656;10:30:34:545;-0.2681506;10.055647;0.40222588
10:30:34:664;10:30:34:663;-0.095768064;9.959879;0.61291564
10:30:34:671;10:30:34:663;-0.095768064;9.959879;0.61291564
10:30:34:679;10:30:34:663;-0.095768064;9.959879;0.61291564
10:30:34:687;10:30:34:663;-0.095768064;9.959879;0.61291564
10:30:34:695;10:30:34:663;-0.095768064;9.959879;0.61291564
10:30:34:703;10:30:34:663;-0.095768064;9.959879;0.61291564
10:30:34:710;10:30:34:663;-0.095768064;9.959879;0.61291564
10:30:34:718;10:30:34:663;-0.095768064;9.959879;0.61291564
10:30:34:726;10:30:34:663;-0.095768064;9.959879;0.61291564
10:30:34:734;10:30:34:663;-0.095768064;9.959879;0.61291564
10:30:34:742;10:30:34:663;-0.095768064;9.959879;0.61291564
10:30:34:750;10:30:34:663;-0.095768064;9.959879;0.61291564
10:30:34:757;10:30:34:663;-0.095768064;9.959879;0.61291564
10:30:34:765;10:30:34:663;-0.095768064;9.959879;0.61291564
10:30:34:773;10:30:34:663;-0.095768064;9.959879;0.61291564
10:30:34:781;10:30:34:663;-0.095768064;9.959879;0.61291564
10:30:34:789;10:30:34:782;-0.1340753;10.055647;-0.2873042
10:30:34:796;10:30:34:782;-0.1340753;10.055647;-0.2873042
10:30:34:804;10:30:34:782;-0.1340753;10.055647;-0.2873042
10:30:34:812;10:30:34:782;-0.1340753;10.055647;-0.2873042
10:30:34:820;10:30:34:782;-0.1340753;10.055647;-0.2873042
10:30:34:828;10:30:34:782;-0.1340753;10.055647;-0.2873042
10:30:34:835;10:30:34:782;-0.1340753;10.055647;-0.2873042
10:30:34:843;10:30:34:782;-0.1340753;10.055647;-0.2873042
10:30:34:851;10:30:34:782;-0.1340753;10.055647;-0.2873042
10:30:34:859;10:30:34:782;-0.1340753;10.055647;-0.2873042
10:30:34:867;10:30:34:782;-0.1340753;10.055647;-0.2873042
10:30:34:875;10:30:34:782;-0.1340753;10.055647;-0.2873042
10:30:34:882;10:30:34:782;-0.1340753;10.055647;-0.2873042
10:30:34:890;10:30:34:782;-0.1340753;10.055647;-0.2873042
10:30:34:898;10:30:34:897;-0.51714754;10.113108;-0.2681506
10:30:34:906;10:30:34:897;-0.51714754;10.113108;-0.2681506
10:30:34:914;10:30:34:897;-0.51714754;10.113108;-0.2681506
10:30:34:921;10:30:34:897;-0.51714754;10.113108;-0.2681506
10:30:34:929;10:30:34:897;-0.51714754;10.113108;-0.2681506
10:30:34:937;10:30:34:897;-0.51714754;10.113108;-0.2681506
10:30:34:945;10:30:34:897;-0.51714754;10.113108;-0.2681506
10:30:34:953;10:30:34:897;-0.51714754;10.113108;-0.2681506
10:30:34:960;10:30:34:897;-0.51714754;10.113108;-0.2681506
10:30:34:968;10:30:34:897;-0.51714754;10.113108;-0.2681506
10:30:34:976;10:30:34:897;-0.51714754;10.113108;-0.2681506
10:30:34:984;10:30:34:897;-0.51714754;10.113108;-0.2681506
10:30:34:992;10:30:34:897;-0.51714754;10.113108;-0.2681506
10:30:35:000;10:30:34:897;-0.51714754;10.113108;-0.2681506
10:30:35:007;10:30:34:897;-0.51714754;10.113108;-0.2681506
10:30:35:015;10:30:34:897;-0.51714754;10.113108;-0.2681506
10:30:35:023;10:30:35:017;-0.1340753;9.940725;-0.30645782
10:30:35:031;10:30:35:017;-0.1340753;9.940725;-0.30645782
10:30:35:039;10:30:35:017;-0.1340753;9.940725;-0.30645782
10:30:35:046;10:30:35:017;-0.1340753;9.940725;-0.30645782
10:30:35:054;10:30:35:017;-0.1340753;9.940725;-0.30645782
10:30:35:062;10:30:35:017;-0.1340753;9.940725;-0.30645782
10:30:35:070;10:30:35:017;-0.1340753;9.940725;-0.30645782
10:30:35:078;10:30:35:017;-0.1340753;9.940725;-0.30645782
10:30:35:085;10:30:35:017;-0.1340753;9.940725;-0.30645782
10:30:35:093;10:30:35:017;-0.1340753;9.940725;-0.30645782
10:30:35:101;10:30:35:017;-0.1340753;9.940725;-0.30645782
10:30:35:109;10:30:35:017;-0.1340753;9.940725;-0.30645782
10:30:35:117;10:30:35:017;-0.1340753;9.940725;-0.30645782
10:30:35:125;10:30:35:017;-0.1340753;9.940725;-0.30645782
10:30:35:132;10:30:35:017;-0.1340753;9.940725;-0.30645782
10:30:35:140;10:30:35:134;-0.05746084;10.036493;-0.076614454
10:30:35:148;10:30:35:134;-0.05746084;10.036493;-0.076614454
10:30:35:156;10:30:35:134;-0.05746084;10.036493;-0.076614454
10:30:35:164;10:30:35:134;-0.05746084;10.036493;-0.076614454
10:30:35:171;10:30:35:134;-0.05746084;10.036493;-0.076614454
10:30:35:179;10:30:35:134;-0.05746084;10.036493;-0.076614454
10:30:35:187;10:30:35:134;-0.05746084;10.036493;-0.076614454
10:30:35:195;10:30:35:134;-0.05746084;10.036493;-0.076614454
10:30:35:203;10:30:35:134;-0.05746084;10.036493;-0.076614454
10:30:35:210;10:30:35:134;-0.05746084;10.036493;-0.076614454
10:30:35:218;10:30:35:134;-0.05746084;10.036493;-0.076614454
10:30:35:226;10:30:35:134;-0.05746084;10.036493;-0.076614454
10:30:35:234;10:30:35:134;-0.05746084;10.036493;-0.076614454
10:30:35:242;10:30:35:239;-0.05746084;9.844957;-0.038307227
10:30:35:250;10:30:35:239;-0.05746084;9.844957;-0.038307227
10:30:35:257;10:30:35:239;-0.05746084;9.844957;-0.038307227
10:30:35:265;10:30:35:239;-0.05746084;9.844957;-0.038307227
10:30:35:273;10:30:35:239;-0.05746084;9.844957;-0.038307227
10:30:35:281;10:30:35:239;-0.05746084;9.844957;-0.038307227
10:30:35:289;10:30:35:239;-0.05746084;9.844957;-0.038307227
10:30:35:296;10:30:35:239;-0.05746084;9.844957;-0.038307227
10:30:35:304;10:30:35:239;-0.05746084;9.844957;-0.038307227
10:30:35:312;10:30:35:239;-0.05746084;9.844957;-0.038307227
10:30:35:320;10:30:35:239;-0.05746084;9.844957;-0.038307227
10:30:35:328;10:30:35:239;-0.05746084;9.844957;-0.038307227
10:30:35:335;10:30:35:239;-0.05746084;9.844957;-0.038307227
10:30:35:343;10:30:35:239;-0.05746084;9.844957;-0.038307227
10:30:35:351;10:30:35:239;-0.05746084;9.844957;-0.038307227
10:30:35:359;10:30:35:355;-0.2873042;10.0748005;-0.49799395
10:30:35:367;10:30:35:355;-0.2873042;10.0748005;-0.49799395
10:30:35:375;10:30:35:355;-0.2873042;10.0748005;-0.49799395
10:30:35:382;10:30:35:355;-0.2873042;10.0748005;-0.49799395
10:30:35:390;10:30:35:355;-0.2873042;10.0748005;-0.49799395
10:30:35:398;10:30:35:355;-0.2873042;10.0748005;-0.49799395
10:30:35:406;10:30:35:355;-0.2873042;10.0748005;-0.49799395
10:30:35:414;10:30:35:355;-0.2873042;10.0748005;-0.49799395
10:30:35:421;10:30:35:355;-0.2873042;10.0748005;-0.49799395
10:30:35:429;10:30:35:355;-0.2873042;10.0748005;-0.49799395
10:30:35:437;10:30:35:355;-0.2873042;10.0748005;-0.49799395
10:30:35:445;10:30:35:355;-0.2873042;10.0748005;-0.49799395
10:30:35:453;10:30:35:355;-0.2873042;10.0748005;-0.49799395
10:30:35:460;10:30:35:457;-0.6895301;10.381259;-0.4405331
10:30:35:468;10:30:35:457;-0.6895301;10.381259;-0.4405331
10:30:35:476;10:30:35:457;-0.6895301;10.381259;-0.4405331
10:30:35:484;10:30:35:457;-0.6895301;10.381259;-0.4405331
10:30:35:492;10:30:35:457;-0.6895301;10.381259;-0.4405331
10:30:35:500;10:30:35:457;-0.6895301;10.381259;-0.4405331
10:30:35:507;10:30:35:457;-0.6895301;10.381259;-0.4405331
10:30:35:515;10:30:35:457;-0.6895301;10.381259;-0.4405331
10:30:35:523;10:30:35:457;-0.6895301;10.381259;-0.4405331
10:30:35:531;10:30:35:457;-0.6895301;10.381259;-0.4405331
10:30:35:539;10:30:35:457;-0.6895301;10.381259;-0.4405331
10:30:35:546;10:30:35:457;-0.6895301;10.381259;-0.4405331
10:30:35:554;10:30:35:457;-0.6895301;10.381259;-0.4405331
10:30:35:562;10:30:35:457;-0.6895301;10.381259;-0.4405331
10:30:35:570;10:30:35:457;-0.6895301;10.381259;-0.4405331
10:30:35:578;10:30:35:457;-0.6895301;10.381259;-0.4405331
10:30:35:585;10:30:35:457;-0.6895301;10.381259;-0.4405331
10:30:35:593;10:30:35:457;-0.6895301;10.381259;-0.4405331
10:30:35:601;10:30:35:457;-0.6895301;10.381259;-0.4405331
10:30:35:609;10:30:35:457;-0.6895301;10.381259;-0.4405331
10:30:35:617;10:30:35:612;-0.05746084;10.496181;-0.19153613
10:30:35:625;10:30:35:612;-0.05746084;10.496181;-0.19153613
10:30:35:632;10:30:35:612;-0.05746084;10.496181;-0.19153613
10:30:35:640;10:30:35:612;-0.05746084;10.496181;-0.19153613
10:30:35:648;10:30:35:612;-0.05746084;10.496181;-0.19153613
10:30:35:656;10:30:35:612;-0.05746084;10.496181;-0.19153613
10:30:35:664;10:30:35:612;-0.05746084;10.496181;-0.19153613
10:30:35:671;10:30:35:612;-0.05746084;10.496181;-0.19153613
10:30:35:679;10:30:35:612;-0.05746084;10.496181;-0.19153613
10:30:35:687;10:30:35:612;-0.05746084;10.496181;-0.19153613
10:30:35:695;10:30:35:612;-0.05746084;10.496181;-0.19153613
10:30:35:703;10:30:35:612;-0.05746084;10.496181;-0.19153613
10:30:35:710;10:30:35:612;-0.05746084;10.496181;-0.19153613
10:30:35:718;10:30:35:612;-0.05746084;10.496181;-0.19153613
10:30:35:726;10:30:35:612;-0.05746084;10.496181;-0.19153613
10:30:35:734;10:30:35:612;-0.05746084;10.496181;-0.19153613
10:30:35:742;10:30:35:742;0.5554548;10.132261;-0.22984336
10:30:35:750;10:30:35:742;0.5554548;10.132261;-0.22984336
10:30:35:757;10:30:35:742;0.5554548;10.132261;-0.22984336
10:30:35:765;10:30:35:742;0.5554548;10.132261;-0.22984336
10:30:35:773;10:30:35:742;0.5554548;10.132261;-0.22984336
10:30:35:781;10:30:35:742;0.5554548;10.132261;-0.22984336
10:30:35:789;10:30:35:742;0.5554548;10.132261;-0.22984336
10:30:35:796;10:30:35:742;0.5554548;10.132261;-0.22984336
10:30:35:804;10:30:35:742;0.5554548;10.132261;-0.22984336
10:30:35:812;10:30:35:742;0.5554548;10.132261;-0.22984336
10:30:35:820;10:30:35:742;0.5554548;10.132261;-0.22984336
10:30:35:828;10:30:35:742;0.5554548;10.132261;-0.22984336
10:30:35:835;10:30:35:742;0.5554548;10.132261;-0.22984336
10:30:35:843;10:30:35:742;0.5554548;10.132261;-0.22984336
10:30:35:851;10:30:35:851;0.30645782;9.844957;-0.22984336
10:30:35:859;10:30:35:851;0.30645782;9.844957;-0.22984336
10:30:35:867;10:30:35:851;0.30645782;9.844957;-0.22984336
10:30:35:875;10:30:35:851;0.30645782;9.844957;-0.22984336
10:30:35:882;10:30:35:851;0.30645782;9.844957;-0.22984336
10:30:35:890;10:30:35:851;0.30645782;9.844957;-0.22984336
10:30:35:898;10:30:35:851;0.30645782;9.844957;-0.22984336
10:30:35:906;10:30:35:851;0.30645782;9.844957;-0.22984336
10:30:35:914;10:30:35:851;0.30645782;9.844957;-0.22984336
10:30:35:921;10:30:35:851;0.30645782;9.844957;-0.22984336
10:30:35:929;10:30:35:851;0.30645782;9.844957;-0.22984336
10:30:35:937;10:30:35:851;0.30645782;9.844957;-0.22984336
10:30:35:945;10:30:35:851;0.30645782;9.844957;-0.22984336
10:30:35:953;10:30:35:851;0.30645782;9.844957;-0.22984336
10:30:35:960;10:30:35:954;0.15322891;9.940725;-0.7661445
10:30:35:968;10:30:35:954;0.15322891;9.940725;-0.7661445
10:30:35:976;10:30:35:954;0.15322891;9.940725;-0.7661445
10:30:35:984;10:30:35:954;0.15322891;9.940725;-0.7661445
10:30:35:992;10:30:35:954;0.15322891;9.940725;-0.7661445
10:30:36:000;10:30:35:954;0.15322891;9.940725;-0.7661445
10:30:36:007;10:30:35:954;0.15322891;9.940725;-0.7661445
10:30:36:015;10:30:35:954;0.15322891;9.940725;-0.7661445
10:30:36:023;10:30:35:954;0.15322891;9.940725;-0.7661445
10:30:36:031;10:30:35:954;0.15322891;9.940725;-0.7661445
10:30:36:039;10:30:35:954;0.15322891;9.940725;-0.7661445
10:30:36:046;10:30:35:954;0.15322891;9.940725;-0.7661445
10:30:36:054;10:30:35:954;0.15322891;9.940725;-0.7661445
10:30:36:062;10:30:35:954;0.15322891;9.940725;-0.7661445
10:30:36:070;10:30:35:954;0.15322891;9.940725;-0.7661445
10:30:36:078;10:30:35:954;0.15322891;9.940725;-0.7661445
10:30:36:085;10:30:35:954;0.15322891;9.940725;-0.7661445
10:30:36:093;10:30:35:954;0.15322891;9.940725;-0.7661445
10:30:36:101;10:30:36:095;0.22984336;10.036493;-0.51714754
10:30:36:109;10:30:36:095;0.22984336;10.036493;-0.51714754
10:30:36:117;10:30:36:095;0.22984336;10.036493;-0.51714754
10:30:36:125;10:30:36:095;0.22984336;10.036493;-0.51714754
10:30:36:132;10:30:36:095;0.22984336;10.036493;-0.51714754
10:30:36:140;10:30:36:095;0.22984336;10.036493;-0.51714754
10:30:36:148;10:30:36:095;0.22984336;10.036493;-0.51714754
10:30:36:156;10:30:36:095;0.22984336;10.036493;-0.51714754
10:30:36:164;10:30:36:095;0.22984336;10.036493;-0.51714754
10:30:36:171;10:30:36:095;0.22984336;10.036493;-0.51714754
10:30:36:179;10:30:36:095;0.22984336;10.036493;-0.51714754
10:30:36:187;10:30:36:095;0.22984336;10.036493;-0.51714754
10:30:36:195;10:30:36:095;0.22984336;10.036493;-0.51714754
10:30:36:203;10:30:36:095;0.22984336;10.036493;-0.51714754
10:30:36:210;10:30:36:206;0.51714754;9.864111;-0.40222588
10:30:36:218;10:30:36:206;0.51714754;9.864111;-0.40222588
10:30:36:226;10:30:36:206;0.51714754;9.864111;-0.40222588
10:30:36:234;10:30:36:206;0.51714754;9.864111;-0.40222588
10:30:36:242;10:30:36:206;0.51714754;9.864111;-0.40222588
10:30:36:250;10:30:36:206;0.51714754;9.864111;-0.40222588
10:30:36:257;10:30:36:206;0.51714754;9.864111;-0.40222588
10:30:36:265;10:30:36:206;0.51714754;9.864111;-0.40222588
10:30:36:273;10:30:36:206;0.51714754;9.864111;-0.40222588
10:30:36:281;10:30:36:206;0.51714754;9.864111;-0.40222588
10:30:36:289;10:30:36:206;0.51714754;9.864111;-0.40222588
10:30:36:296;10:30:36:206;0.51714754;9.864111;-0.40222588
10:30:36:304;10:30:36:206;0.51714754;9.864111;-0.40222588
10:30:36:312;10:30:36:206;0.51714754;9.864111;-0.40222588
10:30:36:320;10:30:36:206;0.51714754;9.864111;-0.40222588
10:30:36:328;10:30:36:206;0.51714754;9.864111;-0.40222588
10:30:36:335;10:30:36:206;0.51714754;9.864111;-0.40222588
10:30:36:343;10:30:36:342;0.32561144;10.036493;-0.19153613
10:30:36:351;10:30:36:342;0.32561144;10.036493;-0.19153613
10:30:36:359;10:30:36:342;0.32561144;10.036493;-0.19153613
10:30:36:367;10:30:36:342;0.32561144;10.036493;-0.19153613
10:30:36:375;10:30:36:342;0.32561144;10.036493;-0.19153613
10:30:36:382;10:30:36:342;0.32561144;10.036493;-0.19153613
10:30:36:390;10:30:36:342;0.32561144;10.036493;-0.19153613
10:30:36:398;10:30:36:342;0.32561144;10.036493;-0.19153613
10:30:36:406;10:30:36:342;0.32561144;10.036493;-0.19153613
10:30:36:414;10:30:36:342;0.32561144;10.036493;-0.19153613
10:30:36:421;10:30:36:342;0.32561144;10.036493;-0.19153613
10:30:36:429;10:30:36:342;0.32561144;10.036493;-0.19153613
10:30:36:437;10:30:36:342;0.32561144;10.036493;-0.19153613
10:30:36:445;10:30:36:342;0.32561144;10.036493;-0.19153613
10:30:36:453;10:30:36:452;0.11492168;10.036493;-0.51714754
10:30:36:460;10:30:36:452;0.11492168;10.036493;-0.51714754
10:30:36:468;10:30:36:452;0.11492168;10.036493;-0.51714754
10:30:36:476;10:30:36:452;0.11492168;10.036493;-0.51714754
10:30:36:484;10:30:36:452;0.11492168;10.036493;-0.51714754
10:30:36:492;10:30:36:452;0.11492168;10.036493;-0.51714754
10:30:36:500;10:30:36:452;0.11492168;10.036493;-0.51714754
10:30:36:507;10:30:36:452;0.11492168;10.036493;-0.51714754
10:30:36:515;10:30:36:452;0.11492168;10.036493;-0.51714754
10:30:36:523;10:30:36:452;0.11492168;10.036493;-0.51714754
10:30:36:531;10:30:36:452;0.11492168;10.036493;-0.51714754
10:30:36:539;10:30:36:452;0.11492168;10.036493;-0.51714754
10:30:36:546;10:30:36:452;0.11492168;10.036493;-0.51714754
10:30:36:554;10:30:36:554;0.21068975;9.730036;-0.4213795
10:30:36:562;10:30:36:554;0.21068975;9.730036;-0.4213795
10:30:36:570;10:30:36:554;0.21068975;9.730036;-0.4213795
10:30:36:578;10:30:36:554;0.21068975;9.730036;-0.4213795
10:30:36:585;10:30:36:554;0.21068975;9.730036;-0.4213795
10:30:36:593;10:30:36:554;0.21068975;9.730036;-0.4213795
10:30:36:601;10:30:36:554;0.21068975;9.730036;-0.4213795
10:30:36:609;10:30:36:554;0.21068975;9.730036;-0.4213795
10:30:36:617;10:30:36:554;0.21068975;9.730036;-0.4213795
10:30:36:625;10:30:36:554;0.21068975;9.730036;-0.4213795
10:30:36:632;10:30:36:554;0.21068975;9.730036;-0.4213795
10:30:36:640;10:30:36:554;0.21068975;9.730036;-0.4213795
10:30:36:648;10:30:36:554;0.21068975;9.730036;-0.4213795
10:30:36:656;10:30:36:554;0.21068975;9.730036;-0.4213795
10:30:36:664;10:30:36:554;0.21068975;9.730036;-0.4213795
10:30:36:671;10:30:36:554;0.21068975;9.730036;-0.4213795
10:30:36:679;10:30:36:672;-0.05746084;9.844957;-0.30645782
10:30:36:687;10:30:36:672;-0.05746084;9.844957;-0.30645782
10:30:36:695;10:30:36:672;-0.05746084;9.844957;-0.30645782
10:30:36:703;10:30:36:672;-0.05746084;9.844957;-0.30645782
10:30:36:710;10:30:36:672;-0.05746084;9.844957;-0.30645782
10:30:36:718;10:30:36:672;-0.05746084;9.844957;-0.30645782
10:30:36:726;10:30:36:672;-0.05746084;9.844957;-0.30645782
10:30:36:734;10:30:36:672;-0.05746084;9.844957;-0.30645782
10:30:36:742;10:30:36:672;-0.05746084;9.844957;-0.30645782
10:30:36:750;10:30:36:672;-0.05746084;9.844957;-0.30645782
10:30:36:757;10:30:36:672;-0.05746084;9.844957;-0.30645782
10:30:36:765;10:30:36:672;-0.05746084;9.844957;-0.30645782
10:30:36:773;10:30:36:773;0.019153614;9.998186;-0.1340753
10:30:36:781;10:30:36:773;0.019153614;9.998186;-0.1340753
10:30:36:789;10:30:36:773;0.019153614;9.998186;-0.1340753
10:30:36:796;10:30:36:773;0.019153614;9.998186;-0.1340753
10:30:36:804;10:30:36:773;0.019153614;9.998186;-0.1340753
10:30:36:812;10:30:36:773;0.019153614;9.998186;-0.1340753
10:30:36:820;10:30:36:773;0.019153614;9.998186;-0.1340753
10:30:36:828;10:30:36:773;0.019153614;9.998186;-0.1340753
10:30:36:835;10:30:36:773;0.019153614;9.998186;-0.1340753
10:30:36:843;10:30:36:773;0.019153614;9.998186;-0.1340753
10:30:36:851;10:30:36:773;0.019153614;9.998186;-0.1340753
10:30:36:859;10:30:36:773;0.019153614;9.998186;-0.1340753
10:30:36:867;10:30:36:773;0.019153614;9.998186;-0.1340753
10:30:36:875;10:30:36:773;0.019153614;9.998186;-0.1340753
10:30:36:882;10:30:36:773;0.019153614;9.998186;-0.1340753
10:30:36:890;10:30:36:773;0.019153614;9.998186;-0.1340753
10:30:36:898;10:30:36:773;0.019153614;9.998186;-0.1340753
10:30:36:906;10:30:36:773;0.019153614;9.998186;-0.1340753
10:30:36:914;10:30:36:907;0.1340753;10.208876;-0.22984336
10:30:36:921;10:30:36:907;0.1340753;10.208876;-0.22984336
10:30:36:929;10:30:36:907;0.1340753;10.208876;-0.22984336
10:30:36:937;10:30:36:907;0.1340753;10.208876;-0.22984336
10:30:36:945;10:30:36:907;0.1340753;10.208876;-0.22984336
10:30:36:953;10:30:36:907;0.1340753;10.208876;-0.22984336
10:30:36:960;10:30:36:907;0.1340753;10.208876;-0.22984336
10:30:36:968;10:30:36:907;0.1340753;10.208876;-0.22984336
10:30:36:976;10:30:36:907;0.1340753;10.208876;-0.22984336
10:30:36:984;10:30:36:907;0.1340753;10.208876;-0.22984336
10:30:36:992;10:30:36:907;0.1340753;10.208876;-0.22984336
10:30:37:000;10:30:36:907;0.1340753;10.208876;-0.22984336
10:30:37:007;10:30:36:907;0.1340753;10.208876;-0.22984336
10:30:37:015;10:30:37:010;0.24899697;10.01734;-0.63206923
10:30:37:023;10:30:37:010;0.24899697;10.01734;-0.63206923
10:30:37:031;10:30:37:010;0.24899697;10.01734;-0.63206923
10:30:37:039;10:30:37:010;0.24899697;10.01734;-0.63206923
10:30:37:046;10:30:37:010;0.24899697;10.01734;-0.63206923
10:30:37:054;10:30:37:010;0.24899697;10.01734;-0.63206923
10:30:37:062;10:30:37:010;0.24899697;10.01734;-0.63206923
10:30:37:070;10:30:37:010;0.24899697;10.01734;-0.63206923
10:30:37:078;10:30:37:010;0.24899697;10.01734;-0.63206923
10:30:37:085;10:30:37:010;0.24899697;10.01734;-0.63206923
10:30:37:093;10:30:37:010;0.24899697;10.01734;-0.63206923
10:30:37:101;10:30:37:010;0.24899697;10.01734;-0.63206923
10:30:37:109;10:30:37:010;0.24899697;10.01734;-0.63206923
10:30:37:117;10:30:37:010;0.24899697;10.01734;-0.63206923
10:30:37:125;10:30:37:010;0.24899697;10.01734;-0.63206923
10:30:37:132;10:30:37:130;0.21068975;10.01734;-0.4405331
10:30:37:140;10:30:37:130;0.21068975;10.01734;-0.4405331
10:30:37:148;10:30:37:130;0.21068975;10.01734;-0.4405331
10:30:37:156;10:30:37:130;0.21068975;10.01734;-0.4405331
10:30:37:164;10:30:37:130;0.21068975;10.01734;-0.4405331
10:30:37:171;10:30:37:130;0.21068975;10.01734;-0.4405331
10:30:37:179;10:30:37:130;0.21068975;10.01734;-0.4405331
10:30:37:187;10:30:37:130;0.21068975;10.01734;-0.4405331
10:30:37:195;10:30:37:130;0.21068975;10.01734;-0.4405331
10:30:37:203;10:30:37:130;0.21068975;10.01734;-0.4405331
10:30:37:210;10:30:37:130;0.21068975;10.01734;-0.4405331
10:30:37:218;10:30:37:130;0.21068975;10.01734;-0.4405331
10:30:37:226;10:30:37:130;0.21068975;10.01734;-0.4405331
10:30:37:234;10:30:37:231;0.22984336;9.825804;-0.24899697
10:30:37:242;10:30:37:231;0.22984336;9.825804;-0.24899697
10:30:37:250;10:30:37:231;0.22984336;9.825804;-0.24899697
10:30:37:257;10:30:37:231;0.22984336;9.825804;-0.24899697
10:30:37:265;10:30:37:231;0.22984336;9.825804;-0.24899697
10:30:37:273;10:30:37:231;0.22984336;9.825804;-0.24899697
10:30:37:281;10:30:37:231;0.22984336;9.825804;-0.24899697
10:30:37:289;10:30:37:231;0.22984336;9.825804;-0.24899697
10:30:37:296;10:30:37:231;0.22984336;9.825804;-0.24899697
10:30:37:304;10:30:37:231;0.22984336;9.825804;-0.24899697
10:30:37:312;10:30:37:231;0.22984336;9.825804;-0.24899697
10:30:37:320;10:30:37:231;0.22984336;9.825804;-0.24899697
10:30:37:328;10:30:37:231;0.22984336;9.825804;-0.24899697
10:30:37:335;10:30:37:335;-0.11492168;10.208876;-0.32561144
10:30:37:343;10:30:37:335;-0.11492168;10.208876;-0.32561144
10:30:37:351;10:30:37:335;-0.11492168;10.208876;-0.32561144
10:30:37:359;10:30:37:335;-0.11492168;10.208876;-0.32561144
10:30:37:367;10:30:37:335;-0.11492168;10.208876;-0.32561144
10:30:37:375;10:30:37:335;-0.11492168;10.208876;-0.32561144
10:30:37:382;10:30:37:335;-0.11492168;10.208876;-0.32561144
10:30:37:390;10:30:37:335;-0.11492168;10.208876;-0.32561144
10:30:37:398;10:30:37:335;-0.11492168;10.208876;-0.32561144
10:30:37:406;10:30:37:335;-0.11492168;10.208876;-0.32561144
10:30:37:414;10:30:37:335;-0.11492168;10.208876;-0.32561144
10:30:37:421;10:30:37:335;-0.11492168;10.208876;-0.32561144
10:30:37:429;10:30:37:335;-0.11492168;10.208876;-0.32561144
10:30:37:437;10:30:37:335;-0.11492168;10.208876;-0.32561144
10:30:37:445;10:30:37:335;-0.11492168;10.208876;-0.32561144
10:30:37:453;10:30:37:452;-0.15322891;9.921572;-0.59376204
10:30:37:460;10:30:37:452;-0.15322891;9.921572;-0.59376204
10:30:37:468;10:30:37:452;-0.15322891;9.921572;-0.59376204
10:30:37:476;10:30:37:452;-0.15322891;9.921572;-0.59376204
10:30:37:484;10:30:37:452;-0.15322891;9.921572;-0.59376204
10:30:37:492;10:30:37:452;-0.15322891;9.921572;-0.59376204
10:30:37:500;10:30:37:452;-0.15322891;9.921572;-0.59376204
10:30:37:507;10:30:37:452;-0.15322891;9.921572;-0.59376204
10:30:37:515;10:30:37:452;-0.15322891;9.921572;-0.59376204
10:30:37:523;10:30:37:452;-0.15322891;9.921572;-0.59376204
10:30:37:531;10:30:37:452;-0.15322891;9.921572;-0.59376204
10:30:37:539;10:30:37:452;-0.15322891;9.921572;-0.59376204
10:30:37:546;10:30:37:452;-0.15322891;9.921572;-0.59376204
10:30:37:554;10:30:37:452;-0.15322891;9.921572;-0.59376204
10:30:37:562;10:30:37:452;-0.15322891;9.921572;-0.59376204
10:30:37:570;10:30:37:570;0.019153614;9.883265;-0.15322891
10:30:37:578;10:30:37:570;0.019153614;9.883265;-0.15322891
10:30:37:585;10:30:37:570;0.019153614;9.883265;-0.15322891
10:30:37:593;10:30:37:570;0.019153614;9.883265;-0.15322891
10:30:37:601;10:30:37:570;0.019153614;9.883265;-0.15322891
10:30:37:609;10:30:37:570;0.019153614;9.883265;-0.15322891
10:30:37:617;10:30:37:570;0.019153614;9.883265;-0.15322891
10:30:37:625;10:30:37:570;0.019153614;9.883265;-0.15322891
10:30:37:632;10:30:37:570;0.019153614;9.883265;-0.15322891
10:30:37:640;10:30:37:570;0.019153614;9.883265;-0.15322891
10:30:37:648;10:30:37:570;0.019153614;9.883265;-0.15322891
10:30:37:656;10:30:37:570;0.019153614;9.883265;-0.15322891
10:30:37:664;10:30:37:570;0.019153614;9.883265;-0.15322891
10:30:37:671;10:30:37:570;0.019153614;9.883265;-0.15322891
10:30:37:679;10:30:37:570;0.019153614;9.883265;-0.15322891
10:30:37:687;10:30:37:687;0.17238252;9.902418;-0.34476504
10:30:37:695;10:30:37:687;0.17238252;9.902418;-0.34476504
10:30:37:703;10:30:37:687;0.17238252;9.902418;-0.34476504
10:30:37:710;10:30:37:687;0.17238252;9.902418;-0.34476504
10:30:37:718;10:30:37:687;0.17238252;9.902418;-0.34476504
10:30:37:726;10:30:37:687;0.17238252;9.902418;-0.34476504
10:30:37:734;10:30:37:687;0.17238252;9.902418;-0.34476504
10:30:37:742;10:30:37:687;0.17238252;9.902418;-0.34476504
10:30:37:750;10:30:37:687;0.17238252;9.902418;-0.34476504
10:30:37:757;10:30:37:687;0.17238252;9.902418;-0.34476504
10:30:37:765;10:30:37:687;0.17238252;9.902418;-0.34476504
10:30:37:773;10:30:37:687;0.17238252;9.902418;-0.34476504
10:30:37:781;10:30:37:687;0.17238252;9.902418;-0.34476504
10:30:37:789;10:30:37:687;0.17238252;9.902418;-0.34476504
10:30:37:796;10:30:37:687;0.17238252;9.902418;-0.34476504
10:30:37:804;10:30:37:687;0.17238252;9.902418;-0.34476504
10:30:37:812;10:30:37:805;0.1340753;10.0748005;-0.2681506
10:30:37:820;10:30:37:805;0.1340753;10.0748005;-0.2681506
10:30:37:828;10:30:37:805;0.1340753;10.0748005;-0.2681506
10:30:37:835;10:30:37:805;0.1340753;10.0748005;-0.2681506
10:30:37:843;10:30:37:805;0.1340753;10.0748005;-0.2681506
10:30:37:851;10:30:37:805;0.1340753;10.0748005;-0.2681506
10:30:37:859;10:30:37:805;0.1340753;10.0748005;-0.2681506
10:30:37:867;10:30:37:805;0.1340753;10.0748005;-0.2681506
10:30:37:875;10:30:37:805;0.1340753;10.0748005;-0.2681506
10:30:37:882;10:30:37:805;0.1340753;10.0748005;-0.2681506
10:30:37:890;10:30:37:805;0.1340753;10.0748005;-0.2681506
10:30:37:898;10:30:37:805;0.1340753;10.0748005;-0.2681506
10:30:37:906;10:30:37:805;0.1340753;10.0748005;-0.2681506
10:30:37:914;10:30:37:805;0.1340753;10.0748005;-0.2681506
10:30:37:921;10:30:37:805;0.1340753;10.0748005;-0.2681506
10:30:37:929;10:30:37:923;0.21068975;10.055647;-0.21068975
10:30:37:937;10:30:37:923;0.21068975;10.055647;-0.21068975
10:30:37:945;10:30:37:923;0.21068975;10.055647;-0.21068975
10:30:37:953;10:30:37:923;0.21068975;10.055647;-0.21068975
10:30:37:960;10:30:37:923;0.21068975;10.055647;-0.21068975
10:30:37:968;10:30:37:923;0.21068975;10.055647;-0.21068975
10:30:37:976;10:30:37:923;0.21068975;10.055647;-0.21068975
10:30:37:984;10:30:37:923;0.21068975;10.055647;-0.21068975
10:30:37:992;10:30:37:923;0.21068975;10.055647;-0.21068975
10:30:38:000;10:30:37:923;0.21068975;10.055647;-0.21068975
10:30:38:007;10:30:37:923;0.21068975;10.055647;-0.21068975
10:30:38:015;10:30:37:923;0.21068975;10.055647;-0.21068975
10:30:38:023;10:30:37:923;0.21068975;10.055647;-0.21068975
10:30:38:031;10:30:38:024;0.076614454;10.01734;-0.38307226
10:30:38:039;10:30:38:024;0.076614454;10.01734;-0.38307226
10:30:38:046;10:30:38:024;0.076614454;10.01734;-0.38307226
10:30:38:054;10:30:38:024;0.076614454;10.01734;-0.38307226
10:30:38:062;10:30:38:024;0.076614454;10.01734;-0.38307226
10:30:38:070;10:30:38:024;0.076614454;10.01734;-0.38307226
10:30:38:078;10:30:38:024;0.076614454;10.01734;-0.38307226
10:30:38:085;10:30:38:024;0.076614454;10.01734;-0.38307226
10:30:38:093;10:30:38:024;0.076614454;10.01734;-0.38307226
10:30:38:101;10:30:38:024;0.076614454;10.01734;-0.38307226
10:30:38:109;10:30:38:024;0.076614454;10.01734;-0.38307226
10:30:38:117;10:30:38:024;0.076614454;10.01734;-0.38307226
10:30:38:125;10:30:38:024;0.076614454;10.01734;-0.38307226
10:30:38:132;10:30:38:024;0.076614454;10.01734;-0.38307226
10:30:38:140;10:30:38:024;0.076614454;10.01734;-0.38307226
10:30:38:148;10:30:38:142;0.019153614;10.01734;-0.22984336
10:30:38:156;10:30:38:142;0.019153614;10.01734;-0.22984336
10:30:38:164;10:30:38:142;0.019153614;10.01734;-0.22984336
10:30:38:171;10:30:38:142;0.019153614;10.01734;-0.22984336
10:30:38:179;10:30:38:142;0.019153614;10.01734;-0.22984336
10:30:38:187;10:30:38:142;0.019153614;10.01734;-0.22984336
10:30:38:195;10:30:38:142;0.019153614;10.01734;-0.22984336
10:30:38:203;10:30:38:142;0.019153614;10.01734;-0.22984336
10:30:38:210;10:30:38:142;0.019153614;10.01734;-0.22984336
10:30:38:218;10:30:38:142;0.019153614;10.01734;-0.22984336
10:30:38:226;10:30:38:142;0.019153614;10.01734;-0.22984336
10:30:38:234;10:30:38:142;0.019153614;10.01734;-0.22984336
10:30:38:242;10:30:38:142;0.019153614;10.01734;-0.22984336
10:30:38:250;10:30:38:142;0.019153614;10.01734;-0.22984336
10:30:38:257;10:30:38:142;0.019153614;10.01734;-0.22984336
10:30:38:265;10:30:38:262;0.15322891;9.959879;-0.24899697
10:30:38:273;10:30:38:262;0.15322891;9.959879;-0.24899697
10:30:38:281;10:30:38:262;0.15322891;9.959879;-0.24899697
10:30:38:289;10:30:38:262;0.15322891;9.959879;-0.24899697
10:30:38:296;10:30:38:262;0.15322891;9.959879;-0.24899697
10:30:38:304;10:30:38:262;0.15322891;9.959879;-0.24899697
10:30:38:312;10:30:38:262;0.15322891;9.959879;-0.24899697
10:30:38:320;10:30:38:262;0.15322891;9.959879;-0.24899697
10:30:38:328;10:30:38:262;0.15322891;9.959879;-0.24899697
10:30:38:335;10:30:38:262;0.15322891;9.959879;-0.24899697
10:30:38:343;10:30:38:262;0.15322891;9.959879;-0.24899697
10:30:38:351;10:30:38:262;0.15322891;9.959879;-0.24899697
10:30:38:359;10:30:38:262;0.15322891;9.959879;-0.24899697
10:30:38:367;10:30:38:367;0.038307227;9.883265;-0.21068975
10:30:38:375;10:30:38:367;0.038307227;9.883265;-0.21068975
10:30:38:382;10:30:38:367;0.038307227;9.883265;-0.21068975
10:30:38:390;10:30:38:367;0.038307227;9.883265;-0.21068975
10:30:38:398;10:30:38:367;0.038307227;9.883265;-0.21068975
10:30:38:406;10:30:38:367;0.038307227;9.883265;-0.21068975
10:30:38:414;10:30:38:367;0.038307227;9.883265;-0.21068975
10:30:38:421;10:30:38:367;0.038307227;9.883265;-0.21068975
10:30:38:429;10:30:38:367;0.038307227;9.883265;-0.21068975
10:30:38:437;10:30:38:367;0.038307227;9.883265;-0.21068975
10:30:38:445;10:30:38:367;0.038307227;9.883265;-0.21068975
10:30:38:453;10:30:38:367;0.038307227;9.883265;-0.21068975
10:30:38:460;10:30:38:367;0.038307227;9.883265;-0.21068975
10:30:38:468;10:30:38:367;0.038307227;9.883265;-0.21068975
10:30:38:476;10:30:38:471;0.2681506;10.01734;0.019153614
10:30:38:484;10:30:38:471;0.2681506;10.01734;0.019153614
10:30:38:492;10:30:38:471;0.2681506;10.01734;0.019153614
10:30:38:500;10:30:38:471;0.2681506;10.01734;0.019153614
10:30:38:507;10:30:38:471;0.2681506;10.01734;0.019153614
10:30:38:515;10:30:38:471;0.2681506;10.01734;0.019153614
10:30:38:523;10:30:38:471;0.2681506;10.01734;0.019153614
10:30:38:531;10:30:38:471;0.2681506;10.01734;0.019153614
10:30:38:539;10:30:38:471;0.2681506;10.01734;0.019153614
10:30:38:546;10:30:38:471;0.2681506;10.01734;0.019153614
10:30:38:554;10:30:38:471;0.2681506;10.01734;0.019153614
10:30:38:562;10:30:38:471;0.2681506;10.01734;0.019153614
10:30:38:570;10:30:38:471;0.2681506;10.01734;0.019153614
10:30:38:578;10:30:38:471;0.2681506;10.01734;0.019153614
10:30:38:585;10:30:38:471;0.2681506;10.01734;0.019153614
10:30:38:593;10:30:38:589;0.38307226;10.113108;-0.038307227
10:30:38:601;10:30:38:589;0.38307226;10.113108;-0.038307227
10:30:38:609;10:30:38:589;0.38307226;10.113108;-0.038307227
10:30:38:617;10:30:38:589;0.38307226;10.113108;-0.038307227
10:30:38:625;10:30:38:589;0.38307226;10.113108;-0.038307227
10:30:38:632;10:30:38:589;0.38307226;10.113108;-0.038307227
10:30:38:640;10:30:38:589;0.38307226;10.113108;-0.038307227
10:30:38:648;10:30:38:589;0.38307226;10.113108;-0.038307227
10:30:38:656;10:30:38:589;0.38307226;10.113108;-0.038307227
10:30:38:664;10:30:38:589;0.38307226;10.113108;-0.038307227
10:30:38:671;10:30:38:589;0.38307226;10.113108;-0.038307227
10:30:38:679;10:30:38:589;0.38307226;10.113108;-0.038307227
10:30:38:687;10:30:38:589;0.38307226;10.113108;-0.038307227
10:30:38:695;10:30:38:589;0.38307226;10.113108;-0.038307227
10:30:38:703;10:30:38:589;0.38307226;10.113108;-0.038307227
10:30:38:710;10:30:38:589;0.38307226;10.113108;-0.038307227
10:30:38:718;10:30:38:715;-0.17238252;9.959879;-0.095768064
10:30:38:726;10:30:38:715;-0.17238252;9.959879;-0.095768064
10:30:38:734;10:30:38:715;-0.17238252;9.959879;-0.095768064
10:30:38:742;10:30:38:715;-0.17238252;9.959879;-0.095768064
10:30:38:750;10:30:38:715;-0.17238252;9.959879;-0.095768064
10:30:38:757;10:30:38:715;-0.17238252;9.959879;-0.095768064
10:30:38:765;10:30:38:715;-0.17238252;9.959879;-0.095768064
10:30:38:773;10:30:38:715;-0.17238252;9.959879;-0.095768064
10:30:38:781;10:30:38:715;-0.17238252;9.959879;-0.095768064
10:30:38:789;10:30:38:715;-0.17238252;9.959879;-0.095768064
10:30:38:796;10:30:38:715;-0.17238252;9.959879;-0.095768064
10:30:38:804;10:30:38:715;-0.17238252;9.959879;-0.095768064
10:30:38:812;10:30:38:715;-0.17238252;9.959879;-0.095768064
10:30:38:820;10:30:38:819;-0.22984336;10.113108;-0.19153613
10:30:38:828;10:30:38:819;-0.22984336;10.113108;-0.19153613
10:30:38:835;10:30:38:819;-0.22984336;10.113108;-0.19153613
10:30:38:843;10:30:38:819;-0.22984336;10.113108;-0.19153613
10:30:38:851;10:30:38:819;-0.22984336;10.113108;-0.19153613
10:30:38:859;10:30:38:819;-0.22984336;10.113108;-0.19153613
10:30:38:867;10:30:38:819;-0.22984336;10.113108;-0.19153613
10:30:38:875;10:30:38:819;-0.22984336;10.113108;-0.19153613
10:30:38:882;10:30:38:819;-0.22984336;10.113108;-0.19153613
10:30:38:890;10:30:38:819;-0.22984336;10.113108;-0.19153613
10:30:38:898;10:30:38:819;-0.22984336;10.113108;-0.19153613
10:30:38:906;10:30:38:819;-0.22984336;10.113108;-0.19153613
10:30:38:914;10:30:38:819;-0.22984336;10.113108;-0.19153613
10:30:38:921;10:30:38:819;-0.22984336;10.113108;-0.19153613
10:30:38:929;10:30:38:819;-0.22984336;10.113108;-0.19153613
10:30:38:937;10:30:38:937;-0.17238252;9.940725;0.019153614
10:30:38:945;10:30:38:937;-0.17238252;9.940725;0.019153614
10:30:38:953;10:30:38:937;-0.17238252;9.940725;0.019153614
10:30:38:960;10:30:38:937;-0.17238252;9.940725;0.019153614
10:30:38:968;10:30:38:937;-0.17238252;9.940725;0.019153614
10:30:38:976;10:30:38:937;-0.17238252;9.940725;0.019153614
10:30:38:984;10:30:38:937;-0.17238252;9.940725;0.019153614
10:30:38:992;10:30:38:937;-0.17238252;9.940725;0.019153614
10:30:39:000;10:30:38:937;-0.17238252;9.940725;0.019153614
10:30:39:007;10:30:38:937;-0.17238252;9.940725;0.019153614
10:30:39:015;10:30:38:937;-0.17238252;9.940725;0.019153614
10:30:39:023;10:30:38:937;-0.17238252;9.940725;0.019153614
10:30:39:031;10:30:38:937;-0.17238252;9.940725;0.019153614
10:30:39:039;10:30:38:937;-0.17238252;9.940725;0.019153614
10:30:39:046;10:30:38:937;-0.17238252;9.940725;0.019153614
10:30:39:054;10:30:38:937;-0.17238252;9.940725;0.019153614
10:30:39:062;10:30:38:937;-0.17238252;9.940725;0.019153614
10:30:39:070;10:30:38:937;-0.17238252;9.940725;0.019153614
10:30:39:078;10:30:38:937;-0.17238252;9.940725;0.019153614
10:30:39:085;10:30:39:084;-0.05746084;9.902418;-0.095768064
