Time_Biotrace;Time_Accel;AccelX;AccelY;AccelZ
10:12:32:742;11:12:32:642;0.32561144;9.883265;-0.93852705
10:12:32:750;11:12:32:745;-0.22984336;10.247183;-0.78529817
10:12:32:757;11:12:32:745;-0.22984336;10.247183;-0.78529817
10:12:32:765;11:12:32:745;-0.22984336;10.247183;-0.78529817
10:12:32:773;11:12:32:745;-0.22984336;10.247183;-0.78529817
10:12:32:781;11:12:32:745;-0.22984336;10.247183;-0.78529817
10:12:32:789;11:12:32:745;-0.22984336;10.247183;-0.78529817
10:12:32:796;11:12:32:745;-0.22984336;10.247183;-0.78529817
10:12:32:804;11:12:32:745;-0.22984336;10.247183;-0.78529817
10:12:32:812;11:12:32:745;-0.22984336;10.247183;-0.78529817
10:12:32:820;11:12:32:745;-0.22984336;10.247183;-0.78529817
10:12:32:828;11:12:32:745;-0.22984336;10.247183;-0.78529817
10:12:32:835;11:12:32:745;-0.22984336;10.247183;-0.78529817
10:12:32:843;11:12:32:745;-0.22984336;10.247183;-0.78529817
10:12:32:851;11:12:32:745;-0.22984336;10.247183;-0.78529817
10:12:32:859;11:12:32:745;-0.22984336;10.247183;-0.78529817
10:12:32:867;11:12:32:862;0.095768064;10.0748005;-0.47884035
10:12:32:875;11:12:32:862;0.095768064;10.0748005;-0.47884035
10:12:32:882;11:12:32:862;0.095768064;10.0748005;-0.47884035
10:12:32:890;11:12:32:862;0.095768064;10.0748005;-0.47884035
10:12:32:898;11:12:32:862;0.095768064;10.0748005;-0.47884035
10:12:32:906;11:12:32:862;0.095768064;10.0748005;-0.47884035
10:12:32:914;11:12:32:862;0.095768064;10.0748005;-0.47884035
10:12:32:921;11:12:32:862;0.095768064;10.0748005;-0.47884035
10:12:32:929;11:12:32:862;0.095768064;10.0748005;-0.47884035
10:12:32:937;11:12:32:862;0.095768064;10.0748005;-0.47884035
10:12:32:945;11:12:32:862;0.095768064;10.0748005;-0.47884035
10:12:32:953;11:12:32:862;0.095768064;10.0748005;-0.47884035
10:12:32:960;11:12:32:862;0.095768064;10.0748005;-0.47884035
10:12:32:968;11:12:32:862;0.095768064;10.0748005;-0.47884035
10:12:32:976;11:12:32:862;0.095768064;10.0748005;-0.47884035
10:12:32:984;11:12:32:980;-0.095768064;9.768343;-0.9768343
10:12:32:992;11:12:32:980;-0.095768064;9.768343;-0.9768343
10:12:33:000;11:12:32:980;-0.095768064;9.768343;-0.9768343
10:12:33:007;11:12:32:980;-0.095768064;9.768343;-0.9768343
10:12:33:015;11:12:32:980;-0.095768064;9.768343;-0.9768343
10:12:33:023;11:12:32:980;-0.095768064;9.768343;-0.9768343
10:12:33:031;11:12:32:980;-0.095768064;9.768343;-0.9768343
10:12:33:039;11:12:32:980;-0.095768064;9.768343;-0.9768343
10:12:33:046;11:12:32:980;-0.095768064;9.768343;-0.9768343
10:12:33:054;11:12:32:980;-0.095768064;9.768343;-0.9768343
10:12:33:062;11:12:32:980;-0.095768064;9.768343;-0.9768343
10:12:33:070;11:12:32:980;-0.095768064;9.768343;-0.9768343
10:12:33:078;11:12:32:980;-0.095768064;9.768343;-0.9768343
10:12:33:085;11:12:32:980;-0.095768064;9.768343;-0.9768343
10:12:33:093;11:12:32:980;-0.095768064;9.768343;-0.9768343
10:12:33:101;11:12:33:098;0.019153614;9.710882;-0.78529817
10:12:33:109;11:12:33:098;0.019153614;9.710882;-0.78529817
10:12:33:117;11:12:33:098;0.019153614;9.710882;-0.78529817
10:12:33:125;11:12:33:098;0.019153614;9.710882;-0.78529817
10:12:33:132;11:12:33:098;0.019153614;9.710882;-0.78529817
10:12:33:140;11:12:33:098;0.019153614;9.710882;-0.78529817
10:12:33:148;11:12:33:098;0.019153614;9.710882;-0.78529817
10:12:33:156;11:12:33:098;0.019153614;9.710882;-0.78529817
10:12:33:164;11:12:33:098;0.019153614;9.710882;-0.78529817
10:12:33:171;11:12:33:098;0.019153614;9.710882;-0.78529817
10:12:33:179;11:12:33:098;0.019153614;9.710882;-0.78529817
10:12:33:187;11:12:33:098;0.019153614;9.710882;-0.78529817
10:12:33:195;11:12:33:098;0.019153614;9.710882;-0.78529817
10:12:33:203;11:12:33:098;0.019153614;9.710882;-0.78529817
10:12:33:210;11:12:33:098;0.019153614;9.710882;-0.78529817
10:12:33:218;11:12:33:217;0.038307227;10.266336;-1.3790601
10:12:33:226;11:12:33:217;0.038307227;10.266336;-1.3790601
10:12:33:234;11:12:33:217;0.038307227;10.266336;-1.3790601
10:12:33:242;11:12:33:217;0.038307227;10.266336;-1.3790601
10:12:33:250;11:12:33:217;0.038307227;10.266336;-1.3790601
10:12:33:257;11:12:33:217;0.038307227;10.266336;-1.3790601
10:12:33:265;11:12:33:217;0.038307227;10.266336;-1.3790601
10:12:33:273;11:12:33:217;0.038307227;10.266336;-1.3790601
10:12:33:281;11:12:33:217;0.038307227;10.266336;-1.3790601
10:12:33:289;11:12:33:217;0.038307227;10.266336;-1.3790601
10:12:33:296;11:12:33:217;0.038307227;10.266336;-1.3790601
10:12:33:304;11:12:33:217;0.038307227;10.266336;-1.3790601
10:12:33:312;11:12:33:217;0.038307227;10.266336;-1.3790601
10:12:33:320;11:12:33:319;-0.19153613;9.787497;-0.22984336
10:12:33:328;11:12:33:319;-0.19153613;9.787497;-0.22984336
10:12:33:335;11:12:33:319;-0.19153613;9.787497;-0.22984336
10:12:33:343;11:12:33:319;-0.19153613;9.787497;-0.22984336
10:12:33:351;11:12:33:319;-0.19153613;9.787497;-0.22984336
10:12:33:359;11:12:33:319;-0.19153613;9.787497;-0.22984336
10:12:33:367;11:12:33:319;-0.19153613;9.787497;-0.22984336
10:12:33:375;11:12:33:319;-0.19153613;9.787497;-0.22984336
10:12:33:382;11:12:33:319;-0.19153613;9.787497;-0.22984336
10:12:33:390;11:12:33:319;-0.19153613;9.787497;-0.22984336
10:12:33:398;11:12:33:319;-0.19153613;9.787497;-0.22984336
10:12:33:406;11:12:33:319;-0.19153613;9.787497;-0.22984336
10:12:33:414;11:12:33:319;-0.19153613;9.787497;-0.22984336
10:12:33:421;11:12:33:319;-0.19153613;9.787497;-0.22984336
10:12:33:429;11:12:33:319;-0.19153613;9.787497;-0.22984336
10:12:33:437;11:12:33:435;0.095768064;9.80665;-0.7661445
10:12:33:445;11:12:33:435;0.095768064;9.80665;-0.7661445
10:12:33:453;11:12:33:435;0.095768064;9.80665;-0.7661445
10:12:33:460;11:12:33:435;0.095768064;9.80665;-0.7661445
10:12:33:468;11:12:33:435;0.095768064;9.80665;-0.7661445
10:12:33:476;11:12:33:435;0.095768064;9.80665;-0.7661445
10:12:33:484;11:12:33:435;0.095768064;9.80665;-0.7661445
10:12:33:492;11:12:33:435;0.095768064;9.80665;-0.7661445
10:12:33:500;11:12:33:435;0.095768064;9.80665;-0.7661445
10:12:33:507;11:12:33:435;0.095768064;9.80665;-0.7661445
10:12:33:515;11:12:33:435;0.095768064;9.80665;-0.7661445
10:12:33:523;11:12:33:435;0.095768064;9.80665;-0.7661445
10:12:33:531;11:12:33:435;0.095768064;9.80665;-0.7661445
10:12:33:539;11:12:33:538;-0.2873042;10.247183;-1.1300632
10:12:33:546;11:12:33:538;-0.2873042;10.247183;-1.1300632
10:12:33:554;11:12:33:538;-0.2873042;10.247183;-1.1300632
10:12:33:562;11:12:33:538;-0.2873042;10.247183;-1.1300632
10:12:33:570;11:12:33:538;-0.2873042;10.247183;-1.1300632
10:12:33:578;11:12:33:538;-0.2873042;10.247183;-1.1300632
10:12:33:585;11:12:33:538;-0.2873042;10.247183;-1.1300632
10:12:33:593;11:12:33:538;-0.2873042;10.247183;-1.1300632
10:12:33:601;11:12:33:538;-0.2873042;10.247183;-1.1300632
10:12:33:609;11:12:33:538;-0.2873042;10.247183;-1.1300632
10:12:33:617;11:12:33:538;-0.2873042;10.247183;-1.1300632
10:12:33:625;11:12:33:538;-0.2873042;10.247183;-1.1300632
10:12:33:632;11:12:33:538;-0.2873042;10.247183;-1.1300632
10:12:33:640;11:12:33:640;0.22984336;10.649409;-0.842759
10:12:33:648;11:12:33:640;0.22984336;10.649409;-0.842759
10:12:33:656;11:12:33:640;0.22984336;10.649409;-0.842759
10:12:33:664;11:12:33:640;0.22984336;10.649409;-0.842759
10:12:33:671;11:12:33:640;0.22984336;10.649409;-0.842759
10:12:33:679;11:12:33:640;0.22984336;10.649409;-0.842759
10:12:33:687;11:12:33:640;0.22984336;10.649409;-0.842759
10:12:33:695;11:12:33:640;0.22984336;10.649409;-0.842759
10:12:33:703;11:12:33:640;0.22984336;10.649409;-0.842759
10:12:33:710;11:12:33:640;0.22984336;10.649409;-0.842759
10:12:33:718;11:12:33:640;0.22984336;10.649409;-0.842759
10:12:33:726;11:12:33:640;0.22984336;10.649409;-0.842759
10:12:33:734;11:12:33:640;0.22984336;10.649409;-0.842759
10:12:33:742;11:12:33:640;0.22984336;10.649409;-0.842759
10:12:33:750;11:12:33:743;-0.05746084;10.477027;-1.8004397
10:12:33:757;11:12:33:743;-0.05746084;10.477027;-1.8004397
10:12:33:765;11:12:33:743;-0.05746084;10.477027;-1.8004397
10:12:33:773;11:12:33:743;-0.05746084;10.477027;-1.8004397
10:12:33:781;11:12:33:743;-0.05746084;10.477027;-1.8004397
10:12:33:789;11:12:33:743;-0.05746084;10.477027;-1.8004397
10:12:33:796;11:12:33:743;-0.05746084;10.477027;-1.8004397
10:12:33:804;11:12:33:743;-0.05746084;10.477027;-1.8004397
10:12:33:812;11:12:33:743;-0.05746084;10.477027;-1.8004397
10:12:33:820;11:12:33:743;-0.05746084;10.477027;-1.8004397
10:12:33:828;11:12:33:743;-0.05746084;10.477027;-1.8004397
10:12:33:835;11:12:33:743;-0.05746084;10.477027;-1.8004397
10:12:33:843;11:12:33:743;-0.05746084;10.477027;-1.8004397
10:12:33:851;11:12:33:743;-0.05746084;10.477027;-1.8004397
10:12:33:859;11:12:33:743;-0.05746084;10.477027;-1.8004397
10:12:33:867;11:12:33:861;-0.05746084;9.787497;-1.1683705
10:12:33:875;11:12:33:861;-0.05746084;9.787497;-1.1683705
10:12:33:882;11:12:33:861;-0.05746084;9.787497;-1.1683705
10:12:33:890;11:12:33:861;-0.05746084;9.787497;-1.1683705
10:12:33:898;11:12:33:861;-0.05746084;9.787497;-1.1683705
10:12:33:906;11:12:33:861;-0.05746084;9.787497;-1.1683705
10:12:33:914;11:12:33:861;-0.05746084;9.787497;-1.1683705
10:12:33:921;11:12:33:861;-0.05746084;9.787497;-1.1683705
10:12:33:929;11:12:33:861;-0.05746084;9.787497;-1.1683705
10:12:33:937;11:12:33:861;-0.05746084;9.787497;-1.1683705
10:12:33:945;11:12:33:861;-0.05746084;9.787497;-1.1683705
10:12:33:953;11:12:33:861;-0.05746084;9.787497;-1.1683705
10:12:33:960;11:12:33:861;-0.05746084;9.787497;-1.1683705
10:12:33:968;11:12:33:861;-0.05746084;9.787497;-1.1683705
10:12:33:976;11:12:33:861;-0.05746084;9.787497;-1.1683705
10:12:33:984;11:12:33:861;-0.05746084;9.787497;-1.1683705
10:12:33:992;11:12:33:861;-0.05746084;9.787497;-1.1683705
10:12:34:000;11:12:33:861;-0.05746084;9.787497;-1.1683705
10:12:34:007;11:12:34:001;-0.095768064;9.844957;-1.3982137
10:12:34:015;11:12:34:001;-0.095768064;9.844957;-1.3982137
10:12:34:023;11:12:34:001;-0.095768064;9.844957;-1.3982137
10:12:34:031;11:12:34:001;-0.095768064;9.844957;-1.3982137
10:12:34:039;11:12:34:001;-0.095768064;9.844957;-1.3982137
10:12:34:046;11:12:34:001;-0.095768064;9.844957;-1.3982137
10:12:34:054;11:12:34:001;-0.095768064;9.844957;-1.3982137
10:12:34:062;11:12:34:001;-0.095768064;9.844957;-1.3982137
10:12:34:070;11:12:34:001;-0.095768064;9.844957;-1.3982137
10:12:34:078;11:12:34:001;-0.095768064;9.844957;-1.3982137
10:12:34:085;11:12:34:001;-0.095768064;9.844957;-1.3982137
10:12:34:093;11:12:34:001;-0.095768064;9.844957;-1.3982137
10:12:34:101;11:12:34:001;-0.095768064;9.844957;-1.3982137
10:12:34:109;11:12:34:001;-0.095768064;9.844957;-1.3982137
10:12:34:117;11:12:34:117;-0.019153614;9.921572;-1.1492168
10:12:34:125;11:12:34:117;-0.019153614;9.921572;-1.1492168
10:12:34:132;11:12:34:117;-0.019153614;9.921572;-1.1492168
10:12:34:140;11:12:34:117;-0.019153614;9.921572;-1.1492168
10:12:34:148;11:12:34:117;-0.019153614;9.921572;-1.1492168
10:12:34:156;11:12:34:117;-0.019153614;9.921572;-1.1492168
10:12:34:164;11:12:34:117;-0.019153614;9.921572;-1.1492168
10:12:34:171;11:12:34:117;-0.019153614;9.921572;-1.1492168
10:12:34:179;11:12:34:117;-0.019153614;9.921572;-1.1492168
10:12:34:187;11:12:34:117;-0.019153614;9.921572;-1.1492168
10:12:34:195;11:12:34:117;-0.019153614;9.921572;-1.1492168
10:12:34:203;11:12:34:117;-0.019153614;9.921572;-1.1492168
10:12:34:210;11:12:34:117;-0.019153614;9.921572;-1.1492168
10:12:34:218;11:12:34:117;-0.019153614;9.921572;-1.1492168
10:12:34:226;11:12:34:220;0.15322891;10.151415;-1.4939818
10:12:34:234;11:12:34:220;0.15322891;10.151415;-1.4939818
10:12:34:242;11:12:34:220;0.15322891;10.151415;-1.4939818
10:12:34:250;11:12:34:220;0.15322891;10.151415;-1.4939818
10:12:34:257;11:12:34:220;0.15322891;10.151415;-1.4939818
10:12:34:265;11:12:34:220;0.15322891;10.151415;-1.4939818
10:12:34:273;11:12:34:220;0.15322891;10.151415;-1.4939818
10:12:34:281;11:12:34:220;0.15322891;10.151415;-1.4939818
10:12:34:289;11:12:34:220;0.15322891;10.151415;-1.4939818
10:12:34:296;11:12:34:220;0.15322891;10.151415;-1.4939818
10:12:34:304;11:12:34:220;0.15322891;10.151415;-1.4939818
10:12:34:312;11:12:34:220;0.15322891;10.151415;-1.4939818
10:12:34:320;11:12:34:220;0.15322891;10.151415;-1.4939818
10:12:34:328;11:12:34:220;0.15322891;10.151415;-1.4939818
10:12:34:335;11:12:34:220;0.15322891;10.151415;-1.4939818
10:12:34:343;11:12:34:340;-0.038307227;9.921572;-0.7278373
10:12:34:351;11:12:34:340;-0.038307227;9.921572;-0.7278373
10:12:34:359;11:12:34:340;-0.038307227;9.921572;-0.7278373
10:12:34:367;11:12:34:340;-0.038307227;9.921572;-0.7278373
10:12:34:375;11:12:34:340;-0.038307227;9.921572;-0.7278373
10:12:34:382;11:12:34:340;-0.038307227;9.921572;-0.7278373
10:12:34:390;11:12:34:340;-0.038307227;9.921572;-0.7278373
10:12:34:398;11:12:34:340;-0.038307227;9.921572;-0.7278373
10:12:34:406;11:12:34:340;-0.038307227;9.921572;-0.7278373
10:12:34:414;11:12:34:340;-0.038307227;9.921572;-0.7278373
10:12:34:421;11:12:34:340;-0.038307227;9.921572;-0.7278373
10:12:34:429;11:12:34:340;-0.038307227;9.921572;-0.7278373
10:12:34:437;11:12:34:340;-0.038307227;9.921572;-0.7278373
10:12:34:445;11:12:34:442;0.019153614;10.381259;-1.5514427
10:12:34:453;11:12:34:442;0.019153614;10.381259;-1.5514427
10:12:34:460;11:12:34:442;0.019153614;10.381259;-1.5514427
10:12:34:468;11:12:34:442;0.019153614;10.381259;-1.5514427
10:12:34:476;11:12:34:442;0.019153614;10.381259;-1.5514427
10:12:34:484;11:12:34:442;0.019153614;10.381259;-1.5514427
10:12:34:492;11:12:34:442;0.019153614;10.381259;-1.5514427
10:12:34:500;11:12:34:442;0.019153614;10.381259;-1.5514427
10:12:34:507;11:12:34:442;0.019153614;10.381259;-1.5514427
10:12:34:515;11:12:34:442;0.019153614;10.381259;-1.5514427
10:12:34:523;11:12:34:442;0.019153614;10.381259;-1.5514427
10:12:34:531;11:12:34:442;0.019153614;10.381259;-1.5514427
10:12:34:539;11:12:34:442;0.019153614;10.381259;-1.5514427
10:12:34:546;11:12:34:442;0.019153614;10.381259;-1.5514427
10:12:34:554;11:12:34:442;0.019153614;10.381259;-1.5514427
10:12:34:562;11:12:34:558;0.30645782;9.80665;-0.40222588
10:12:34:570;11:12:34:558;0.30645782;9.80665;-0.40222588
10:12:34:578;11:12:34:558;0.30645782;9.80665;-0.40222588
10:12:34:585;11:12:34:558;0.30645782;9.80665;-0.40222588
10:12:34:593;11:12:34:558;0.30645782;9.80665;-0.40222588
10:12:34:601;11:12:34:558;0.30645782;9.80665;-0.40222588
10:12:34:609;11:12:34:558;0.30645782;9.80665;-0.40222588
10:12:34:617;11:12:34:558;0.30645782;9.80665;-0.40222588
10:12:34:625;11:12:34:558;0.30645782;9.80665;-0.40222588
10:12:34:632;11:12:34:558;0.30645782;9.80665;-0.40222588
10:12:34:640;11:12:34:558;0.30645782;9.80665;-0.40222588
10:12:34:648;11:12:34:558;0.30645782;9.80665;-0.40222588
10:12:34:656;11:12:34:558;0.30645782;9.80665;-0.40222588
10:12:34:664;11:12:34:663;-0.19153613;9.672575;-0.5363012
10:12:34:671;11:12:34:663;-0.19153613;9.672575;-0.5363012
10:12:34:679;11:12:34:663;-0.19153613;9.672575;-0.5363012
10:12:34:687;11:12:34:663;-0.19153613;9.672575;-0.5363012
10:12:34:695;11:12:34:663;-0.19153613;9.672575;-0.5363012
10:12:34:703;11:12:34:663;-0.19153613;9.672575;-0.5363012
10:12:34:710;11:12:34:663;-0.19153613;9.672575;-0.5363012
10:12:34:718;11:12:34:663;-0.19153613;9.672575;-0.5363012
10:12:34:726;11:12:34:663;-0.19153613;9.672575;-0.5363012
10:12:34:734;11:12:34:663;-0.19153613;9.672575;-0.5363012
10:12:34:742;11:12:34:663;-0.19153613;9.672575;-0.5363012
10:12:34:750;11:12:34:663;-0.19153613;9.672575;-0.5363012
10:12:34:757;11:12:34:663;-0.19153613;9.672575;-0.5363012
10:12:34:765;11:12:34:765;-0.1340753;10.228029;-0.8810662
10:12:34:773;11:12:34:765;-0.1340753;10.228029;-0.8810662
10:12:34:781;11:12:34:765;-0.1340753;10.228029;-0.8810662
10:12:34:789;11:12:34:765;-0.1340753;10.228029;-0.8810662
10:12:34:796;11:12:34:765;-0.1340753;10.228029;-0.8810662
10:12:34:804;11:12:34:765;-0.1340753;10.228029;-0.8810662
10:12:34:812;11:12:34:765;-0.1340753;10.228029;-0.8810662
10:12:34:820;11:12:34:765;-0.1340753;10.228029;-0.8810662
10:12:34:828;11:12:34:765;-0.1340753;10.228029;-0.8810662
10:12:34:835;11:12:34:765;-0.1340753;10.228029;-0.8810662
10:12:34:843;11:12:34:765;-0.1340753;10.228029;-0.8810662
10:12:34:851;11:12:34:765;-0.1340753;10.228029;-0.8810662
10:12:34:859;11:12:34:765;-0.1340753;10.228029;-0.8810662
10:12:34:867;11:12:34:765;-0.1340753;10.228029;-0.8810662
10:12:34:875;11:12:34:765;-0.1340753;10.228029;-0.8810662
10:12:34:882;11:12:34:880;1.3790601;9.251195;-1.1300632
10:12:34:890;11:12:34:880;1.3790601;9.251195;-1.1300632
10:12:34:898;11:12:34:880;1.3790601;9.251195;-1.1300632
10:12:34:906;11:12:34:880;1.3790601;9.251195;-1.1300632
10:12:34:914;11:12:34:880;1.3790601;9.251195;-1.1300632
10:12:34:921;11:12:34:880;1.3790601;9.251195;-1.1300632
10:12:34:929;11:12:34:880;1.3790601;9.251195;-1.1300632
10:12:34:937;11:12:34:880;1.3790601;9.251195;-1.1300632
10:12:34:945;11:12:34:880;1.3790601;9.251195;-1.1300632
10:12:34:953;11:12:34:880;1.3790601;9.251195;-1.1300632
10:12:34:960;11:12:34:880;1.3790601;9.251195;-1.1300632
10:12:34:968;11:12:34:880;1.3790601;9.251195;-1.1300632
10:12:34:976;11:12:34:880;1.3790601;9.251195;-1.1300632
10:12:34:984;11:12:34:880;1.3790601;9.251195;-1.1300632
10:12:34:992;11:12:34:986;0.8619126;9.423578;-1.1875241
10:12:35:000;11:12:34:986;0.8619126;9.423578;-1.1875241
10:12:35:007;11:12:34:986;0.8619126;9.423578;-1.1875241
10:12:35:015;11:12:34:986;0.8619126;9.423578;-1.1875241
10:12:35:023;11:12:34:986;0.8619126;9.423578;-1.1875241
10:12:35:031;11:12:34:986;0.8619126;9.423578;-1.1875241
10:12:35:039;11:12:34:986;0.8619126;9.423578;-1.1875241
10:12:35:046;11:12:34:986;0.8619126;9.423578;-1.1875241
10:12:35:054;11:12:34:986;0.8619126;9.423578;-1.1875241
10:12:35:062;11:12:34:986;0.8619126;9.423578;-1.1875241
10:12:35:070;11:12:34:986;0.8619126;9.423578;-1.1875241
10:12:35:078;11:12:34:986;0.8619126;9.423578;-1.1875241
10:12:35:085;11:12:34:986;0.8619126;9.423578;-1.1875241
10:12:35:093;11:12:35:088;0.4213795;9.710882;-0.5363012
10:12:35:101;11:12:35:088;0.4213795;9.710882;-0.5363012
10:12:35:109;11:12:35:088;0.4213795;9.710882;-0.5363012
10:12:35:117;11:12:35:088;0.4213795;9.710882;-0.5363012
10:12:35:125;11:12:35:088;0.4213795;9.710882;-0.5363012
10:12:35:132;11:12:35:088;0.4213795;9.710882;-0.5363012
10:12:35:140;11:12:35:088;0.4213795;9.710882;-0.5363012
10:12:35:148;11:12:35:088;0.4213795;9.710882;-0.5363012
10:12:35:156;11:12:35:088;0.4213795;9.710882;-0.5363012
10:12:35:164;11:12:35:088;0.4213795;9.710882;-0.5363012
10:12:35:171;11:12:35:088;0.4213795;9.710882;-0.5363012
10:12:35:179;11:12:35:088;0.4213795;9.710882;-0.5363012
10:12:35:187;11:12:35:088;0.4213795;9.710882;-0.5363012
10:12:35:195;11:12:35:088;0.4213795;9.710882;-0.5363012
10:12:35:203;11:12:35:088;0.4213795;9.710882;-0.5363012
10:12:35:210;11:12:35:204;-0.38307226;10.113108;-1.0726024
10:12:35:218;11:12:35:204;-0.38307226;10.113108;-1.0726024
10:12:35:226;11:12:35:204;-0.38307226;10.113108;-1.0726024
10:12:35:234;11:12:35:204;-0.38307226;10.113108;-1.0726024
10:12:35:242;11:12:35:204;-0.38307226;10.113108;-1.0726024
10:12:35:250;11:12:35:204;-0.38307226;10.113108;-1.0726024
10:12:35:257;11:12:35:204;-0.38307226;10.113108;-1.0726024
10:12:35:265;11:12:35:204;-0.38307226;10.113108;-1.0726024
10:12:35:273;11:12:35:204;-0.38307226;10.113108;-1.0726024
10:12:35:281;11:12:35:204;-0.38307226;10.113108;-1.0726024
10:12:35:289;11:12:35:204;-0.38307226;10.113108;-1.0726024
10:12:35:296;11:12:35:204;-0.38307226;10.113108;-1.0726024
10:12:35:304;11:12:35:204;-0.38307226;10.113108;-1.0726024
10:12:35:312;11:12:35:307;0.842759;9.80665;-1.5705963
10:12:35:320;11:12:35:307;0.842759;9.80665;-1.5705963
10:12:35:328;11:12:35:307;0.842759;9.80665;-1.5705963
10:12:35:335;11:12:35:307;0.842759;9.80665;-1.5705963
10:12:35:343;11:12:35:307;0.842759;9.80665;-1.5705963
10:12:35:351;11:12:35:307;0.842759;9.80665;-1.5705963
10:12:35:359;11:12:35:307;0.842759;9.80665;-1.5705963
10:12:35:367;11:12:35:307;0.842759;9.80665;-1.5705963
10:12:35:375;11:12:35:307;0.842759;9.80665;-1.5705963
10:12:35:382;11:12:35:307;0.842759;9.80665;-1.5705963
10:12:35:390;11:12:35:307;0.842759;9.80665;-1.5705963
10:12:35:398;11:12:35:307;0.842759;9.80665;-1.5705963
10:12:35:406;11:12:35:307;0.842759;9.80665;-1.5705963
10:12:35:414;11:12:35:307;0.842759;9.80665;-1.5705963
10:12:35:421;11:12:35:307;0.842759;9.80665;-1.5705963
10:12:35:429;11:12:35:424;-0.076614454;9.710882;-0.6703765
10:12:35:437;11:12:35:424;-0.076614454;9.710882;-0.6703765
10:12:35:445;11:12:35:424;-0.076614454;9.710882;-0.6703765
10:12:35:453;11:12:35:424;-0.076614454;9.710882;-0.6703765
10:12:35:460;11:12:35:424;-0.076614454;9.710882;-0.6703765
10:12:35:468;11:12:35:424;-0.076614454;9.710882;-0.6703765
10:12:35:476;11:12:35:424;-0.076614454;9.710882;-0.6703765
10:12:35:484;11:12:35:424;-0.076614454;9.710882;-0.6703765
10:12:35:492;11:12:35:424;-0.076614454;9.710882;-0.6703765
10:12:35:500;11:12:35:424;-0.076614454;9.710882;-0.6703765
10:12:35:507;11:12:35:424;-0.076614454;9.710882;-0.6703765
10:12:35:515;11:12:35:424;-0.076614454;9.710882;-0.6703765
10:12:35:523;11:12:35:424;-0.076614454;9.710882;-0.6703765
10:12:35:531;11:12:35:424;-0.076614454;9.710882;-0.6703765
10:12:35:539;11:12:35:424;-0.076614454;9.710882;-0.6703765
10:12:35:546;11:12:35:424;-0.076614454;9.710882;-0.6703765
10:12:35:554;11:12:35:424;-0.076614454;9.710882;-0.6703765
10:12:35:562;11:12:35:424;-0.076614454;9.710882;-0.6703765
10:12:35:570;11:12:35:424;-0.076614454;9.710882;-0.6703765
10:12:35:578;11:12:35:571;0.17238252;10.381259;-0.8810662
10:12:35:585;11:12:35:571;0.17238252;10.381259;-0.8810662
10:12:35:593;11:12:35:571;0.17238252;10.381259;-0.8810662
10:12:35:601;11:12:35:571;0.17238252;10.381259;-0.8810662
10:12:35:609;11:12:35:571;0.17238252;10.381259;-0.8810662
10:12:35:617;11:12:35:571;0.17238252;10.381259;-0.8810662
10:12:35:625;11:12:35:571;0.17238252;10.381259;-0.8810662
10:12:35:632;11:12:35:571;0.17238252;10.381259;-0.8810662
10:12:35:640;11:12:35:571;0.17238252;10.381259;-0.8810662
10:12:35:648;11:12:35:571;0.17238252;10.381259;-0.8810662
10:12:35:656;11:12:35:571;0.17238252;10.381259;-0.8810662
10:12:35:664;11:12:35:571;0.17238252;10.381259;-0.8810662
10:12:35:671;11:12:35:571;0.17238252;10.381259;-0.8810662
10:12:35:679;11:12:35:571;0.17238252;10.381259;-0.8810662
10:12:35:687;11:12:35:571;0.17238252;10.381259;-0.8810662
10:12:35:695;11:12:35:694;0.7086837;10.151415;-1.3215994
10:12:35:703;11:12:35:694;0.7086837;10.151415;-1.3215994
10:12:35:710;11:12:35:694;0.7086837;10.151415;-1.3215994
10:12:35:718;11:12:35:694;0.7086837;10.151415;-1.3215994
10:12:35:726;11:12:35:694;0.7086837;10.151415;-1.3215994
10:12:35:734;11:12:35:694;0.7086837;10.151415;-1.3215994
10:12:35:742;11:12:35:694;0.7086837;10.151415;-1.3215994
10:12:35:750;11:12:35:694;0.7086837;10.151415;-1.3215994
10:12:35:757;11:12:35:694;0.7086837;10.151415;-1.3215994
10:12:35:765;11:12:35:694;0.7086837;10.151415;-1.3215994
10:12:35:773;11:12:35:694;0.7086837;10.151415;-1.3215994
10:12:35:781;11:12:35:694;0.7086837;10.151415;-1.3215994
10:12:35:789;11:12:35:694;0.7086837;10.151415;-1.3215994
10:12:35:796;11:12:35:694;0.7086837;10.151415;-1.3215994
10:12:35:804;11:12:35:694;0.7086837;10.151415;-1.3215994
10:12:35:812;11:12:35:808;0.36391866;10.228029;-1.2258313
10:12:35:820;11:12:35:808;0.36391866;10.228029;-1.2258313
10:12:35:828;11:12:35:808;0.36391866;10.228029;-1.2258313
10:12:35:835;11:12:35:808;0.36391866;10.228029;-1.2258313
10:12:35:843;11:12:35:808;0.36391866;10.228029;-1.2258313
10:12:35:851;11:12:35:808;0.36391866;10.228029;-1.2258313
10:12:35:859;11:12:35:808;0.36391866;10.228029;-1.2258313
10:12:35:867;11:12:35:808;0.36391866;10.228029;-1.2258313
10:12:35:875;11:12:35:808;0.36391866;10.228029;-1.2258313
10:12:35:882;11:12:35:808;0.36391866;10.228029;-1.2258313
10:12:35:890;11:12:35:808;0.36391866;10.228029;-1.2258313
10:12:35:898;11:12:35:808;0.36391866;10.228029;-1.2258313
10:12:35:906;11:12:35:808;0.36391866;10.228029;-1.2258313
10:12:35:914;11:12:35:808;0.36391866;10.228029;-1.2258313
10:12:35:921;11:12:35:808;0.36391866;10.228029;-1.2258313
10:12:35:929;11:12:35:925;0.7086837;9.730036;-0.842759
10:12:35:937;11:12:35:925;0.7086837;9.730036;-0.842759
10:12:35:945;11:12:35:925;0.7086837;9.730036;-0.842759
10:12:35:953;11:12:35:925;0.7086837;9.730036;-0.842759
10:12:35:960;11:12:35:925;0.7086837;9.730036;-0.842759
10:12:35:968;11:12:35:925;0.7086837;9.730036;-0.842759
10:12:35:976;11:12:35:925;0.7086837;9.730036;-0.842759
10:12:35:984;11:12:35:925;0.7086837;9.730036;-0.842759
10:12:35:992;11:12:35:925;0.7086837;9.730036;-0.842759
10:12:36:000;11:12:35:925;0.7086837;9.730036;-0.842759
10:12:36:007;11:12:35:925;0.7086837;9.730036;-0.842759
10:12:36:015;11:12:35:925;0.7086837;9.730036;-0.842759
10:12:36:023;11:12:35:925;0.7086837;9.730036;-0.842759
10:12:36:031;11:12:35:925;0.7086837;9.730036;-0.842759
10:12:36:039;11:12:35:925;0.7086837;9.730036;-0.842759
10:12:36:046;11:12:35:925;0.7086837;9.730036;-0.842759
10:12:36:054;11:12:36:048;0.15322891;9.864111;-0.93852705
10:12:36:062;11:12:36:048;0.15322891;9.864111;-0.93852705
10:12:36:070;11:12:36:048;0.15322891;9.864111;-0.93852705
10:12:36:078;11:12:36:048;0.15322891;9.864111;-0.93852705
10:12:36:085;11:12:36:048;0.15322891;9.864111;-0.93852705
10:12:36:093;11:12:36:048;0.15322891;9.864111;-0.93852705
10:12:36:101;11:12:36:048;0.15322891;9.864111;-0.93852705
10:12:36:109;11:12:36:048;0.15322891;9.864111;-0.93852705
10:12:36:117;11:12:36:048;0.15322891;9.864111;-0.93852705
10:12:36:125;11:12:36:048;0.15322891;9.864111;-0.93852705
10:12:36:132;11:12:36:048;0.15322891;9.864111;-0.93852705
10:12:36:140;11:12:36:048;0.15322891;9.864111;-0.93852705
10:12:36:148;11:12:36:048;0.15322891;9.864111;-0.93852705
10:12:36:156;11:12:36:048;0.15322891;9.864111;-0.93852705
10:12:36:164;11:12:36:048;0.15322891;9.864111;-0.93852705
10:12:36:171;11:12:36:048;0.15322891;9.864111;-0.93852705
10:12:36:179;11:12:36:178;1.3024458;9.32781;-1.0726024
10:12:36:187;11:12:36:178;1.3024458;9.32781;-1.0726024
10:12:36:195;11:12:36:178;1.3024458;9.32781;-1.0726024
10:12:36:203;11:12:36:178;1.3024458;9.32781;-1.0726024
10:12:36:210;11:12:36:178;1.3024458;9.32781;-1.0726024
10:12:36:218;11:12:36:178;1.3024458;9.32781;-1.0726024
10:12:36:226;11:12:36:178;1.3024458;9.32781;-1.0726024
10:12:36:234;11:12:36:178;1.3024458;9.32781;-1.0726024
10:12:36:242;11:12:36:178;1.3024458;9.32781;-1.0726024
10:12:36:250;11:12:36:178;1.3024458;9.32781;-1.0726024
10:12:36:257;11:12:36:178;1.3024458;9.32781;-1.0726024
10:12:36:265;11:12:36:178;1.3024458;9.32781;-1.0726024
10:12:36:273;11:12:36:178;1.3024458;9.32781;-1.0726024
10:12:36:281;11:12:36:178;1.3024458;9.32781;-1.0726024
10:12:36:289;11:12:36:178;1.3024458;9.32781;-1.0726024
10:12:36:296;11:12:36:178;1.3024458;9.32781;-1.0726024
10:12:36:304;11:12:36:297;0.4405331;10.113108;-0.7086837
10:12:36:312;11:12:36:297;0.4405331;10.113108;-0.7086837
10:12:36:320;11:12:36:297;0.4405331;10.113108;-0.7086837
10:12:36:328;11:12:36:297;0.4405331;10.113108;-0.7086837
10:12:36:335;11:12:36:297;0.4405331;10.113108;-0.7086837
10:12:36:343;11:12:36:297;0.4405331;10.113108;-0.7086837
10:12:36:351;11:12:36:297;0.4405331;10.113108;-0.7086837
10:12:36:359;11:12:36:297;0.4405331;10.113108;-0.7086837
10:12:36:367;11:12:36:297;0.4405331;10.113108;-0.7086837
10:12:36:375;11:12:36:297;0.4405331;10.113108;-0.7086837
10:12:36:382;11:12:36:297;0.4405331;10.113108;-0.7086837
10:12:36:390;11:12:36:297;0.4405331;10.113108;-0.7086837
10:12:36:398;11:12:36:297;0.4405331;10.113108;-0.7086837
10:12:36:406;11:12:36:400;0.34476504;9.844957;-0.78529817
10:12:36:414;11:12:36:400;0.34476504;9.844957;-0.78529817
10:12:36:421;11:12:36:400;0.34476504;9.844957;-0.78529817
10:12:36:429;11:12:36:400;0.34476504;9.844957;-0.78529817
10:12:36:437;11:12:36:400;0.34476504;9.844957;-0.78529817
10:12:36:445;11:12:36:400;0.34476504;9.844957;-0.78529817
10:12:36:453;11:12:36:400;0.34476504;9.844957;-0.78529817
10:12:36:460;11:12:36:400;0.34476504;9.844957;-0.78529817
10:12:36:468;11:12:36:400;0.34476504;9.844957;-0.78529817
10:12:36:476;11:12:36:400;0.34476504;9.844957;-0.78529817
10:12:36:484;11:12:36:400;0.34476504;9.844957;-0.78529817
10:12:36:492;11:12:36:400;0.34476504;9.844957;-0.78529817
10:12:36:500;11:12:36:400;0.34476504;9.844957;-0.78529817
10:12:36:507;11:12:36:400;0.34476504;9.844957;-0.78529817
10:12:36:515;11:12:36:400;0.34476504;9.844957;-0.78529817
10:12:36:523;11:12:36:517;0.8619126;10.534488;-1.4748282
10:12:36:531;11:12:36:517;0.8619126;10.534488;-1.4748282
10:12:36:539;11:12:36:517;0.8619126;10.534488;-1.4748282
10:12:36:546;11:12:36:517;0.8619126;10.534488;-1.4748282
10:12:36:554;11:12:36:517;0.8619126;10.534488;-1.4748282
10:12:36:562;11:12:36:517;0.8619126;10.534488;-1.4748282
10:12:36:570;11:12:36:517;0.8619126;10.534488;-1.4748282
10:12:36:578;11:12:36:517;0.8619126;10.534488;-1.4748282
10:12:36:585;11:12:36:517;0.8619126;10.534488;-1.4748282
10:12:36:593;11:12:36:517;0.8619126;10.534488;-1.4748282
10:12:36:601;11:12:36:517;0.8619126;10.534488;-1.4748282
10:12:36:609;11:12:36:517;0.8619126;10.534488;-1.4748282
10:12:36:617;11:12:36:517;0.8619126;10.534488;-1.4748282
10:12:36:625;11:12:36:620;0.7661445;9.576807;-1.3790601
10:12:36:632;11:12:36:620;0.7661445;9.576807;-1.3790601
10:12:36:640;11:12:36:620;0.7661445;9.576807;-1.3790601
10:12:36:648;11:12:36:620;0.7661445;9.576807;-1.3790601
10:12:36:656;11:12:36:620;0.7661445;9.576807;-1.3790601
10:12:36:664;11:12:36:620;0.7661445;9.576807;-1.3790601
10:12:36:671;11:12:36:620;0.7661445;9.576807;-1.3790601
10:12:36:679;11:12:36:620;0.7661445;9.576807;-1.3790601
10:12:36:687;11:12:36:620;0.7661445;9.576807;-1.3790601
10:12:36:695;11:12:36:620;0.7661445;9.576807;-1.3790601
10:12:36:703;11:12:36:620;0.7661445;9.576807;-1.3790601
10:12:36:710;11:12:36:620;0.7661445;9.576807;-1.3790601
10:12:36:718;11:12:36:620;0.7661445;9.576807;-1.3790601
10:12:36:726;11:12:36:723;0.63206923;9.710882;-1.1300632
10:12:36:734;11:12:36:723;0.63206923;9.710882;-1.1300632
10:12:36:742;11:12:36:723;0.63206923;9.710882;-1.1300632
10:12:36:750;11:12:36:723;0.63206923;9.710882;-1.1300632
10:12:36:757;11:12:36:723;0.63206923;9.710882;-1.1300632
10:12:36:765;11:12:36:723;0.63206923;9.710882;-1.1300632
10:12:36:773;11:12:36:723;0.63206923;9.710882;-1.1300632
10:12:36:781;11:12:36:723;0.63206923;9.710882;-1.1300632
10:12:36:789;11:12:36:723;0.63206923;9.710882;-1.1300632
10:12:36:796;11:12:36:723;0.63206923;9.710882;-1.1300632
10:12:36:804;11:12:36:723;0.63206923;9.710882;-1.1300632
10:12:36:812;11:12:36:723;0.63206923;9.710882;-1.1300632
10:12:36:820;11:12:36:723;0.63206923;9.710882;-1.1300632
10:12:36:828;11:12:36:723;0.63206923;9.710882;-1.1300632
10:12:36:835;11:12:36:723;0.63206923;9.710882;-1.1300632
10:12:36:843;11:12:36:723;0.63206923;9.710882;-1.1300632
10:12:36:851;11:12:36:723;0.63206923;9.710882;-1.1300632
10:12:36:859;11:12:36:853;0.7661445;9.289502;-0.7086837
10:12:36:867;11:12:36:853;0.7661445;9.289502;-0.7086837
10:12:36:875;11:12:36:853;0.7661445;9.289502;-0.7086837
10:12:36:882;11:12:36:853;0.7661445;9.289502;-0.7086837
10:12:36:890;11:12:36:853;0.7661445;9.289502;-0.7086837
10:12:36:898;11:12:36:853;0.7661445;9.289502;-0.7086837
10:12:36:906;11:12:36:853;0.7661445;9.289502;-0.7086837
10:12:36:914;11:12:36:853;0.7661445;9.289502;-0.7086837
10:12:36:921;11:12:36:853;0.7661445;9.289502;-0.7086837
10:12:36:929;11:12:36:853;0.7661445;9.289502;-0.7086837
10:12:36:937;11:12:36:853;0.7661445;9.289502;-0.7086837
10:12:36:945;11:12:36:853;0.7661445;9.289502;-0.7086837
10:12:36:953;11:12:36:853;0.7661445;9.289502;-0.7086837
10:12:36:960;11:12:36:853;0.7661445;9.289502;-0.7086837
10:12:36:968;11:12:36:963;-0.038307227;9.461885;-0.30645782
10:12:36:976;11:12:36:963;-0.038307227;9.461885;-0.30645782
10:12:36:984;11:12:36:963;-0.038307227;9.461885;-0.30645782
10:12:36:992;11:12:36:963;-0.038307227;9.461885;-0.30645782
10:12:37:000;11:12:36:963;-0.038307227;9.461885;-0.30645782
10:12:37:007;11:12:36:963;-0.038307227;9.461885;-0.30645782
10:12:37:015;11:12:36:963;-0.038307227;9.461885;-0.30645782
10:12:37:023;11:12:36:963;-0.038307227;9.461885;-0.30645782
10:12:37:031;11:12:36:963;-0.038307227;9.461885;-0.30645782
10:12:37:039;11:12:36:963;-0.038307227;9.461885;-0.30645782
10:12:37:046;11:12:36:963;-0.038307227;9.461885;-0.30645782
10:12:37:054;11:12:36:963;-0.038307227;9.461885;-0.30645782
10:12:37:062;11:12:36:963;-0.038307227;9.461885;-0.30645782
10:12:37:070;11:12:36:963;-0.038307227;9.461885;-0.30645782
10:12:37:078;11:12:36:963;-0.038307227;9.461885;-0.30645782
10:12:37:085;11:12:36:963;-0.038307227;9.461885;-0.30645782
10:12:37:093;11:12:36:963;-0.038307227;9.461885;-0.30645782
10:12:37:101;11:12:36:963;-0.038307227;9.461885;-0.30645782
10:12:37:109;11:12:37:106;0.2681506;9.749189;-1.6472107
10:12:37:117;11:12:37:106;0.2681506;9.749189;-1.6472107
10:12:37:125;11:12:37:106;0.2681506;9.749189;-1.6472107
10:12:37:132;11:12:37:106;0.2681506;9.749189;-1.6472107
10:12:37:140;11:12:37:106;0.2681506;9.749189;-1.6472107
10:12:37:148;11:12:37:106;0.2681506;9.749189;-1.6472107
10:12:37:156;11:12:37:106;0.2681506;9.749189;-1.6472107
10:12:37:164;11:12:37:106;0.2681506;9.749189;-1.6472107
10:12:37:171;11:12:37:106;0.2681506;9.749189;-1.6472107
10:12:37:179;11:12:37:106;0.2681506;9.749189;-1.6472107
10:12:37:187;11:12:37:106;0.2681506;9.749189;-1.6472107
10:12:37:195;11:12:37:106;0.2681506;9.749189;-1.6472107
10:12:37:203;11:12:37:106;0.2681506;9.749189;-1.6472107
10:12:37:210;11:12:37:106;0.2681506;9.749189;-1.6472107
10:12:37:218;11:12:37:106;0.2681506;9.749189;-1.6472107
10:12:37:226;11:12:37:220;0.076614454;10.457873;-0.8810662
10:12:37:234;11:12:37:220;0.076614454;10.457873;-0.8810662
10:12:37:242;11:12:37:220;0.076614454;10.457873;-0.8810662
10:12:37:250;11:12:37:220;0.076614454;10.457873;-0.8810662
10:12:37:257;11:12:37:220;0.076614454;10.457873;-0.8810662
10:12:37:265;11:12:37:220;0.076614454;10.457873;-0.8810662
10:12:37:273;11:12:37:220;0.076614454;10.457873;-0.8810662
10:12:37:281;11:12:37:220;0.076614454;10.457873;-0.8810662
10:12:37:289;11:12:37:220;0.076614454;10.457873;-0.8810662
10:12:37:296;11:12:37:220;0.076614454;10.457873;-0.8810662
10:12:37:304;11:12:37:220;0.076614454;10.457873;-0.8810662
10:12:37:312;11:12:37:220;0.076614454;10.457873;-0.8810662
10:12:37:320;11:12:37:220;0.076614454;10.457873;-0.8810662
10:12:37:328;11:12:37:220;0.076614454;10.457873;-0.8810662
10:12:37:335;11:12:37:220;0.076614454;10.457873;-0.8810662
10:12:37:343;11:12:37:338;-0.4213795;9.883265;-1.1875241
10:12:37:351;11:12:37:338;-0.4213795;9.883265;-1.1875241
10:12:37:359;11:12:37:338;-0.4213795;9.883265;-1.1875241
10:12:37:367;11:12:37:338;-0.4213795;9.883265;-1.1875241
10:12:37:375;11:12:37:338;-0.4213795;9.883265;-1.1875241
10:12:37:382;11:12:37:338;-0.4213795;9.883265;-1.1875241
10:12:37:390;11:12:37:338;-0.4213795;9.883265;-1.1875241
10:12:37:398;11:12:37:338;-0.4213795;9.883265;-1.1875241
10:12:37:406;11:12:37:338;-0.4213795;9.883265;-1.1875241
10:12:37:414;11:12:37:338;-0.4213795;9.883265;-1.1875241
10:12:37:421;11:12:37:338;-0.4213795;9.883265;-1.1875241
10:12:37:429;11:12:37:338;-0.4213795;9.883265;-1.1875241
10:12:37:437;11:12:37:338;-0.4213795;9.883265;-1.1875241
10:12:37:445;11:12:37:440;-0.4405331;10.6877165;-1.0342951
10:12:37:453;11:12:37:440;-0.4405331;10.6877165;-1.0342951
10:12:37:460;11:12:37:440;-0.4405331;10.6877165;-1.0342951
10:12:37:468;11:12:37:440;-0.4405331;10.6877165;-1.0342951
10:12:37:476;11:12:37:440;-0.4405331;10.6877165;-1.0342951
10:12:37:484;11:12:37:440;-0.4405331;10.6877165;-1.0342951
10:12:37:492;11:12:37:440;-0.4405331;10.6877165;-1.0342951
10:12:37:500;11:12:37:440;-0.4405331;10.6877165;-1.0342951
10:12:37:507;11:12:37:440;-0.4405331;10.6877165;-1.0342951
10:12:37:515;11:12:37:440;-0.4405331;10.6877165;-1.0342951
10:12:37:523;11:12:37:440;-0.4405331;10.6877165;-1.0342951
10:12:37:531;11:12:37:440;-0.4405331;10.6877165;-1.0342951
10:12:37:539;11:12:37:440;-0.4405331;10.6877165;-1.0342951
10:12:37:546;11:12:37:440;-0.4405331;10.6877165;-1.0342951
10:12:37:554;11:12:37:440;-0.4405331;10.6877165;-1.0342951
10:12:37:562;11:12:37:440;-0.4405331;10.6877165;-1.0342951
10:12:37:570;11:12:37:440;-0.4405331;10.6877165;-1.0342951
10:12:37:578;11:12:37:440;-0.4405331;10.6877165;-1.0342951
10:12:37:585;11:12:37:440;-0.4405331;10.6877165;-1.0342951
10:12:37:593;11:12:37:592;-0.7469909;10.093954;-0.6703765
10:12:37:601;11:12:37:592;-0.7469909;10.093954;-0.6703765
10:12:37:609;11:12:37:592;-0.7469909;10.093954;-0.6703765
10:12:37:617;11:12:37:592;-0.7469909;10.093954;-0.6703765
10:12:37:625;11:12:37:592;-0.7469909;10.093954;-0.6703765
10:12:37:632;11:12:37:592;-0.7469909;10.093954;-0.6703765
10:12:37:640;11:12:37:592;-0.7469909;10.093954;-0.6703765
10:12:37:648;11:12:37:592;-0.7469909;10.093954;-0.6703765
10:12:37:656;11:12:37:592;-0.7469909;10.093954;-0.6703765
10:12:37:664;11:12:37:592;-0.7469909;10.093954;-0.6703765
10:12:37:671;11:12:37:592;-0.7469909;10.093954;-0.6703765
10:12:37:679;11:12:37:592;-0.7469909;10.093954;-0.6703765
10:12:37:687;11:12:37:592;-0.7469909;10.093954;-0.6703765
10:12:37:695;11:12:37:592;-0.7469909;10.093954;-0.6703765
10:12:37:703;11:12:37:592;-0.7469909;10.093954;-0.6703765
10:12:37:710;11:12:37:592;-0.7469909;10.093954;-0.6703765
10:12:37:718;11:12:37:713;-0.40222588;10.362105;-1.2449849
10:12:37:726;11:12:37:713;-0.40222588;10.362105;-1.2449849
10:12:37:734;11:12:37:713;-0.40222588;10.362105;-1.2449849
10:12:37:742;11:12:37:713;-0.40222588;10.362105;-1.2449849
10:12:37:750;11:12:37:713;-0.40222588;10.362105;-1.2449849
10:12:37:757;11:12:37:713;-0.40222588;10.362105;-1.2449849
10:12:37:765;11:12:37:713;-0.40222588;10.362105;-1.2449849
10:12:37:773;11:12:37:713;-0.40222588;10.362105;-1.2449849
10:12:37:781;11:12:37:713;-0.40222588;10.362105;-1.2449849
10:12:37:789;11:12:37:713;-0.40222588;10.362105;-1.2449849
10:12:37:796;11:12:37:713;-0.40222588;10.362105;-1.2449849
10:12:37:804;11:12:37:713;-0.40222588;10.362105;-1.2449849
10:12:37:812;11:12:37:713;-0.40222588;10.362105;-1.2449849
10:12:37:820;11:12:37:713;-0.40222588;10.362105;-1.2449849
10:12:37:828;11:12:37:824;-1.0342951;10.151415;-1.1109096
10:12:37:835;11:12:37:824;-1.0342951;10.151415;-1.1109096
10:12:37:843;11:12:37:824;-1.0342951;10.151415;-1.1109096
10:12:37:851;11:12:37:824;-1.0342951;10.151415;-1.1109096
10:12:37:859;11:12:37:824;-1.0342951;10.151415;-1.1109096
10:12:37:867;11:12:37:824;-1.0342951;10.151415;-1.1109096
10:12:37:875;11:12:37:824;-1.0342951;10.151415;-1.1109096
10:12:37:882;11:12:37:824;-1.0342951;10.151415;-1.1109096
10:12:37:890;11:12:37:824;-1.0342951;10.151415;-1.1109096
10:12:37:898;11:12:37:824;-1.0342951;10.151415;-1.1109096
10:12:37:906;11:12:37:824;-1.0342951;10.151415;-1.1109096
10:12:37:914;11:12:37:824;-1.0342951;10.151415;-1.1109096
10:12:37:921;11:12:37:824;-1.0342951;10.151415;-1.1109096
10:12:37:929;11:12:37:926;-1.2641385;9.959879;-0.93852705
10:12:37:937;11:12:37:926;-1.2641385;9.959879;-0.93852705
10:12:37:945;11:12:37:926;-1.2641385;9.959879;-0.93852705
10:12:37:953;11:12:37:926;-1.2641385;9.959879;-0.93852705
10:12:37:960;11:12:37:926;-1.2641385;9.959879;-0.93852705
10:12:37:968;11:12:37:926;-1.2641385;9.959879;-0.93852705
10:12:37:976;11:12:37:926;-1.2641385;9.959879;-0.93852705
10:12:37:984;11:12:37:926;-1.2641385;9.959879;-0.93852705
10:12:37:992;11:12:37:926;-1.2641385;9.959879;-0.93852705
10:12:38:000;11:12:37:926;-1.2641385;9.959879;-0.93852705
10:12:38:007;11:12:37:926;-1.2641385;9.959879;-0.93852705
10:12:38:015;11:12:37:926;-1.2641385;9.959879;-0.93852705
10:12:38:023;11:12:37:926;-1.2641385;9.959879;-0.93852705
10:12:38:031;11:12:38:027;-0.842759;10.228029;-0.9768343
10:12:38:039;11:12:38:027;-0.842759;10.228029;-0.9768343
10:12:38:046;11:12:38:027;-0.842759;10.228029;-0.9768343
10:12:38:054;11:12:38:027;-0.842759;10.228029;-0.9768343
10:12:38:062;11:12:38:027;-0.842759;10.228029;-0.9768343
10:12:38:070;11:12:38:027;-0.842759;10.228029;-0.9768343
10:12:38:078;11:12:38:027;-0.842759;10.228029;-0.9768343
10:12:38:085;11:12:38:027;-0.842759;10.228029;-0.9768343
10:12:38:093;11:12:38:027;-0.842759;10.228029;-0.9768343
10:12:38:101;11:12:38:027;-0.842759;10.228029;-0.9768343
10:12:38:109;11:12:38:027;-0.842759;10.228029;-0.9768343
10:12:38:117;11:12:38:027;-0.842759;10.228029;-0.9768343
10:12:38:125;11:12:38:027;-0.842759;10.228029;-0.9768343
10:12:38:132;11:12:38:027;-0.842759;10.228029;-0.9768343
10:12:38:140;11:12:38:027;-0.842759;10.228029;-0.9768343
10:12:38:148;11:12:38:145;-0.34476504;9.902418;-0.5746084
10:12:38:156;11:12:38:145;-0.34476504;9.902418;-0.5746084
10:12:38:164;11:12:38:145;-0.34476504;9.902418;-0.5746084
10:12:38:171;11:12:38:145;-0.34476504;9.902418;-0.5746084
10:12:38:179;11:12:38:145;-0.34476504;9.902418;-0.5746084
10:12:38:187;11:12:38:145;-0.34476504;9.902418;-0.5746084
10:12:38:195;11:12:38:145;-0.34476504;9.902418;-0.5746084
10:12:38:203;11:12:38:145;-0.34476504;9.902418;-0.5746084
10:12:38:210;11:12:38:145;-0.34476504;9.902418;-0.5746084
10:12:38:218;11:12:38:145;-0.34476504;9.902418;-0.5746084
10:12:38:226;11:12:38:145;-0.34476504;9.902418;-0.5746084
10:12:38:234;11:12:38:145;-0.34476504;9.902418;-0.5746084
10:12:38:242;11:12:38:145;-0.34476504;9.902418;-0.5746084
10:12:38:250;11:12:38:248;-0.8810662;9.959879;-1.1492168
10:12:38:257;11:12:38:248;-0.8810662;9.959879;-1.1492168
10:12:38:265;11:12:38:248;-0.8810662;9.959879;-1.1492168
10:12:38:273;11:12:38:248;-0.8810662;9.959879;-1.1492168
10:12:38:281;11:12:38:248;-0.8810662;9.959879;-1.1492168
10:12:38:289;11:12:38:248;-0.8810662;9.959879;-1.1492168
10:12:38:296;11:12:38:248;-0.8810662;9.959879;-1.1492168
10:12:38:304;11:12:38:248;-0.8810662;9.959879;-1.1492168
10:12:38:312;11:12:38:248;-0.8810662;9.959879;-1.1492168
10:12:38:320;11:12:38:248;-0.8810662;9.959879;-1.1492168
10:12:38:328;11:12:38:248;-0.8810662;9.959879;-1.1492168
10:12:38:335;11:12:38:248;-0.8810662;9.959879;-1.1492168
10:12:38:343;11:12:38:248;-0.8810662;9.959879;-1.1492168
10:12:38:351;11:12:38:248;-0.8810662;9.959879;-1.1492168
10:12:38:359;11:12:38:248;-0.8810662;9.959879;-1.1492168
10:12:38:367;11:12:38:360;-0.38307226;9.940725;-0.49799395
10:12:38:375;11:12:38:360;-0.38307226;9.940725;-0.49799395
10:12:38:382;11:12:38:360;-0.38307226;9.940725;-0.49799395
10:12:38:390;11:12:38:360;-0.38307226;9.940725;-0.49799395
10:12:38:398;11:12:38:360;-0.38307226;9.940725;-0.49799395
10:12:38:406;11:12:38:360;-0.38307226;9.940725;-0.49799395
10:12:38:414;11:12:38:360;-0.38307226;9.940725;-0.49799395
10:12:38:421;11:12:38:360;-0.38307226;9.940725;-0.49799395
10:12:38:429;11:12:38:360;-0.38307226;9.940725;-0.49799395
10:12:38:437;11:12:38:360;-0.38307226;9.940725;-0.49799395
10:12:38:445;11:12:38:360;-0.38307226;9.940725;-0.49799395
10:12:38:453;11:12:38:360;-0.38307226;9.940725;-0.49799395
10:12:38:460;11:12:38:360;-0.38307226;9.940725;-0.49799395
10:12:38:468;11:12:38:464;-0.93852705;10.5919485;-1.2449849
10:12:38:476;11:12:38:464;-0.93852705;10.5919485;-1.2449849
10:12:38:484;11:12:38:464;-0.93852705;10.5919485;-1.2449849
10:12:38:492;11:12:38:464;-0.93852705;10.5919485;-1.2449849
10:12:38:500;11:12:38:464;-0.93852705;10.5919485;-1.2449849
10:12:38:507;11:12:38:464;-0.93852705;10.5919485;-1.2449849
10:12:38:515;11:12:38:464;-0.93852705;10.5919485;-1.2449849
10:12:38:523;11:12:38:464;-0.93852705;10.5919485;-1.2449849
10:12:38:531;11:12:38:464;-0.93852705;10.5919485;-1.2449849
10:12:38:539;11:12:38:464;-0.93852705;10.5919485;-1.2449849
10:12:38:546;11:12:38:464;-0.93852705;10.5919485;-1.2449849
10:12:38:554;11:12:38:464;-0.93852705;10.5919485;-1.2449849
10:12:38:562;11:12:38:464;-0.93852705;10.5919485;-1.2449849
10:12:38:570;11:12:38:464;-0.93852705;10.5919485;-1.2449849
10:12:38:578;11:12:38:464;-0.93852705;10.5919485;-1.2449849
10:12:38:585;11:12:38:580;-0.80445176;10.477027;-0.7661445
10:12:38:593;11:12:38:580;-0.80445176;10.477027;-0.7661445
10:12:38:601;11:12:38:580;-0.80445176;10.477027;-0.7661445
10:12:38:609;11:12:38:580;-0.80445176;10.477027;-0.7661445
10:12:38:617;11:12:38:580;-0.80445176;10.477027;-0.7661445
10:12:38:625;11:12:38:580;-0.80445176;10.477027;-0.7661445
10:12:38:632;11:12:38:580;-0.80445176;10.477027;-0.7661445
10:12:38:640;11:12:38:580;-0.80445176;10.477027;-0.7661445
10:12:38:648;11:12:38:580;-0.80445176;10.477027;-0.7661445
10:12:38:656;11:12:38:580;-0.80445176;10.477027;-0.7661445
10:12:38:664;11:12:38:580;-0.80445176;10.477027;-0.7661445
10:12:38:671;11:12:38:580;-0.80445176;10.477027;-0.7661445
10:12:38:679;11:12:38:580;-0.80445176;10.477027;-0.7661445
10:12:38:687;11:12:38:687;-0.38307226;10.036493;-0.91937345
10:12:38:695;11:12:38:687;-0.38307226;10.036493;-0.91937345
10:12:38:703;11:12:38:687;-0.38307226;10.036493;-0.91937345
10:12:38:710;11:12:38:687;-0.38307226;10.036493;-0.91937345
10:12:38:718;11:12:38:687;-0.38307226;10.036493;-0.91937345
10:12:38:726;11:12:38:687;-0.38307226;10.036493;-0.91937345
10:12:38:734;11:12:38:687;-0.38307226;10.036493;-0.91937345
10:12:38:742;11:12:38:687;-0.38307226;10.036493;-0.91937345
10:12:38:750;11:12:38:687;-0.38307226;10.036493;-0.91937345
10:12:38:757;11:12:38:687;-0.38307226;10.036493;-0.91937345
10:12:38:765;11:12:38:687;-0.38307226;10.036493;-0.91937345
10:12:38:773;11:12:38:687;-0.38307226;10.036493;-0.91937345
10:12:38:781;11:12:38:687;-0.38307226;10.036493;-0.91937345
10:12:38:789;11:12:38:687;-0.38307226;10.036493;-0.91937345
10:12:38:796;11:12:38:796;-0.038307227;9.730036;-1.2641385
10:12:38:804;11:12:38:796;-0.038307227;9.730036;-1.2641385
10:12:38:812;11:12:38:796;-0.038307227;9.730036;-1.2641385
10:12:38:820;11:12:38:796;-0.038307227;9.730036;-1.2641385
10:12:38:828;11:12:38:796;-0.038307227;9.730036;-1.2641385
10:12:38:835;11:12:38:796;-0.038307227;9.730036;-1.2641385
10:12:38:843;11:12:38:796;-0.038307227;9.730036;-1.2641385
10:12:38:851;11:12:38:796;-0.038307227;9.730036;-1.2641385
10:12:38:859;11:12:38:796;-0.038307227;9.730036;-1.2641385
10:12:38:867;11:12:38:796;-0.038307227;9.730036;-1.2641385
10:12:38:875;11:12:38:796;-0.038307227;9.730036;-1.2641385
10:12:38:882;11:12:38:796;-0.038307227;9.730036;-1.2641385
10:12:38:890;11:12:38:796;-0.038307227;9.730036;-1.2641385
10:12:38:898;11:12:38:898;-0.63206923;10.228029;-1.1875241
10:12:38:906;11:12:38:898;-0.63206923;10.228029;-1.1875241
10:12:38:914;11:12:38:898;-0.63206923;10.228029;-1.1875241
10:12:38:921;11:12:38:898;-0.63206923;10.228029;-1.1875241
10:12:38:929;11:12:38:898;-0.63206923;10.228029;-1.1875241
10:12:38:937;11:12:38:898;-0.63206923;10.228029;-1.1875241
10:12:38:945;11:12:38:898;-0.63206923;10.228029;-1.1875241
10:12:38:953;11:12:38:898;-0.63206923;10.228029;-1.1875241
10:12:38:960;11:12:38:898;-0.63206923;10.228029;-1.1875241
10:12:38:968;11:12:38:898;-0.63206923;10.228029;-1.1875241
10:12:38:976;11:12:38:898;-0.63206923;10.228029;-1.1875241
10:12:38:984;11:12:38:898;-0.63206923;10.228029;-1.1875241
10:12:38:992;11:12:38:898;-0.63206923;10.228029;-1.1875241
10:12:39:000;11:12:38:898;-0.63206923;10.228029;-1.1875241
10:12:39:007;11:12:38:898;-0.63206923;10.228029;-1.1875241
10:12:39:015;11:12:38:898;-0.63206923;10.228029;-1.1875241
10:12:39:023;11:12:38:898;-0.63206923;10.228029;-1.1875241
10:12:39:031;11:12:38:898;-0.63206923;10.228029;-1.1875241
10:12:39:039;11:12:38:898;-0.63206923;10.228029;-1.1875241
10:12:39:046;11:12:38:898;-0.63206923;10.228029;-1.1875241
10:12:39:054;11:12:38:898;-0.63206923;10.228029;-1.1875241
10:12:39:062;11:12:38:898;-0.63206923;10.228029;-1.1875241
10:12:39:070;11:12:39:066;0.1340753;9.653421;-1.0151415
10:12:39:078;11:12:39:066;0.1340753;9.653421;-1.0151415
10:12:39:085;11:12:39:066;0.1340753;9.653421;-1.0151415
10:12:39:093;11:12:39:066;0.1340753;9.653421;-1.0151415
10:12:39:101;11:12:39:066;0.1340753;9.653421;-1.0151415
10:12:39:109;11:12:39:066;0.1340753;9.653421;-1.0151415
10:12:39:117;11:12:39:066;0.1340753;9.653421;-1.0151415
10:12:39:125;11:12:39:066;0.1340753;9.653421;-1.0151415
10:12:39:132;11:12:39:066;0.1340753;9.653421;-1.0151415
10:12:39:140;11:12:39:066;0.1340753;9.653421;-1.0151415
10:12:39:148;11:12:39:066;0.1340753;9.653421;-1.0151415
10:12:39:156;11:12:39:066;0.1340753;9.653421;-1.0151415
10:12:39:164;11:12:39:066;0.1340753;9.653421;-1.0151415
10:12:39:171;11:12:39:066;0.1340753;9.653421;-1.0151415
10:12:39:179;11:12:39:177;-0.45968673;10.208876;-0.91937345
10:12:39:187;11:12:39:177;-0.45968673;10.208876;-0.91937345
10:12:39:195;11:12:39:177;-0.45968673;10.208876;-0.91937345
10:12:39:203;11:12:39:177;-0.45968673;10.208876;-0.91937345
10:12:39:210;11:12:39:177;-0.45968673;10.208876;-0.91937345
10:12:39:218;11:12:39:177;-0.45968673;10.208876;-0.91937345
10:12:39:226;11:12:39:177;-0.45968673;10.208876;-0.91937345
10:12:39:234;11:12:39:177;-0.45968673;10.208876;-0.91937345
10:12:39:242;11:12:39:177;-0.45968673;10.208876;-0.91937345
10:12:39:250;11:12:39:177;-0.45968673;10.208876;-0.91937345
10:12:39:257;11:12:39:177;-0.45968673;10.208876;-0.91937345
10:12:39:265;11:12:39:177;-0.45968673;10.208876;-0.91937345
10:12:39:273;11:12:39:177;-0.45968673;10.208876;-0.91937345
10:12:39:281;11:12:39:177;-0.45968673;10.208876;-0.91937345
10:12:39:289;11:12:39:177;-0.45968673;10.208876;-0.91937345
10:12:39:296;11:12:39:295;-0.47884035;9.998186;-1.1492168
10:12:39:304;11:12:39:295;-0.47884035;9.998186;-1.1492168
10:12:39:312;11:12:39:295;-0.47884035;9.998186;-1.1492168
10:12:39:320;11:12:39:295;-0.47884035;9.998186;-1.1492168
10:12:39:328;11:12:39:295;-0.47884035;9.998186;-1.1492168
10:12:39:335;11:12:39:295;-0.47884035;9.998186;-1.1492168
10:12:39:343;11:12:39:295;-0.47884035;9.998186;-1.1492168
10:12:39:351;11:12:39:295;-0.47884035;9.998186;-1.1492168
10:12:39:359;11:12:39:295;-0.47884035;9.998186;-1.1492168
10:12:39:367;11:12:39:295;-0.47884035;9.998186;-1.1492168
10:12:39:375;11:12:39:295;-0.47884035;9.998186;-1.1492168
10:12:39:382;11:12:39:295;-0.47884035;9.998186;-1.1492168
10:12:39:390;11:12:39:295;-0.47884035;9.998186;-1.1492168
10:12:39:398;11:12:39:295;-0.47884035;9.998186;-1.1492168
10:12:39:406;11:12:39:404;-0.32561144;9.959879;-0.6895301
10:12:39:414;11:12:39:404;-0.32561144;9.959879;-0.6895301
10:12:39:421;11:12:39:404;-0.32561144;9.959879;-0.6895301
10:12:39:429;11:12:39:404;-0.32561144;9.959879;-0.6895301
10:12:39:437;11:12:39:404;-0.32561144;9.959879;-0.6895301
10:12:39:445;11:12:39:404;-0.32561144;9.959879;-0.6895301
10:12:39:453;11:12:39:404;-0.32561144;9.959879;-0.6895301
10:12:39:460;11:12:39:404;-0.32561144;9.959879;-0.6895301
10:12:39:468;11:12:39:404;-0.32561144;9.959879;-0.6895301
10:12:39:476;11:12:39:404;-0.32561144;9.959879;-0.6895301
10:12:39:484;11:12:39:404;-0.32561144;9.959879;-0.6895301
10:12:39:492;11:12:39:404;-0.32561144;9.959879;-0.6895301
10:12:39:500;11:12:39:404;-0.32561144;9.959879;-0.6895301
10:12:39:507;11:12:39:404;-0.32561144;9.959879;-0.6895301
10:12:39:515;11:12:39:404;-0.32561144;9.959879;-0.6895301
10:12:39:523;11:12:39:516;-0.49799395;10.189722;-1.2066777
10:12:39:531;11:12:39:516;-0.49799395;10.189722;-1.2066777
10:12:39:539;11:12:39:516;-0.49799395;10.189722;-1.2066777
10:12:39:546;11:12:39:516;-0.49799395;10.189722;-1.2066777
10:12:39:554;11:12:39:516;-0.49799395;10.189722;-1.2066777
10:12:39:562;11:12:39:516;-0.49799395;10.189722;-1.2066777
10:12:39:570;11:12:39:516;-0.49799395;10.189722;-1.2066777
10:12:39:578;11:12:39:516;-0.49799395;10.189722;-1.2066777
10:12:39:585;11:12:39:516;-0.49799395;10.189722;-1.2066777
10:12:39:593;11:12:39:516;-0.49799395;10.189722;-1.2066777
10:12:39:601;11:12:39:516;-0.49799395;10.189722;-1.2066777
10:12:39:609;11:12:39:516;-0.49799395;10.189722;-1.2066777
10:12:39:617;11:12:39:516;-0.49799395;10.189722;-1.2066777
10:12:39:625;11:12:39:622;-1.0151415;10.381259;-0.8810662
10:12:39:632;11:12:39:622;-1.0151415;10.381259;-0.8810662
10:12:39:640;11:12:39:622;-1.0151415;10.381259;-0.8810662
10:12:39:648;11:12:39:622;-1.0151415;10.381259;-0.8810662
10:12:39:656;11:12:39:622;-1.0151415;10.381259;-0.8810662
10:12:39:664;11:12:39:622;-1.0151415;10.381259;-0.8810662
10:12:39:671;11:12:39:622;-1.0151415;10.381259;-0.8810662
10:12:39:679;11:12:39:622;-1.0151415;10.381259;-0.8810662
10:12:39:687;11:12:39:622;-1.0151415;10.381259;-0.8810662
10:12:39:695;11:12:39:622;-1.0151415;10.381259;-0.8810662
10:12:39:703;11:12:39:622;-1.0151415;10.381259;-0.8810662
10:12:39:710;11:12:39:622;-1.0151415;10.381259;-0.8810662
10:12:39:718;11:12:39:622;-1.0151415;10.381259;-0.8810662
10:12:39:726;11:12:39:622;-1.0151415;10.381259;-0.8810662
10:12:39:734;11:12:39:622;-1.0151415;10.381259;-0.8810662
10:12:39:742;11:12:39:739;0.019153614;9.5385;-1.1683705
10:12:39:750;11:12:39:739;0.019153614;9.5385;-1.1683705
10:12:39:757;11:12:39:739;0.019153614;9.5385;-1.1683705
10:12:39:765;11:12:39:739;0.019153614;9.5385;-1.1683705
10:12:39:773;11:12:39:739;0.019153614;9.5385;-1.1683705
10:12:39:781;11:12:39:739;0.019153614;9.5385;-1.1683705
10:12:39:789;11:12:39:739;0.019153614;9.5385;-1.1683705
10:12:39:796;11:12:39:739;0.019153614;9.5385;-1.1683705
10:12:39:804;11:12:39:739;0.019153614;9.5385;-1.1683705
10:12:39:812;11:12:39:739;0.019153614;9.5385;-1.1683705
10:12:39:820;11:12:39:739;0.019153614;9.5385;-1.1683705
10:12:39:828;11:12:39:739;0.019153614;9.5385;-1.1683705
10:12:39:835;11:12:39:739;0.019153614;9.5385;-1.1683705
10:12:39:843;11:12:39:739;0.019153614;9.5385;-1.1683705
10:12:39:851;11:12:39:739;0.019153614;9.5385;-1.1683705
10:12:39:859;11:12:39:858;-0.7469909;10.093954;-0.6895301
10:12:39:867;11:12:39:858;-0.7469909;10.093954;-0.6895301
10:12:39:875;11:12:39:858;-0.7469909;10.093954;-0.6895301
10:12:39:882;11:12:39:858;-0.7469909;10.093954;-0.6895301
10:12:39:890;11:12:39:858;-0.7469909;10.093954;-0.6895301
10:12:39:898;11:12:39:858;-0.7469909;10.093954;-0.6895301
10:12:39:906;11:12:39:858;-0.7469909;10.093954;-0.6895301
10:12:39:914;11:12:39:858;-0.7469909;10.093954;-0.6895301
10:12:39:921;11:12:39:858;-0.7469909;10.093954;-0.6895301
10:12:39:929;11:12:39:858;-0.7469909;10.093954;-0.6895301
10:12:39:937;11:12:39:858;-0.7469909;10.093954;-0.6895301
10:12:39:945;11:12:39:858;-0.7469909;10.093954;-0.6895301
10:12:39:953;11:12:39:858;-0.7469909;10.093954;-0.6895301
10:12:39:960;11:12:39:858;-0.7469909;10.093954;-0.6895301
10:12:39:968;11:12:39:858;-0.7469909;10.093954;-0.6895301
10:12:39:976;11:12:39:974;0.36391866;9.921572;-0.59376204
10:12:39:984;11:12:39:974;0.36391866;9.921572;-0.59376204
10:12:39:992;11:12:39:974;0.36391866;9.921572;-0.59376204
10:12:40:000;11:12:39:974;0.36391866;9.921572;-0.59376204
10:12:40:007;11:12:39:974;0.36391866;9.921572;-0.59376204
10:12:40:015;11:12:39:974;0.36391866;9.921572;-0.59376204
10:12:40:023;11:12:39:974;0.36391866;9.921572;-0.59376204
10:12:40:031;11:12:39:974;0.36391866;9.921572;-0.59376204
10:12:40:039;11:12:39:974;0.36391866;9.921572;-0.59376204
10:12:40:046;11:12:39:974;0.36391866;9.921572;-0.59376204
10:12:40:054;11:12:39:974;0.36391866;9.921572;-0.59376204
10:12:40:062;11:12:39:974;0.36391866;9.921572;-0.59376204
10:12:40:070;11:12:39:974;0.36391866;9.921572;-0.59376204
10:12:40:078;11:12:40:076;-0.2873042;10.093954;-0.7469909
10:12:40:085;11:12:40:076;-0.2873042;10.093954;-0.7469909
10:12:40:093;11:12:40:076;-0.2873042;10.093954;-0.7469909
10:12:40:101;11:12:40:076;-0.2873042;10.093954;-0.7469909
10:12:40:109;11:12:40:076;-0.2873042;10.093954;-0.7469909
10:12:40:117;11:12:40:076;-0.2873042;10.093954;-0.7469909
10:12:40:125;11:12:40:076;-0.2873042;10.093954;-0.7469909
10:12:40:132;11:12:40:076;-0.2873042;10.093954;-0.7469909
10:12:40:140;11:12:40:076;-0.2873042;10.093954;-0.7469909
10:12:40:148;11:12:40:076;-0.2873042;10.093954;-0.7469909
10:12:40:156;11:12:40:076;-0.2873042;10.093954;-0.7469909
10:12:40:164;11:12:40:076;-0.2873042;10.093954;-0.7469909
10:12:40:171;11:12:40:076;-0.2873042;10.093954;-0.7469909
10:12:40:179;11:12:40:076;-0.2873042;10.093954;-0.7469909
10:12:40:187;11:12:40:076;-0.2873042;10.093954;-0.7469909
10:12:40:195;11:12:40:194;-0.59376204;10.0748005;-1.5514427
10:12:40:203;11:12:40:194;-0.59376204;10.0748005;-1.5514427
10:12:40:210;11:12:40:194;-0.59376204;10.0748005;-1.5514427
10:12:40:218;11:12:40:194;-0.59376204;10.0748005;-1.5514427
10:12:40:226;11:12:40:194;-0.59376204;10.0748005;-1.5514427
10:12:40:234;11:12:40:194;-0.59376204;10.0748005;-1.5514427
10:12:40:242;11:12:40:194;-0.59376204;10.0748005;-1.5514427
10:12:40:250;11:12:40:194;-0.59376204;10.0748005;-1.5514427
10:12:40:257;11:12:40:194;-0.59376204;10.0748005;-1.5514427
10:12:40:265;11:12:40:194;-0.59376204;10.0748005;-1.5514427
10:12:40:273;11:12:40:194;-0.59376204;10.0748005;-1.5514427
10:12:40:281;11:12:40:194;-0.59376204;10.0748005;-1.5514427
10:12:40:289;11:12:40:194;-0.59376204;10.0748005;-1.5514427
10:12:40:296;11:12:40:194;-0.59376204;10.0748005;-1.5514427
10:12:40:304;11:12:40:194;-0.59376204;10.0748005;-1.5514427
10:12:40:312;11:12:40:194;-0.59376204;10.0748005;-1.5514427
10:12:40:320;11:12:40:315;-0.2873042;9.940725;-0.90021986
10:12:40:328;11:12:40:315;-0.2873042;9.940725;-0.90021986
10:12:40:335;11:12:40:315;-0.2873042;9.940725;-0.90021986
10:12:40:343;11:12:40:315;-0.2873042;9.940725;-0.90021986
10:12:40:351;11:12:40:315;-0.2873042;9.940725;-0.90021986
10:12:40:359;11:12:40:315;-0.2873042;9.940725;-0.90021986
10:12:40:367;11:12:40:315;-0.2873042;9.940725;-0.90021986
10:12:40:375;11:12:40:315;-0.2873042;9.940725;-0.90021986
10:12:40:382;11:12:40:315;-0.2873042;9.940725;-0.90021986
10:12:40:390;11:12:40:315;-0.2873042;9.940725;-0.90021986
10:12:40:398;11:12:40:315;-0.2873042;9.940725;-0.90021986
10:12:40:406;11:12:40:315;-0.2873042;9.940725;-0.90021986
10:12:40:414;11:12:40:315;-0.2873042;9.940725;-0.90021986
10:12:40:421;11:12:40:315;-0.2873042;9.940725;-0.90021986
10:12:40:429;11:12:40:315;-0.2873042;9.940725;-0.90021986
10:12:40:437;11:12:40:435;-0.5363012;9.653421;-0.6703765
10:12:40:445;11:12:40:435;-0.5363012;9.653421;-0.6703765
10:12:40:453;11:12:40:435;-0.5363012;9.653421;-0.6703765
10:12:40:460;11:12:40:435;-0.5363012;9.653421;-0.6703765
10:12:40:468;11:12:40:435;-0.5363012;9.653421;-0.6703765
10:12:40:476;11:12:40:435;-0.5363012;9.653421;-0.6703765
10:12:40:484;11:12:40:435;-0.5363012;9.653421;-0.6703765
10:12:40:492;11:12:40:435;-0.5363012;9.653421;-0.6703765
10:12:40:500;11:12:40:435;-0.5363012;9.653421;-0.6703765
10:12:40:507;11:12:40:435;-0.5363012;9.653421;-0.6703765
10:12:40:515;11:12:40:435;-0.5363012;9.653421;-0.6703765
10:12:40:523;11:12:40:435;-0.5363012;9.653421;-0.6703765
10:12:40:531;11:12:40:435;-0.5363012;9.653421;-0.6703765
10:12:40:539;11:12:40:435;-0.5363012;9.653421;-0.6703765
10:12:40:546;11:12:40:435;-0.5363012;9.653421;-0.6703765
10:12:40:554;11:12:40:549;-0.49799395;10.0748005;-1.1109096
10:12:40:562;11:12:40:549;-0.49799395;10.0748005;-1.1109096
10:12:40:570;11:12:40:549;-0.49799395;10.0748005;-1.1109096
10:12:40:578;11:12:40:549;-0.49799395;10.0748005;-1.1109096
10:12:40:585;11:12:40:549;-0.49799395;10.0748005;-1.1109096
10:12:40:593;11:12:40:549;-0.49799395;10.0748005;-1.1109096
10:12:40:601;11:12:40:549;-0.49799395;10.0748005;-1.1109096
10:12:40:609;11:12:40:549;-0.49799395;10.0748005;-1.1109096
10:12:40:617;11:12:40:549;-0.49799395;10.0748005;-1.1109096
10:12:40:625;11:12:40:549;-0.49799395;10.0748005;-1.1109096
10:12:40:632;11:12:40:549;-0.49799395;10.0748005;-1.1109096
10:12:40:640;11:12:40:549;-0.49799395;10.0748005;-1.1109096
10:12:40:648;11:12:40:549;-0.49799395;10.0748005;-1.1109096
10:12:40:656;11:12:40:650;-0.47884035;9.864111;-1.1300632
10:12:40:664;11:12:40:650;-0.47884035;9.864111;-1.1300632
10:12:40:671;11:12:40:650;-0.47884035;9.864111;-1.1300632
10:12:40:679;11:12:40:650;-0.47884035;9.864111;-1.1300632
10:12:40:687;11:12:40:650;-0.47884035;9.864111;-1.1300632
10:12:40:695;11:12:40:650;-0.47884035;9.864111;-1.1300632
10:12:40:703;11:12:40:650;-0.47884035;9.864111;-1.1300632
10:12:40:710;11:12:40:650;-0.47884035;9.864111;-1.1300632
10:12:40:718;11:12:40:650;-0.47884035;9.864111;-1.1300632
10:12:40:726;11:12:40:650;-0.47884035;9.864111;-1.1300632
10:12:40:734;11:12:40:650;-0.47884035;9.864111;-1.1300632
10:12:40:742;11:12:40:650;-0.47884035;9.864111;-1.1300632
10:12:40:750;11:12:40:650;-0.47884035;9.864111;-1.1300632
10:12:40:757;11:12:40:650;-0.47884035;9.864111;-1.1300632
10:12:40:765;11:12:40:762;0.095768064;9.385271;-0.5363012
10:12:40:773;11:12:40:762;0.095768064;9.385271;-0.5363012
10:12:40:781;11:12:40:762;0.095768064;9.385271;-0.5363012
10:12:40:789;11:12:40:762;0.095768064;9.385271;-0.5363012
10:12:40:796;11:12:40:762;0.095768064;9.385271;-0.5363012
10:12:40:804;11:12:40:762;0.095768064;9.385271;-0.5363012
10:12:40:812;11:12:40:762;0.095768064;9.385271;-0.5363012
10:12:40:820;11:12:40:762;0.095768064;9.385271;-0.5363012
10:12:40:828;11:12:40:762;0.095768064;9.385271;-0.5363012
10:12:40:835;11:12:40:762;0.095768064;9.385271;-0.5363012
10:12:40:843;11:12:40:762;0.095768064;9.385271;-0.5363012
10:12:40:851;11:12:40:762;0.095768064;9.385271;-0.5363012
10:12:40:859;11:12:40:762;0.095768064;9.385271;-0.5363012
10:12:40:867;11:12:40:762;0.095768064;9.385271;-0.5363012
10:12:40:875;11:12:40:762;0.095768064;9.385271;-0.5363012
10:12:40:882;11:12:40:880;-0.05746084;10.208876;-1.6089035
10:12:40:890;11:12:40:880;-0.05746084;10.208876;-1.6089035
10:12:40:898;11:12:40:880;-0.05746084;10.208876;-1.6089035
10:12:40:906;11:12:40:880;-0.05746084;10.208876;-1.6089035
10:12:40:914;11:12:40:880;-0.05746084;10.208876;-1.6089035
10:12:40:921;11:12:40:880;-0.05746084;10.208876;-1.6089035
10:12:40:929;11:12:40:880;-0.05746084;10.208876;-1.6089035
10:12:40:937;11:12:40:880;-0.05746084;10.208876;-1.6089035
10:12:40:945;11:12:40:880;-0.05746084;10.208876;-1.6089035
10:12:40:953;11:12:40:880;-0.05746084;10.208876;-1.6089035
10:12:40:960;11:12:40:880;-0.05746084;10.208876;-1.6089035
10:12:40:968;11:12:40:880;-0.05746084;10.208876;-1.6089035
10:12:40:976;11:12:40:880;-0.05746084;10.208876;-1.6089035
10:12:40:984;11:12:40:880;-0.05746084;10.208876;-1.6089035
10:12:40:992;11:12:40:880;-0.05746084;10.208876;-1.6089035
10:12:41:000;11:12:40:997;0.19153613;10.323798;-1.1109096
10:12:41:007;11:12:40:997;0.19153613;10.323798;-1.1109096
10:12:41:015;11:12:40:997;0.19153613;10.323798;-1.1109096
10:12:41:023;11:12:40:997;0.19153613;10.323798;-1.1109096
10:12:41:031;11:12:40:997;0.19153613;10.323798;-1.1109096
10:12:41:039;11:12:40:997;0.19153613;10.323798;-1.1109096
10:12:41:046;11:12:40:997;0.19153613;10.323798;-1.1109096
10:12:41:054;11:12:40:997;0.19153613;10.323798;-1.1109096
10:12:41:062;11:12:40:997;0.19153613;10.323798;-1.1109096
10:12:41:070;11:12:40:997;0.19153613;10.323798;-1.1109096
10:12:41:078;11:12:40:997;0.19153613;10.323798;-1.1109096
10:12:41:085;11:12:40:997;0.19153613;10.323798;-1.1109096
10:12:41:093;11:12:40:997;0.19153613;10.323798;-1.1109096
10:12:41:101;11:12:40:997;0.19153613;10.323798;-1.1109096
10:12:41:109;11:12:40:997;0.19153613;10.323798;-1.1109096
10:12:41:117;11:12:41:116;-0.19153613;10.170568;-0.7278373
10:12:41:125;11:12:41:116;-0.19153613;10.170568;-0.7278373
10:12:41:132;11:12:41:116;-0.19153613;10.170568;-0.7278373
10:12:41:140;11:12:41:116;-0.19153613;10.170568;-0.7278373
10:12:41:148;11:12:41:116;-0.19153613;10.170568;-0.7278373
10:12:41:156;11:12:41:116;-0.19153613;10.170568;-0.7278373
10:12:41:164;11:12:41:116;-0.19153613;10.170568;-0.7278373
10:12:41:171;11:12:41:116;-0.19153613;10.170568;-0.7278373
10:12:41:179;11:12:41:116;-0.19153613;10.170568;-0.7278373
10:12:41:187;11:12:41:116;-0.19153613;10.170568;-0.7278373
10:12:41:195;11:12:41:116;-0.19153613;10.170568;-0.7278373
10:12:41:203;11:12:41:116;-0.19153613;10.170568;-0.7278373
10:12:41:210;11:12:41:116;-0.19153613;10.170568;-0.7278373
10:12:41:218;11:12:41:218;-0.51714754;10.01734;-0.7661445
10:12:41:226;11:12:41:218;-0.51714754;10.01734;-0.7661445
10:12:41:234;11:12:41:218;-0.51714754;10.01734;-0.7661445
10:12:41:242;11:12:41:218;-0.51714754;10.01734;-0.7661445
10:12:41:250;11:12:41:218;-0.51714754;10.01734;-0.7661445
10:12:41:257;11:12:41:218;-0.51714754;10.01734;-0.7661445
10:12:41:265;11:12:41:218;-0.51714754;10.01734;-0.7661445
10:12:41:273;11:12:41:218;-0.51714754;10.01734;-0.7661445
10:12:41:281;11:12:41:218;-0.51714754;10.01734;-0.7661445
10:12:41:289;11:12:41:218;-0.51714754;10.01734;-0.7661445
10:12:41:296;11:12:41:218;-0.51714754;10.01734;-0.7661445
10:12:41:304;11:12:41:218;-0.51714754;10.01734;-0.7661445
10:12:41:312;11:12:41:218;-0.51714754;10.01734;-0.7661445
10:12:41:320;11:12:41:218;-0.51714754;10.01734;-0.7661445
10:12:41:328;11:12:41:324;-0.19153613;9.404425;-0.38307226
10:12:41:335;11:12:41:324;-0.19153613;9.404425;-0.38307226
10:12:41:343;11:12:41:324;-0.19153613;9.404425;-0.38307226
10:12:41:351;11:12:41:324;-0.19153613;9.404425;-0.38307226
10:12:41:359;11:12:41:324;-0.19153613;9.404425;-0.38307226
10:12:41:367;11:12:41:324;-0.19153613;9.404425;-0.38307226
10:12:41:375;11:12:41:324;-0.19153613;9.404425;-0.38307226
10:12:41:382;11:12:41:324;-0.19153613;9.404425;-0.38307226
10:12:41:390;11:12:41:324;-0.19153613;9.404425;-0.38307226
10:12:41:398;11:12:41:324;-0.19153613;9.404425;-0.38307226
10:12:41:406;11:12:41:324;-0.19153613;9.404425;-0.38307226
10:12:41:414;11:12:41:324;-0.19153613;9.404425;-0.38307226
10:12:41:421;11:12:41:324;-0.19153613;9.404425;-0.38307226
10:12:41:429;11:12:41:425;0.17238252;9.749189;-0.78529817
10:12:41:437;11:12:41:425;0.17238252;9.749189;-0.78529817
10:12:41:445;11:12:41:425;0.17238252;9.749189;-0.78529817
10:12:41:453;11:12:41:425;0.17238252;9.749189;-0.78529817
10:12:41:460;11:12:41:425;0.17238252;9.749189;-0.78529817
10:12:41:468;11:12:41:425;0.17238252;9.749189;-0.78529817
10:12:41:476;11:12:41:425;0.17238252;9.749189;-0.78529817
10:12:41:484;11:12:41:425;0.17238252;9.749189;-0.78529817
10:12:41:492;11:12:41:425;0.17238252;9.749189;-0.78529817
10:12:41:500;11:12:41:425;0.17238252;9.749189;-0.78529817
10:12:41:507;11:12:41:425;0.17238252;9.749189;-0.78529817
10:12:41:515;11:12:41:425;0.17238252;9.749189;-0.78529817
10:12:41:523;11:12:41:425;0.17238252;9.749189;-0.78529817
10:12:41:531;11:12:41:425;0.17238252;9.749189;-0.78529817
10:12:41:539;11:12:41:425;0.17238252;9.749189;-0.78529817
10:12:41:546;11:12:41:541;0.22984336;10.01734;-1.0342951
10:12:41:554;11:12:41:541;0.22984336;10.01734;-1.0342951
10:12:41:562;11:12:41:541;0.22984336;10.01734;-1.0342951
10:12:41:570;11:12:41:541;0.22984336;10.01734;-1.0342951
10:12:41:578;11:12:41:541;0.22984336;10.01734;-1.0342951
10:12:41:585;11:12:41:541;0.22984336;10.01734;-1.0342951
10:12:41:593;11:12:41:541;0.22984336;10.01734;-1.0342951
10:12:41:601;11:12:41:541;0.22984336;10.01734;-1.0342951
10:12:41:609;11:12:41:541;0.22984336;10.01734;-1.0342951
10:12:41:617;11:12:41:541;0.22984336;10.01734;-1.0342951
10:12:41:625;11:12:41:541;0.22984336;10.01734;-1.0342951
10:12:41:632;11:12:41:541;0.22984336;10.01734;-1.0342951
10:12:41:640;11:12:41:541;0.22984336;10.01734;-1.0342951
10:12:41:648;11:12:41:647;0.40222588;10.0748005;-1.2641385
10:12:41:656;11:12:41:647;0.40222588;10.0748005;-1.2641385
10:12:41:664;11:12:41:647;0.40222588;10.0748005;-1.2641385
10:12:41:671;11:12:41:647;0.40222588;10.0748005;-1.2641385
10:12:41:679;11:12:41:647;0.40222588;10.0748005;-1.2641385
10:12:41:687;11:12:41:647;0.40222588;10.0748005;-1.2641385
10:12:41:695;11:12:41:647;0.40222588;10.0748005;-1.2641385
10:12:41:703;11:12:41:647;0.40222588;10.0748005;-1.2641385
10:12:41:710;11:12:41:647;0.40222588;10.0748005;-1.2641385
10:12:41:718;11:12:41:647;0.40222588;10.0748005;-1.2641385
10:12:41:726;11:12:41:647;0.40222588;10.0748005;-1.2641385
10:12:41:734;11:12:41:647;0.40222588;10.0748005;-1.2641385
10:12:41:742;11:12:41:647;0.40222588;10.0748005;-1.2641385
10:12:41:750;11:12:41:647;0.40222588;10.0748005;-1.2641385
10:12:41:757;11:12:41:753;-0.2873042;10.323798;-1.0342951
10:12:41:765;11:12:41:753;-0.2873042;10.323798;-1.0342951
10:12:41:773;11:12:41:753;-0.2873042;10.323798;-1.0342951
10:12:41:781;11:12:41:753;-0.2873042;10.323798;-1.0342951
10:12:41:789;11:12:41:753;-0.2873042;10.323798;-1.0342951
10:12:41:796;11:12:41:753;-0.2873042;10.323798;-1.0342951
10:12:41:804;11:12:41:753;-0.2873042;10.323798;-1.0342951
10:12:41:812;11:12:41:753;-0.2873042;10.323798;-1.0342951
10:12:41:820;11:12:41:753;-0.2873042;10.323798;-1.0342951
10:12:41:828;11:12:41:753;-0.2873042;10.323798;-1.0342951
10:12:41:835;11:12:41:753;-0.2873042;10.323798;-1.0342951
10:12:41:843;11:12:41:753;-0.2873042;10.323798;-1.0342951
10:12:41:851;11:12:41:753;-0.2873042;10.323798;-1.0342951
10:12:41:859;11:12:41:753;-0.2873042;10.323798;-1.0342951
10:12:41:867;11:12:41:753;-0.2873042;10.323798;-1.0342951
10:12:41:875;11:12:41:870;-0.15322891;10.247183;-1.2066777
10:12:41:882;11:12:41:870;-0.15322891;10.247183;-1.2066777
10:12:41:890;11:12:41:870;-0.15322891;10.247183;-1.2066777
10:12:41:898;11:12:41:870;-0.15322891;10.247183;-1.2066777
10:12:41:906;11:12:41:870;-0.15322891;10.247183;-1.2066777
10:12:41:914;11:12:41:870;-0.15322891;10.247183;-1.2066777
10:12:41:921;11:12:41:870;-0.15322891;10.247183;-1.2066777
10:12:41:929;11:12:41:870;-0.15322891;10.247183;-1.2066777
10:12:41:937;11:12:41:870;-0.15322891;10.247183;-1.2066777
10:12:41:945;11:12:41:870;-0.15322891;10.247183;-1.2066777
10:12:41:953;11:12:41:870;-0.15322891;10.247183;-1.2066777
10:12:41:960;11:12:41:870;-0.15322891;10.247183;-1.2066777
10:12:41:968;11:12:41:870;-0.15322891;10.247183;-1.2066777
10:12:41:976;11:12:41:971;0.038307227;9.998186;-1.3790601
10:12:41:984;11:12:41:971;0.038307227;9.998186;-1.3790601
10:12:41:992;11:12:41:971;0.038307227;9.998186;-1.3790601
10:12:42:000;11:12:41:971;0.038307227;9.998186;-1.3790601
10:12:42:007;11:12:41:971;0.038307227;9.998186;-1.3790601
10:12:42:015;11:12:41:971;0.038307227;9.998186;-1.3790601
10:12:42:023;11:12:41:971;0.038307227;9.998186;-1.3790601
10:12:42:031;11:12:41:971;0.038307227;9.998186;-1.3790601
10:12:42:039;11:12:41:971;0.038307227;9.998186;-1.3790601
10:12:42:046;11:12:41:971;0.038307227;9.998186;-1.3790601
10:12:42:054;11:12:41:971;0.038307227;9.998186;-1.3790601
10:12:42:062;11:12:41:971;0.038307227;9.998186;-1.3790601
10:12:42:070;11:12:41:971;0.038307227;9.998186;-1.3790601
10:12:42:078;11:12:41:971;0.038307227;9.998186;-1.3790601
10:12:42:085;11:12:42:085;0.36391866;9.787497;-0.9768343
10:12:42:093;11:12:42:085;0.36391866;9.787497;-0.9768343
10:12:42:101;11:12:42:085;0.36391866;9.787497;-0.9768343
10:12:42:109;11:12:42:085;0.36391866;9.787497;-0.9768343
10:12:42:117;11:12:42:085;0.36391866;9.787497;-0.9768343
10:12:42:125;11:12:42:085;0.36391866;9.787497;-0.9768343
10:12:42:132;11:12:42:085;0.36391866;9.787497;-0.9768343
10:12:42:140;11:12:42:085;0.36391866;9.787497;-0.9768343
10:12:42:148;11:12:42:085;0.36391866;9.787497;-0.9768343
10:12:42:156;11:12:42:085;0.36391866;9.787497;-0.9768343
10:12:42:164;11:12:42:085;0.36391866;9.787497;-0.9768343
10:12:42:171;11:12:42:085;0.36391866;9.787497;-0.9768343
10:12:42:179;11:12:42:085;0.36391866;9.787497;-0.9768343
10:12:42:187;11:12:42:085;0.36391866;9.787497;-0.9768343
10:12:42:195;11:12:42:194;0.51714754;9.768343;-1.1683705
10:12:42:203;11:12:42:194;0.51714754;9.768343;-1.1683705
10:12:42:210;11:12:42:194;0.51714754;9.768343;-1.1683705
10:12:42:218;11:12:42:194;0.51714754;9.768343;-1.1683705
10:12:42:226;11:12:42:194;0.51714754;9.768343;-1.1683705
10:12:42:234;11:12:42:194;0.51714754;9.768343;-1.1683705
10:12:42:242;11:12:42:194;0.51714754;9.768343;-1.1683705
10:12:42:250;11:12:42:194;0.51714754;9.768343;-1.1683705
10:12:42:257;11:12:42:194;0.51714754;9.768343;-1.1683705
10:12:42:265;11:12:42:194;0.51714754;9.768343;-1.1683705
10:12:42:273;11:12:42:194;0.51714754;9.768343;-1.1683705
10:12:42:281;11:12:42:194;0.51714754;9.768343;-1.1683705
10:12:42:289;11:12:42:194;0.51714754;9.768343;-1.1683705
10:12:42:296;11:12:42:194;0.51714754;9.768343;-1.1683705
10:12:42:304;11:12:42:300;0.21068975;9.959879;-1.3024458
10:12:42:312;11:12:42:300;0.21068975;9.959879;-1.3024458
10:12:42:320;11:12:42:300;0.21068975;9.959879;-1.3024458
10:12:42:328;11:12:42:300;0.21068975;9.959879;-1.3024458
10:12:42:335;11:12:42:300;0.21068975;9.959879;-1.3024458
10:12:42:343;11:12:42:300;0.21068975;9.959879;-1.3024458
10:12:42:351;11:12:42:300;0.21068975;9.959879;-1.3024458
10:12:42:359;11:12:42:300;0.21068975;9.959879;-1.3024458
10:12:42:367;11:12:42:300;0.21068975;9.959879;-1.3024458
10:12:42:375;11:12:42:300;0.21068975;9.959879;-1.3024458
10:12:42:382;11:12:42:300;0.21068975;9.959879;-1.3024458
10:12:42:390;11:12:42:300;0.21068975;9.959879;-1.3024458
10:12:42:398;11:12:42:300;0.21068975;9.959879;-1.3024458
10:12:42:406;11:12:42:300;0.21068975;9.959879;-1.3024458
10:12:42:414;11:12:42:300;0.21068975;9.959879;-1.3024458
10:12:42:421;11:12:42:420;-0.36391866;10.0748005;-1.2258313
10:12:42:429;11:12:42:420;-0.36391866;10.0748005;-1.2258313
10:12:42:437;11:12:42:420;-0.36391866;10.0748005;-1.2258313
10:12:42:445;11:12:42:420;-0.36391866;10.0748005;-1.2258313
10:12:42:453;11:12:42:420;-0.36391866;10.0748005;-1.2258313
10:12:42:460;11:12:42:420;-0.36391866;10.0748005;-1.2258313
10:12:42:468;11:12:42:420;-0.36391866;10.0748005;-1.2258313
10:12:42:476;11:12:42:420;-0.36391866;10.0748005;-1.2258313
10:12:42:484;11:12:42:420;-0.36391866;10.0748005;-1.2258313
10:12:42:492;11:12:42:420;-0.36391866;10.0748005;-1.2258313
10:12:42:500;11:12:42:420;-0.36391866;10.0748005;-1.2258313
10:12:42:507;11:12:42:420;-0.36391866;10.0748005;-1.2258313
10:12:42:515;11:12:42:420;-0.36391866;10.0748005;-1.2258313
10:12:42:523;11:12:42:522;0.2873042;9.9790325;-1.1492168
10:12:42:531;11:12:42:522;0.2873042;9.9790325;-1.1492168
10:12:42:539;11:12:42:522;0.2873042;9.9790325;-1.1492168
10:12:42:546;11:12:42:522;0.2873042;9.9790325;-1.1492168
10:12:42:554;11:12:42:522;0.2873042;9.9790325;-1.1492168
10:12:42:562;11:12:42:522;0.2873042;9.9790325;-1.1492168
10:12:42:570;11:12:42:522;0.2873042;9.9790325;-1.1492168
10:12:42:578;11:12:42:522;0.2873042;9.9790325;-1.1492168
10:12:42:585;11:12:42:522;0.2873042;9.9790325;-1.1492168
10:12:42:593;11:12:42:522;0.2873042;9.9790325;-1.1492168
10:12:42:601;11:12:42:522;0.2873042;9.9790325;-1.1492168
10:12:42:609;11:12:42:522;0.2873042;9.9790325;-1.1492168
10:12:42:617;11:12:42:522;0.2873042;9.9790325;-1.1492168
10:12:42:625;11:12:42:522;0.2873042;9.9790325;-1.1492168
10:12:42:632;11:12:42:522;0.2873042;9.9790325;-1.1492168
10:12:42:640;11:12:42:633;0.34476504;9.921572;-0.47884035
10:12:42:648;11:12:42:633;0.34476504;9.921572;-0.47884035
10:12:42:656;11:12:42:633;0.34476504;9.921572;-0.47884035
10:12:42:664;11:12:42:633;0.34476504;9.921572;-0.47884035
10:12:42:671;11:12:42:633;0.34476504;9.921572;-0.47884035
10:12:42:679;11:12:42:633;0.34476504;9.921572;-0.47884035
10:12:42:687;11:12:42:633;0.34476504;9.921572;-0.47884035
10:12:42:695;11:12:42:633;0.34476504;9.921572;-0.47884035
10:12:42:703;11:12:42:633;0.34476504;9.921572;-0.47884035
10:12:42:710;11:12:42:633;0.34476504;9.921572;-0.47884035
10:12:42:718;11:12:42:633;0.34476504;9.921572;-0.47884035
10:12:42:726;11:12:42:633;0.34476504;9.921572;-0.47884035
10:12:42:734;11:12:42:633;0.34476504;9.921572;-0.47884035
10:12:42:742;11:12:42:735;0.2681506;10.0748005;-0.49799395
10:12:42:750;11:12:42:735;0.2681506;10.0748005;-0.49799395
10:12:42:757;11:12:42:735;0.2681506;10.0748005;-0.49799395
10:12:42:765;11:12:42:735;0.2681506;10.0748005;-0.49799395
10:12:42:773;11:12:42:735;0.2681506;10.0748005;-0.49799395
10:12:42:781;11:12:42:735;0.2681506;10.0748005;-0.49799395
10:12:42:789;11:12:42:735;0.2681506;10.0748005;-0.49799395
10:12:42:796;11:12:42:735;0.2681506;10.0748005;-0.49799395
10:12:42:804;11:12:42:735;0.2681506;10.0748005;-0.49799395
10:12:42:812;11:12:42:735;0.2681506;10.0748005;-0.49799395
10:12:42:820;11:12:42:735;0.2681506;10.0748005;-0.49799395
10:12:42:828;11:12:42:735;0.2681506;10.0748005;-0.49799395
10:12:42:835;11:12:42:735;0.2681506;10.0748005;-0.49799395
10:12:42:843;11:12:42:735;0.2681506;10.0748005;-0.49799395
10:12:42:851;11:12:42:735;0.2681506;10.0748005;-0.49799395
10:12:42:859;11:12:42:859;-0.22984336;10.477027;-1.4173675
10:12:42:867;11:12:42:859;-0.22984336;10.477027;-1.4173675
10:12:42:875;11:12:42:859;-0.22984336;10.477027;-1.4173675
10:12:42:882;11:12:42:859;-0.22984336;10.477027;-1.4173675
10:12:42:890;11:12:42:859;-0.22984336;10.477027;-1.4173675
10:12:42:898;11:12:42:859;-0.22984336;10.477027;-1.4173675
10:12:42:906;11:12:42:859;-0.22984336;10.477027;-1.4173675
10:12:42:914;11:12:42:859;-0.22984336;10.477027;-1.4173675
10:12:42:921;11:12:42:859;-0.22984336;10.477027;-1.4173675
10:12:42:929;11:12:42:859;-0.22984336;10.477027;-1.4173675
10:12:42:937;11:12:42:859;-0.22984336;10.477027;-1.4173675
10:12:42:945;11:12:42:859;-0.22984336;10.477027;-1.4173675
10:12:42:953;11:12:42:859;-0.22984336;10.477027;-1.4173675
10:12:42:960;11:12:42:859;-0.22984336;10.477027;-1.4173675
10:12:42:968;11:12:42:859;-0.22984336;10.477027;-1.4173675
10:12:42:976;11:12:42:975;0.1340753;9.80665;-0.34476504
10:12:42:984;11:12:42:975;0.1340753;9.80665;-0.34476504
10:12:42:992;11:12:42:975;0.1340753;9.80665;-0.34476504
10:12:43:000;11:12:42:975;0.1340753;9.80665;-0.34476504
10:12:43:007;11:12:42:975;0.1340753;9.80665;-0.34476504
10:12:43:015;11:12:42:975;0.1340753;9.80665;-0.34476504
10:12:43:023;11:12:42:975;0.1340753;9.80665;-0.34476504
10:12:43:031;11:12:42:975;0.1340753;9.80665;-0.34476504
10:12:43:039;11:12:42:975;0.1340753;9.80665;-0.34476504
10:12:43:046;11:12:42:975;0.1340753;9.80665;-0.34476504
10:12:43:054;11:12:42:975;0.1340753;9.80665;-0.34476504
10:12:43:062;11:12:42:975;0.1340753;9.80665;-0.34476504
10:12:43:070;11:12:42:975;0.1340753;9.80665;-0.34476504
10:12:43:078;11:12:42:975;0.1340753;9.80665;-0.34476504
10:12:43:085;11:12:42:975;0.1340753;9.80665;-0.34476504
10:12:43:093;11:12:42:975;0.1340753;9.80665;-0.34476504
10:12:43:101;11:12:43:095;0.5363012;10.132261;-0.05746084
10:12:43:109;11:12:43:095;0.5363012;10.132261;-0.05746084
10:12:43:117;11:12:43:095;0.5363012;10.132261;-0.05746084
10:12:43:125;11:12:43:095;0.5363012;10.132261;-0.05746084
10:12:43:132;11:12:43:095;0.5363012;10.132261;-0.05746084
10:12:43:140;11:12:43:095;0.5363012;10.132261;-0.05746084
10:12:43:148;11:12:43:095;0.5363012;10.132261;-0.05746084
10:12:43:156;11:12:43:095;0.5363012;10.132261;-0.05746084
10:12:43:164;11:12:43:095;0.5363012;10.132261;-0.05746084
10:12:43:171;11:12:43:095;0.5363012;10.132261;-0.05746084
10:12:43:179;11:12:43:095;0.5363012;10.132261;-0.05746084
10:12:43:187;11:12:43:095;0.5363012;10.132261;-0.05746084
10:12:43:195;11:12:43:095;0.5363012;10.132261;-0.05746084
10:12:43:203;11:12:43:095;0.5363012;10.132261;-0.05746084
10:12:43:210;11:12:43:210;0.22984336;9.787497;-0.21068975
10:12:43:218;11:12:43:210;0.22984336;9.787497;-0.21068975
10:12:43:226;11:12:43:210;0.22984336;9.787497;-0.21068975
10:12:43:234;11:12:43:210;0.22984336;9.787497;-0.21068975
10:12:43:242;11:12:43:210;0.22984336;9.787497;-0.21068975
10:12:43:250;11:12:43:210;0.22984336;9.787497;-0.21068975
10:12:43:257;11:12:43:210;0.22984336;9.787497;-0.21068975
10:12:43:265;11:12:43:210;0.22984336;9.787497;-0.21068975
10:12:43:273;11:12:43:210;0.22984336;9.787497;-0.21068975
10:12:43:281;11:12:43:210;0.22984336;9.787497;-0.21068975
10:12:43:289;11:12:43:210;0.22984336;9.787497;-0.21068975
10:12:43:296;11:12:43:210;0.22984336;9.787497;-0.21068975
10:12:43:304;11:12:43:210;0.22984336;9.787497;-0.21068975
10:12:43:312;11:12:43:210;0.22984336;9.787497;-0.21068975
10:12:43:320;11:12:43:313;0.5363012;9.3661175;0.842759
10:12:43:328;11:12:43:313;0.5363012;9.3661175;0.842759
10:12:43:335;11:12:43:313;0.5363012;9.3661175;0.842759
10:12:43:343;11:12:43:313;0.5363012;9.3661175;0.842759
10:12:43:351;11:12:43:313;0.5363012;9.3661175;0.842759
10:12:43:359;11:12:43:313;0.5363012;9.3661175;0.842759
10:12:43:367;11:12:43:313;0.5363012;9.3661175;0.842759
10:12:43:375;11:12:43:313;0.5363012;9.3661175;0.842759
10:12:43:382;11:12:43:313;0.5363012;9.3661175;0.842759
10:12:43:390;11:12:43:313;0.5363012;9.3661175;0.842759
10:12:43:398;11:12:43:313;0.5363012;9.3661175;0.842759
10:12:43:406;11:12:43:313;0.5363012;9.3661175;0.842759
10:12:43:414;11:12:43:313;0.5363012;9.3661175;0.842759
10:12:43:421;11:12:43:313;0.5363012;9.3661175;0.842759
10:12:43:429;11:12:43:313;0.5363012;9.3661175;0.842759
10:12:43:437;11:12:43:431;0.21068975;10.362105;0.49799395
10:12:43:445;11:12:43:431;0.21068975;10.362105;0.49799395
10:12:43:453;11:12:43:431;0.21068975;10.362105;0.49799395
10:12:43:460;11:12:43:431;0.21068975;10.362105;0.49799395
10:12:43:468;11:12:43:431;0.21068975;10.362105;0.49799395
10:12:43:476;11:12:43:431;0.21068975;10.362105;0.49799395
10:12:43:484;11:12:43:431;0.21068975;10.362105;0.49799395
10:12:43:492;11:12:43:431;0.21068975;10.362105;0.49799395
10:12:43:500;11:12:43:431;0.21068975;10.362105;0.49799395
10:12:43:507;11:12:43:431;0.21068975;10.362105;0.49799395
10:12:43:515;11:12:43:431;0.21068975;10.362105;0.49799395
10:12:43:523;11:12:43:431;0.21068975;10.362105;0.49799395
10:12:43:531;11:12:43:431;0.21068975;10.362105;0.49799395
10:12:43:539;11:12:43:431;0.21068975;10.362105;0.49799395
10:12:43:546;11:12:43:431;0.21068975;10.362105;0.49799395
10:12:43:554;11:12:43:548;0.17238252;10.400413;0.61291564
10:12:43:562;11:12:43:548;0.17238252;10.400413;0.61291564
10:12:43:570;11:12:43:548;0.17238252;10.400413;0.61291564
10:12:43:578;11:12:43:548;0.17238252;10.400413;0.61291564
10:12:43:585;11:12:43:548;0.17238252;10.400413;0.61291564
10:12:43:593;11:12:43:548;0.17238252;10.400413;0.61291564
10:12:43:601;11:12:43:548;0.17238252;10.400413;0.61291564
10:12:43:609;11:12:43:548;0.17238252;10.400413;0.61291564
10:12:43:617;11:12:43:548;0.17238252;10.400413;0.61291564
10:12:43:625;11:12:43:548;0.17238252;10.400413;0.61291564
10:12:43:632;11:12:43:548;0.17238252;10.400413;0.61291564
10:12:43:640;11:12:43:548;0.17238252;10.400413;0.61291564
10:12:43:648;11:12:43:548;0.17238252;10.400413;0.61291564
10:12:43:656;11:12:43:653;-0.05746084;9.595961;0.90021986
10:12:43:664;11:12:43:653;-0.05746084;9.595961;0.90021986
10:12:43:671;11:12:43:653;-0.05746084;9.595961;0.90021986
10:12:43:679;11:12:43:653;-0.05746084;9.595961;0.90021986
10:12:43:687;11:12:43:653;-0.05746084;9.595961;0.90021986
10:12:43:695;11:12:43:653;-0.05746084;9.595961;0.90021986
10:12:43:703;11:12:43:653;-0.05746084;9.595961;0.90021986
10:12:43:710;11:12:43:653;-0.05746084;9.595961;0.90021986
10:12:43:718;11:12:43:653;-0.05746084;9.595961;0.90021986
10:12:43:726;11:12:43:653;-0.05746084;9.595961;0.90021986
10:12:43:734;11:12:43:653;-0.05746084;9.595961;0.90021986
10:12:43:742;11:12:43:653;-0.05746084;9.595961;0.90021986
10:12:43:750;11:12:43:653;-0.05746084;9.595961;0.90021986
10:12:43:757;11:12:43:653;-0.05746084;9.595961;0.90021986
10:12:43:765;11:12:43:653;-0.05746084;9.595961;0.90021986
10:12:43:773;11:12:43:773;0.7661445;9.615114;0.61291564
10:12:43:781;11:12:43:773;0.7661445;9.615114;0.61291564
10:12:43:789;11:12:43:773;0.7661445;9.615114;0.61291564
10:12:43:796;11:12:43:773;0.7661445;9.615114;0.61291564
10:12:43:804;11:12:43:773;0.7661445;9.615114;0.61291564
10:12:43:812;11:12:43:773;0.7661445;9.615114;0.61291564
10:12:43:820;11:12:43:773;0.7661445;9.615114;0.61291564
10:12:43:828;11:12:43:773;0.7661445;9.615114;0.61291564
10:12:43:835;11:12:43:773;0.7661445;9.615114;0.61291564
10:12:43:843;11:12:43:773;0.7661445;9.615114;0.61291564
10:12:43:851;11:12:43:773;0.7661445;9.615114;0.61291564
10:12:43:859;11:12:43:773;0.7661445;9.615114;0.61291564
10:12:43:867;11:12:43:773;0.7661445;9.615114;0.61291564
10:12:43:875;11:12:43:773;0.7661445;9.615114;0.61291564
10:12:43:882;11:12:43:773;0.7661445;9.615114;0.61291564
10:12:43:890;11:12:43:773;0.7661445;9.615114;0.61291564
10:12:43:898;11:12:43:773;0.7661445;9.615114;0.61291564
10:12:43:906;11:12:43:773;0.7661445;9.615114;0.61291564
10:12:43:914;11:12:43:908;0.2873042;10.151415;0.61291564
10:12:43:921;11:12:43:908;0.2873042;10.151415;0.61291564
10:12:43:929;11:12:43:908;0.2873042;10.151415;0.61291564
10:12:43:937;11:12:43:908;0.2873042;10.151415;0.61291564
10:12:43:945;11:12:43:908;0.2873042;10.151415;0.61291564
10:12:43:953;11:12:43:908;0.2873042;10.151415;0.61291564
10:12:43:960;11:12:43:908;0.2873042;10.151415;0.61291564
10:12:43:968;11:12:43:908;0.2873042;10.151415;0.61291564
10:12:43:976;11:12:43:908;0.2873042;10.151415;0.61291564
10:12:43:984;11:12:43:908;0.2873042;10.151415;0.61291564
10:12:43:992;11:12:43:908;0.2873042;10.151415;0.61291564
10:12:44:000;11:12:43:908;0.2873042;10.151415;0.61291564
10:12:44:007;11:12:43:908;0.2873042;10.151415;0.61291564
10:12:44:015;11:12:44:015;0.30645782;10.151415;0.91937345
10:12:44:023;11:12:44:015;0.30645782;10.151415;0.91937345
10:12:44:031;11:12:44:015;0.30645782;10.151415;0.91937345
10:12:44:039;11:12:44:015;0.30645782;10.151415;0.91937345
10:12:44:046;11:12:44:015;0.30645782;10.151415;0.91937345
10:12:44:054;11:12:44:015;0.30645782;10.151415;0.91937345
10:12:44:062;11:12:44:015;0.30645782;10.151415;0.91937345
10:12:44:070;11:12:44:015;0.30645782;10.151415;0.91937345
10:12:44:078;11:12:44:015;0.30645782;10.151415;0.91937345
10:12:44:085;11:12:44:015;0.30645782;10.151415;0.91937345
10:12:44:093;11:12:44:015;0.30645782;10.151415;0.91937345
10:12:44:101;11:12:44:015;0.30645782;10.151415;0.91937345
10:12:44:109;11:12:44:015;0.30645782;10.151415;0.91937345
10:12:44:117;11:12:44:015;0.30645782;10.151415;0.91937345
10:12:44:125;11:12:44:118;0.2681506;10.208876;0.8619126
10:12:44:132;11:12:44:118;0.2681506;10.208876;0.8619126
10:12:44:140;11:12:44:118;0.2681506;10.208876;0.8619126
10:12:44:148;11:12:44:118;0.2681506;10.208876;0.8619126
10:12:44:156;11:12:44:118;0.2681506;10.208876;0.8619126
10:12:44:164;11:12:44:118;0.2681506;10.208876;0.8619126
10:12:44:171;11:12:44:118;0.2681506;10.208876;0.8619126
10:12:44:179;11:12:44:118;0.2681506;10.208876;0.8619126
10:12:44:187;11:12:44:118;0.2681506;10.208876;0.8619126
10:12:44:195;11:12:44:118;0.2681506;10.208876;0.8619126
10:12:44:203;11:12:44:118;0.2681506;10.208876;0.8619126
10:12:44:210;11:12:44:118;0.2681506;10.208876;0.8619126
10:12:44:218;11:12:44:118;0.2681506;10.208876;0.8619126
10:12:44:226;11:12:44:118;0.2681506;10.208876;0.8619126
10:12:44:234;11:12:44:118;0.2681506;10.208876;0.8619126
10:12:44:242;11:12:44:118;0.2681506;10.208876;0.8619126
10:12:44:250;11:12:44:118;0.2681506;10.208876;0.8619126
10:12:44:257;11:12:44:118;0.2681506;10.208876;0.8619126
10:12:44:265;11:12:44:262;0.45968673;9.710882;1.3599066
10:12:44:273;11:12:44:262;0.45968673;9.710882;1.3599066
10:12:44:281;11:12:44:262;0.45968673;9.710882;1.3599066
10:12:44:289;11:12:44:262;0.45968673;9.710882;1.3599066
10:12:44:296;11:12:44:262;0.45968673;9.710882;1.3599066
10:12:44:304;11:12:44:262;0.45968673;9.710882;1.3599066
10:12:44:312;11:12:44:262;0.45968673;9.710882;1.3599066
10:12:44:320;11:12:44:262;0.45968673;9.710882;1.3599066
10:12:44:328;11:12:44:262;0.45968673;9.710882;1.3599066
10:12:44:335;11:12:44:262;0.45968673;9.710882;1.3599066
10:12:44:343;11:12:44:262;0.45968673;9.710882;1.3599066
10:12:44:351;11:12:44:262;0.45968673;9.710882;1.3599066
10:12:44:359;11:12:44:262;0.45968673;9.710882;1.3599066
10:12:44:367;11:12:44:367;0.11492168;9.557653;2.7581203
10:12:44:375;11:12:44:367;0.11492168;9.557653;2.7581203
10:12:44:382;11:12:44:367;0.11492168;9.557653;2.7581203
10:12:44:390;11:12:44:367;0.11492168;9.557653;2.7581203
10:12:44:398;11:12:44:367;0.11492168;9.557653;2.7581203
10:12:44:406;11:12:44:367;0.11492168;9.557653;2.7581203
10:12:44:414;11:12:44:367;0.11492168;9.557653;2.7581203
10:12:44:421;11:12:44:367;0.11492168;9.557653;2.7581203
10:12:44:429;11:12:44:367;0.11492168;9.557653;2.7581203
10:12:44:437;11:12:44:367;0.11492168;9.557653;2.7581203
10:12:44:445;11:12:44:367;0.11492168;9.557653;2.7581203
10:12:44:453;11:12:44:367;0.11492168;9.557653;2.7581203
10:12:44:460;11:12:44:367;0.11492168;9.557653;2.7581203
10:12:44:468;11:12:44:468;0.7086837;9.270349;2.336741
10:12:44:476;11:12:44:468;0.7086837;9.270349;2.336741
10:12:44:484;11:12:44:468;0.7086837;9.270349;2.336741
10:12:44:492;11:12:44:468;0.7086837;9.270349;2.336741
10:12:44:500;11:12:44:468;0.7086837;9.270349;2.336741
10:12:44:507;11:12:44:468;0.7086837;9.270349;2.336741
10:12:44:515;11:12:44:468;0.7086837;9.270349;2.336741
10:12:44:523;11:12:44:468;0.7086837;9.270349;2.336741
10:12:44:531;11:12:44:468;0.7086837;9.270349;2.336741
10:12:44:539;11:12:44:468;0.7086837;9.270349;2.336741
10:12:44:546;11:12:44:468;0.7086837;9.270349;2.336741
10:12:44:554;11:12:44:468;0.7086837;9.270349;2.336741
10:12:44:562;11:12:44:468;0.7086837;9.270349;2.336741
10:12:44:570;11:12:44:468;0.7086837;9.270349;2.336741
10:12:44:578;11:12:44:468;0.7086837;9.270349;2.336741
10:12:44:585;11:12:44:468;0.7086837;9.270349;2.336741
10:12:44:593;11:12:44:587;0.51714754;9.844957;2.0494366
10:12:44:601;11:12:44:587;0.51714754;9.844957;2.0494366
10:12:44:609;11:12:44:587;0.51714754;9.844957;2.0494366
10:12:44:617;11:12:44:587;0.51714754;9.844957;2.0494366
10:12:44:625;11:12:44:587;0.51714754;9.844957;2.0494366
10:12:44:632;11:12:44:587;0.51714754;9.844957;2.0494366
10:12:44:640;11:12:44:587;0.51714754;9.844957;2.0494366
10:12:44:648;11:12:44:587;0.51714754;9.844957;2.0494366
10:12:44:656;11:12:44:587;0.51714754;9.844957;2.0494366
10:12:44:664;11:12:44:587;0.51714754;9.844957;2.0494366
10:12:44:671;11:12:44:587;0.51714754;9.844957;2.0494366
10:12:44:679;11:12:44:587;0.51714754;9.844957;2.0494366
10:12:44:687;11:12:44:587;0.51714754;9.844957;2.0494366
10:12:44:695;11:12:44:693;0.30645782;10.419566;1.3599066
10:12:44:703;11:12:44:693;0.30645782;10.419566;1.3599066
10:12:44:710;11:12:44:693;0.30645782;10.419566;1.3599066
10:12:44:718;11:12:44:693;0.30645782;10.419566;1.3599066
10:12:44:726;11:12:44:693;0.30645782;10.419566;1.3599066
10:12:44:734;11:12:44:693;0.30645782;10.419566;1.3599066
10:12:44:742;11:12:44:693;0.30645782;10.419566;1.3599066
10:12:44:750;11:12:44:693;0.30645782;10.419566;1.3599066
10:12:44:757;11:12:44:693;0.30645782;10.419566;1.3599066
10:12:44:765;11:12:44:693;0.30645782;10.419566;1.3599066
10:12:44:773;11:12:44:693;0.30645782;10.419566;1.3599066
10:12:44:781;11:12:44:693;0.30645782;10.419566;1.3599066
10:12:44:789;11:12:44:693;0.30645782;10.419566;1.3599066
10:12:44:796;11:12:44:693;0.30645782;10.419566;1.3599066
10:12:44:804;11:12:44:693;0.30645782;10.419566;1.3599066
10:12:44:812;11:12:44:693;0.30645782;10.419566;1.3599066
10:12:44:820;11:12:44:813;0.15322891;10.113108;2.0111294
10:12:44:828;11:12:44:813;0.15322891;10.113108;2.0111294
10:12:44:835;11:12:44:813;0.15322891;10.113108;2.0111294
10:12:44:843;11:12:44:813;0.15322891;10.113108;2.0111294
10:12:44:851;11:12:44:813;0.15322891;10.113108;2.0111294
10:12:44:859;11:12:44:813;0.15322891;10.113108;2.0111294
10:12:44:867;11:12:44:813;0.15322891;10.113108;2.0111294
10:12:44:875;11:12:44:813;0.15322891;10.113108;2.0111294
10:12:44:882;11:12:44:813;0.15322891;10.113108;2.0111294
10:12:44:890;11:12:44:813;0.15322891;10.113108;2.0111294
10:12:44:898;11:12:44:813;0.15322891;10.113108;2.0111294
10:12:44:906;11:12:44:813;0.15322891;10.113108;2.0111294
10:12:44:914;11:12:44:813;0.15322891;10.113108;2.0111294
10:12:44:921;11:12:44:813;0.15322891;10.113108;2.0111294
10:12:44:929;11:12:44:813;0.15322891;10.113108;2.0111294
10:12:44:937;11:12:44:932;-0.076614454;10.362105;1.9153614
10:12:44:945;11:12:44:932;-0.076614454;10.362105;1.9153614
10:12:44:953;11:12:44:932;-0.076614454;10.362105;1.9153614
10:12:44:960;11:12:44:932;-0.076614454;10.362105;1.9153614
10:12:44:968;11:12:44:932;-0.076614454;10.362105;1.9153614
10:12:44:976;11:12:44:932;-0.076614454;10.362105;1.9153614
10:12:44:984;11:12:44:932;-0.076614454;10.362105;1.9153614
10:12:44:992;11:12:44:932;-0.076614454;10.362105;1.9153614
10:12:45:000;11:12:44:932;-0.076614454;10.362105;1.9153614
10:12:45:007;11:12:44:932;-0.076614454;10.362105;1.9153614
10:12:45:015;11:12:44:932;-0.076614454;10.362105;1.9153614
10:12:45:023;11:12:44:932;-0.076614454;10.362105;1.9153614
10:12:45:031;11:12:44:932;-0.076614454;10.362105;1.9153614
10:12:45:039;11:12:44:932;-0.076614454;10.362105;1.9153614
10:12:45:046;11:12:45:044;0.038307227;9.864111;2.1643584
10:12:45:054;11:12:45:044;0.038307227;9.864111;2.1643584
10:12:45:062;11:12:45:044;0.038307227;9.864111;2.1643584
10:12:45:070;11:12:45:044;0.038307227;9.864111;2.1643584
10:12:45:078;11:12:45:044;0.038307227;9.864111;2.1643584
10:12:45:085;11:12:45:044;0.038307227;9.864111;2.1643584
10:12:45:093;11:12:45:044;0.038307227;9.864111;2.1643584
10:12:45:101;11:12:45:044;0.038307227;9.864111;2.1643584
10:12:45:109;11:12:45:044;0.038307227;9.864111;2.1643584
10:12:45:117;11:12:45:044;0.038307227;9.864111;2.1643584
10:12:45:125;11:12:45:044;0.038307227;9.864111;2.1643584
10:12:45:132;11:12:45:044;0.038307227;9.864111;2.1643584
10:12:45:140;11:12:45:044;0.038307227;9.864111;2.1643584
10:12:45:148;11:12:45:044;0.038307227;9.864111;2.1643584
10:12:45:156;11:12:45:153;0.5746084;9.9790325;1.6663644
10:12:45:164;11:12:45:153;0.5746084;9.9790325;1.6663644
10:12:45:171;11:12:45:153;0.5746084;9.9790325;1.6663644
10:12:45:179;11:12:45:153;0.5746084;9.9790325;1.6663644
10:12:45:187;11:12:45:153;0.5746084;9.9790325;1.6663644
10:12:45:195;11:12:45:153;0.5746084;9.9790325;1.6663644
10:12:45:203;11:12:45:153;0.5746084;9.9790325;1.6663644
10:12:45:210;11:12:45:153;0.5746084;9.9790325;1.6663644
10:12:45:218;11:12:45:153;0.5746084;9.9790325;1.6663644
10:12:45:226;11:12:45:153;0.5746084;9.9790325;1.6663644
10:12:45:234;11:12:45:153;0.5746084;9.9790325;1.6663644
10:12:45:242;11:12:45:153;0.5746084;9.9790325;1.6663644
10:12:45:250;11:12:45:153;0.5746084;9.9790325;1.6663644
10:12:45:257;11:12:45:153;0.5746084;9.9790325;1.6663644
10:12:45:265;11:12:45:153;0.5746084;9.9790325;1.6663644
10:12:45:273;11:12:45:271;-0.40222588;9.80665;2.432509
10:12:45:281;11:12:45:271;-0.40222588;9.80665;2.432509
10:12:45:289;11:12:45:271;-0.40222588;9.80665;2.432509
10:12:45:296;11:12:45:271;-0.40222588;9.80665;2.432509
10:12:45:304;11:12:45:271;-0.40222588;9.80665;2.432509
10:12:45:312;11:12:45:271;-0.40222588;9.80665;2.432509
10:12:45:320;11:12:45:271;-0.40222588;9.80665;2.432509
10:12:45:328;11:12:45:271;-0.40222588;9.80665;2.432509
10:12:45:335;11:12:45:271;-0.40222588;9.80665;2.432509
10:12:45:343;11:12:45:271;-0.40222588;9.80665;2.432509
10:12:45:351;11:12:45:271;-0.40222588;9.80665;2.432509
10:12:45:359;11:12:45:271;-0.40222588;9.80665;2.432509
10:12:45:367;11:12:45:271;-0.40222588;9.80665;2.432509
10:12:45:375;11:12:45:271;-0.40222588;9.80665;2.432509
10:12:45:382;11:12:45:271;-0.40222588;9.80665;2.432509
10:12:45:390;11:12:45:390;0.6895301;9.921572;2.1260512
10:12:45:398;11:12:45:390;0.6895301;9.921572;2.1260512
10:12:45:406;11:12:45:390;0.6895301;9.921572;2.1260512
10:12:45:414;11:12:45:390;0.6895301;9.921572;2.1260512
10:12:45:421;11:12:45:390;0.6895301;9.921572;2.1260512
10:12:45:429;11:12:45:390;0.6895301;9.921572;2.1260512
10:12:45:437;11:12:45:390;0.6895301;9.921572;2.1260512
10:12:45:445;11:12:45:390;0.6895301;9.921572;2.1260512
10:12:45:453;11:12:45:390;0.6895301;9.921572;2.1260512
10:12:45:460;11:12:45:390;0.6895301;9.921572;2.1260512
10:12:45:468;11:12:45:390;0.6895301;9.921572;2.1260512
10:12:45:476;11:12:45:390;0.6895301;9.921572;2.1260512
10:12:45:484;11:12:45:390;0.6895301;9.921572;2.1260512
10:12:45:492;11:12:45:390;0.6895301;9.921572;2.1260512
10:12:45:500;11:12:45:390;0.6895301;9.921572;2.1260512
10:12:45:507;11:12:45:390;0.6895301;9.921572;2.1260512
10:12:45:515;11:12:45:390;0.6895301;9.921572;2.1260512
10:12:45:523;11:12:45:390;0.6895301;9.921572;2.1260512
10:12:45:531;11:12:45:390;0.6895301;9.921572;2.1260512
10:12:45:539;11:12:45:390;0.6895301;9.921572;2.1260512
10:12:45:546;11:12:45:546;0.2681506;10.381259;2.183512
10:12:45:554;11:12:45:546;0.2681506;10.381259;2.183512
10:12:45:562;11:12:45:546;0.2681506;10.381259;2.183512
10:12:45:570;11:12:45:546;0.2681506;10.381259;2.183512
10:12:45:578;11:12:45:546;0.2681506;10.381259;2.183512
10:12:45:585;11:12:45:546;0.2681506;10.381259;2.183512
10:12:45:593;11:12:45:546;0.2681506;10.381259;2.183512
10:12:45:601;11:12:45:546;0.2681506;10.381259;2.183512
10:12:45:609;11:12:45:546;0.2681506;10.381259;2.183512
10:12:45:617;11:12:45:546;0.2681506;10.381259;2.183512
10:12:45:625;11:12:45:546;0.2681506;10.381259;2.183512
10:12:45:632;11:12:45:546;0.2681506;10.381259;2.183512
10:12:45:640;11:12:45:546;0.2681506;10.381259;2.183512
10:12:45:648;11:12:45:546;0.2681506;10.381259;2.183512
10:12:45:656;11:12:45:652;0.15322891;10.28549;1.685518
10:12:45:664;11:12:45:652;0.15322891;10.28549;1.685518
10:12:45:671;11:12:45:652;0.15322891;10.28549;1.685518
10:12:45:679;11:12:45:652;0.15322891;10.28549;1.685518
10:12:45:687;11:12:45:652;0.15322891;10.28549;1.685518
10:12:45:695;11:12:45:652;0.15322891;10.28549;1.685518
10:12:45:703;11:12:45:652;0.15322891;10.28549;1.685518
10:12:45:710;11:12:45:652;0.15322891;10.28549;1.685518
10:12:45:718;11:12:45:652;0.15322891;10.28549;1.685518
10:12:45:726;11:12:45:652;0.15322891;10.28549;1.685518
10:12:45:734;11:12:45:652;0.15322891;10.28549;1.685518
10:12:45:742;11:12:45:652;0.15322891;10.28549;1.685518
10:12:45:750;11:12:45:652;0.15322891;10.28549;1.685518
10:12:45:757;11:12:45:754;0.1340753;10.400413;1.8579005
10:12:45:765;11:12:45:754;0.1340753;10.400413;1.8579005
10:12:45:773;11:12:45:754;0.1340753;10.400413;1.8579005
10:12:45:781;11:12:45:754;0.1340753;10.400413;1.8579005
10:12:45:789;11:12:45:754;0.1340753;10.400413;1.8579005
10:12:45:796;11:12:45:754;0.1340753;10.400413;1.8579005
10:12:45:804;11:12:45:754;0.1340753;10.400413;1.8579005
10:12:45:812;11:12:45:754;0.1340753;10.400413;1.8579005
10:12:45:820;11:12:45:754;0.1340753;10.400413;1.8579005
10:12:45:828;11:12:45:754;0.1340753;10.400413;1.8579005
10:12:45:835;11:12:45:754;0.1340753;10.400413;1.8579005
10:12:45:843;11:12:45:754;0.1340753;10.400413;1.8579005
10:12:45:851;11:12:45:754;0.1340753;10.400413;1.8579005
10:12:45:859;11:12:45:754;0.1340753;10.400413;1.8579005
10:12:45:867;11:12:45:754;0.1340753;10.400413;1.8579005
10:12:45:875;11:12:45:872;-0.038307227;9.864111;2.1260512
10:12:45:882;11:12:45:872;-0.038307227;9.864111;2.1260512
10:12:45:890;11:12:45:872;-0.038307227;9.864111;2.1260512
10:12:45:898;11:12:45:872;-0.038307227;9.864111;2.1260512
10:12:45:906;11:12:45:872;-0.038307227;9.864111;2.1260512
10:12:45:914;11:12:45:872;-0.038307227;9.864111;2.1260512
10:12:45:921;11:12:45:872;-0.038307227;9.864111;2.1260512
10:12:45:929;11:12:45:872;-0.038307227;9.864111;2.1260512
10:12:45:937;11:12:45:872;-0.038307227;9.864111;2.1260512
10:12:45:945;11:12:45:872;-0.038307227;9.864111;2.1260512
10:12:45:953;11:12:45:872;-0.038307227;9.864111;2.1260512
10:12:45:960;11:12:45:872;-0.038307227;9.864111;2.1260512
10:12:45:968;11:12:45:872;-0.038307227;9.864111;2.1260512
10:12:45:976;11:12:45:974;0.5363012;9.80665;2.2601264
10:12:45:984;11:12:45:974;0.5363012;9.80665;2.2601264
10:12:45:992;11:12:45:974;0.5363012;9.80665;2.2601264
10:12:46:000;11:12:45:974;0.5363012;9.80665;2.2601264
10:12:46:007;11:12:45:974;0.5363012;9.80665;2.2601264
10:12:46:015;11:12:45:974;0.5363012;9.80665;2.2601264
10:12:46:023;11:12:45:974;0.5363012;9.80665;2.2601264
10:12:46:031;11:12:45:974;0.5363012;9.80665;2.2601264
10:12:46:039;11:12:45:974;0.5363012;9.80665;2.2601264
10:12:46:046;11:12:45:974;0.5363012;9.80665;2.2601264
10:12:46:054;11:12:45:974;0.5363012;9.80665;2.2601264
10:12:46:062;11:12:45:974;0.5363012;9.80665;2.2601264
10:12:46:070;11:12:45:974;0.5363012;9.80665;2.2601264
10:12:46:078;11:12:45:974;0.5363012;9.80665;2.2601264
10:12:46:085;11:12:45:974;0.5363012;9.80665;2.2601264
10:12:46:093;11:12:46:088;-0.11492168;9.998186;2.183512
10:12:46:101;11:12:46:088;-0.11492168;9.998186;2.183512
10:12:46:109;11:12:46:088;-0.11492168;9.998186;2.183512
10:12:46:117;11:12:46:088;-0.11492168;9.998186;2.183512
10:12:46:125;11:12:46:088;-0.11492168;9.998186;2.183512
10:12:46:132;11:12:46:088;-0.11492168;9.998186;2.183512
10:12:46:140;11:12:46:088;-0.11492168;9.998186;2.183512
10:12:46:148;11:12:46:088;-0.11492168;9.998186;2.183512
10:12:46:156;11:12:46:088;-0.11492168;9.998186;2.183512
10:12:46:164;11:12:46:088;-0.11492168;9.998186;2.183512
10:12:46:171;11:12:46:088;-0.11492168;9.998186;2.183512
10:12:46:179;11:12:46:088;-0.11492168;9.998186;2.183512
10:12:46:187;11:12:46:088;-0.11492168;9.998186;2.183512
10:12:46:195;11:12:46:190;0.7661445;10.0748005;1.9728222
10:12:46:203;11:12:46:190;0.7661445;10.0748005;1.9728222
10:12:46:210;11:12:46:190;0.7661445;10.0748005;1.9728222
10:12:46:218;11:12:46:190;0.7661445;10.0748005;1.9728222
10:12:46:226;11:12:46:190;0.7661445;10.0748005;1.9728222
10:12:46:234;11:12:46:190;0.7661445;10.0748005;1.9728222
10:12:46:242;11:12:46:190;0.7661445;10.0748005;1.9728222
10:12:46:250;11:12:46:190;0.7661445;10.0748005;1.9728222
10:12:46:257;11:12:46:190;0.7661445;10.0748005;1.9728222
10:12:46:265;11:12:46:190;0.7661445;10.0748005;1.9728222
10:12:46:273;11:12:46:190;0.7661445;10.0748005;1.9728222
10:12:46:281;11:12:46:190;0.7661445;10.0748005;1.9728222
10:12:46:289;11:12:46:190;0.7661445;10.0748005;1.9728222
10:12:46:296;11:12:46:291;0.2873042;10.093954;2.2218192
10:12:46:304;11:12:46:291;0.2873042;10.093954;2.2218192
10:12:46:312;11:12:46:291;0.2873042;10.093954;2.2218192
10:12:46:320;11:12:46:291;0.2873042;10.093954;2.2218192
10:12:46:328;11:12:46:291;0.2873042;10.093954;2.2218192
10:12:46:335;11:12:46:291;0.2873042;10.093954;2.2218192
10:12:46:343;11:12:46:291;0.2873042;10.093954;2.2218192
10:12:46:351;11:12:46:291;0.2873042;10.093954;2.2218192
10:12:46:359;11:12:46:291;0.2873042;10.093954;2.2218192
10:12:46:367;11:12:46:291;0.2873042;10.093954;2.2218192
10:12:46:375;11:12:46:291;0.2873042;10.093954;2.2218192
10:12:46:382;11:12:46:291;0.2873042;10.093954;2.2218192
10:12:46:390;11:12:46:291;0.2873042;10.093954;2.2218192
10:12:46:398;11:12:46:393;0.21068975;10.630256;1.340753
10:12:46:406;11:12:46:393;0.21068975;10.630256;1.340753
10:12:46:414;11:12:46:393;0.21068975;10.630256;1.340753
10:12:46:421;11:12:46:393;0.21068975;10.630256;1.340753
10:12:46:429;11:12:46:393;0.21068975;10.630256;1.340753
10:12:46:437;11:12:46:393;0.21068975;10.630256;1.340753
10:12:46:445;11:12:46:393;0.21068975;10.630256;1.340753
10:12:46:453;11:12:46:393;0.21068975;10.630256;1.340753
10:12:46:460;11:12:46:393;0.21068975;10.630256;1.340753
10:12:46:468;11:12:46:393;0.21068975;10.630256;1.340753
10:12:46:476;11:12:46:393;0.21068975;10.630256;1.340753
10:12:46:484;11:12:46:393;0.21068975;10.630256;1.340753
10:12:46:492;11:12:46:393;0.21068975;10.630256;1.340753
10:12:46:500;11:12:46:393;0.21068975;10.630256;1.340753
10:12:46:507;11:12:46:506;0.21068975;10.151415;1.6472107
10:12:46:515;11:12:46:506;0.21068975;10.151415;1.6472107
10:12:46:523;11:12:46:506;0.21068975;10.151415;1.6472107
10:12:46:531;11:12:46:506;0.21068975;10.151415;1.6472107
10:12:46:539;11:12:46:506;0.21068975;10.151415;1.6472107
10:12:46:546;11:12:46:506;0.21068975;10.151415;1.6472107
10:12:46:554;11:12:46:506;0.21068975;10.151415;1.6472107
10:12:46:562;11:12:46:506;0.21068975;10.151415;1.6472107
10:12:46:570;11:12:46:506;0.21068975;10.151415;1.6472107
10:12:46:578;11:12:46:506;0.21068975;10.151415;1.6472107
10:12:46:585;11:12:46:506;0.21068975;10.151415;1.6472107
10:12:46:593;11:12:46:506;0.21068975;10.151415;1.6472107
10:12:46:601;11:12:46:506;0.21068975;10.151415;1.6472107
10:12:46:609;11:12:46:506;0.21068975;10.151415;1.6472107
10:12:46:617;11:12:46:506;0.21068975;10.151415;1.6472107
10:12:46:625;11:12:46:623;0.24899697;10.055647;2.2026656
10:12:46:632;11:12:46:623;0.24899697;10.055647;2.2026656
10:12:46:640;11:12:46:623;0.24899697;10.055647;2.2026656
10:12:46:648;11:12:46:623;0.24899697;10.055647;2.2026656
10:12:46:656;11:12:46:623;0.24899697;10.055647;2.2026656
10:12:46:664;11:12:46:623;0.24899697;10.055647;2.2026656
10:12:46:671;11:12:46:623;0.24899697;10.055647;2.2026656
10:12:46:679;11:12:46:623;0.24899697;10.055647;2.2026656
10:12:46:687;11:12:46:623;0.24899697;10.055647;2.2026656
10:12:46:695;11:12:46:623;0.24899697;10.055647;2.2026656
10:12:46:703;11:12:46:623;0.24899697;10.055647;2.2026656
10:12:46:710;11:12:46:623;0.24899697;10.055647;2.2026656
10:12:46:718;11:12:46:623;0.24899697;10.055647;2.2026656
10:12:46:726;11:12:46:623;0.24899697;10.055647;2.2026656
10:12:46:734;11:12:46:623;0.24899697;10.055647;2.2026656
10:12:46:742;11:12:46:740;0.45968673;9.691729;2.3750482
10:12:46:750;11:12:46:740;0.45968673;9.691729;2.3750482
10:12:46:757;11:12:46:740;0.45968673;9.691729;2.3750482
10:12:46:765;11:12:46:740;0.45968673;9.691729;2.3750482
10:12:46:773;11:12:46:740;0.45968673;9.691729;2.3750482
10:12:46:781;11:12:46:740;0.45968673;9.691729;2.3750482
10:12:46:789;11:12:46:740;0.45968673;9.691729;2.3750482
10:12:46:796;11:12:46:740;0.45968673;9.691729;2.3750482
10:12:46:804;11:12:46:740;0.45968673;9.691729;2.3750482
10:12:46:812;11:12:46:740;0.45968673;9.691729;2.3750482
10:12:46:820;11:12:46:740;0.45968673;9.691729;2.3750482
10:12:46:828;11:12:46:740;0.45968673;9.691729;2.3750482
10:12:46:835;11:12:46:740;0.45968673;9.691729;2.3750482
10:12:46:843;11:12:46:740;0.45968673;9.691729;2.3750482
10:12:46:851;11:12:46:740;0.45968673;9.691729;2.3750482
10:12:46:859;11:12:46:854;0.78529817;9.557653;2.6623523
10:12:46:867;11:12:46:854;0.78529817;9.557653;2.6623523
10:12:46:875;11:12:46:854;0.78529817;9.557653;2.6623523
10:12:46:882;11:12:46:854;0.78529817;9.557653;2.6623523
10:12:46:890;11:12:46:854;0.78529817;9.557653;2.6623523
10:12:46:898;11:12:46:854;0.78529817;9.557653;2.6623523
10:12:46:906;11:12:46:854;0.78529817;9.557653;2.6623523
10:12:46:914;11:12:46:854;0.78529817;9.557653;2.6623523
10:12:46:921;11:12:46:854;0.78529817;9.557653;2.6623523
10:12:46:929;11:12:46:854;0.78529817;9.557653;2.6623523
10:12:46:937;11:12:46:854;0.78529817;9.557653;2.6623523
10:12:46:945;11:12:46:854;0.78529817;9.557653;2.6623523
10:12:46:953;11:12:46:854;0.78529817;9.557653;2.6623523
10:12:46:960;11:12:46:958;0.5554548;9.9790325;1.8387469
10:12:46:968;11:12:46:958;0.5554548;9.9790325;1.8387469
10:12:46:976;11:12:46:958;0.5554548;9.9790325;1.8387469
10:12:46:984;11:12:46:958;0.5554548;9.9790325;1.8387469
10:12:46:992;11:12:46:958;0.5554548;9.9790325;1.8387469
10:12:47:000;11:12:46:958;0.5554548;9.9790325;1.8387469
10:12:47:007;11:12:46:958;0.5554548;9.9790325;1.8387469
10:12:47:015;11:12:46:958;0.5554548;9.9790325;1.8387469
10:12:47:023;11:12:46:958;0.5554548;9.9790325;1.8387469
10:12:47:031;11:12:46:958;0.5554548;9.9790325;1.8387469
10:12:47:039;11:12:46:958;0.5554548;9.9790325;1.8387469
10:12:47:046;11:12:46:958;0.5554548;9.9790325;1.8387469
10:12:47:054;11:12:46:958;0.5554548;9.9790325;1.8387469
10:12:47:062;11:12:46:958;0.5554548;9.9790325;1.8387469
10:12:47:070;11:12:47:070;0.40222588;9.825804;2.5474305
10:12:47:078;11:12:47:070;0.40222588;9.825804;2.5474305
10:12:47:085;11:12:47:070;0.40222588;9.825804;2.5474305
10:12:47:093;11:12:47:070;0.40222588;9.825804;2.5474305
10:12:47:101;11:12:47:070;0.40222588;9.825804;2.5474305
10:12:47:109;11:12:47:070;0.40222588;9.825804;2.5474305
10:12:47:117;11:12:47:070;0.40222588;9.825804;2.5474305
10:12:47:125;11:12:47:070;0.40222588;9.825804;2.5474305
10:12:47:132;11:12:47:070;0.40222588;9.825804;2.5474305
10:12:47:140;11:12:47:070;0.40222588;9.825804;2.5474305
10:12:47:148;11:12:47:070;0.40222588;9.825804;2.5474305
10:12:47:156;11:12:47:070;0.40222588;9.825804;2.5474305
10:12:47:164;11:12:47:070;0.40222588;9.825804;2.5474305
10:12:47:171;11:12:47:070;0.40222588;9.825804;2.5474305
10:12:47:179;11:12:47:173;0.17238252;10.419566;2.4708161
10:12:47:187;11:12:47:173;0.17238252;10.419566;2.4708161
10:12:47:195;11:12:47:173;0.17238252;10.419566;2.4708161
10:12:47:203;11:12:47:173;0.17238252;10.419566;2.4708161
10:12:47:210;11:12:47:173;0.17238252;10.419566;2.4708161
10:12:47:218;11:12:47:173;0.17238252;10.419566;2.4708161
10:12:47:226;11:12:47:173;0.17238252;10.419566;2.4708161
10:12:47:234;11:12:47:173;0.17238252;10.419566;2.4708161
10:12:47:242;11:12:47:173;0.17238252;10.419566;2.4708161
10:12:47:250;11:12:47:173;0.17238252;10.419566;2.4708161
10:12:47:257;11:12:47:173;0.17238252;10.419566;2.4708161
10:12:47:265;11:12:47:173;0.17238252;10.419566;2.4708161
10:12:47:273;11:12:47:173;0.17238252;10.419566;2.4708161
10:12:47:281;11:12:47:278;0.34476504;10.0748005;1.9536686
10:12:47:289;11:12:47:278;0.34476504;10.0748005;1.9536686
10:12:47:296;11:12:47:278;0.34476504;10.0748005;1.9536686
10:12:47:304;11:12:47:278;0.34476504;10.0748005;1.9536686
10:12:47:312;11:12:47:278;0.34476504;10.0748005;1.9536686
10:12:47:320;11:12:47:278;0.34476504;10.0748005;1.9536686
10:12:47:328;11:12:47:278;0.34476504;10.0748005;1.9536686
10:12:47:335;11:12:47:278;0.34476504;10.0748005;1.9536686
10:12:47:343;11:12:47:278;0.34476504;10.0748005;1.9536686
10:12:47:351;11:12:47:278;0.34476504;10.0748005;1.9536686
10:12:47:359;11:12:47:278;0.34476504;10.0748005;1.9536686
10:12:47:367;11:12:47:278;0.34476504;10.0748005;1.9536686
10:12:47:375;11:12:47:278;0.34476504;10.0748005;1.9536686
10:12:47:382;11:12:47:278;0.34476504;10.0748005;1.9536686
10:12:47:390;11:12:47:278;0.34476504;10.0748005;1.9536686
10:12:47:398;11:12:47:393;0.7469909;9.557653;2.2218192
10:12:47:406;11:12:47:393;0.7469909;9.557653;2.2218192
10:12:47:414;11:12:47:393;0.7469909;9.557653;2.2218192
10:12:47:421;11:12:47:393;0.7469909;9.557653;2.2218192
10:12:47:429;11:12:47:393;0.7469909;9.557653;2.2218192
10:12:47:437;11:12:47:393;0.7469909;9.557653;2.2218192
10:12:47:445;11:12:47:393;0.7469909;9.557653;2.2218192
10:12:47:453;11:12:47:393;0.7469909;9.557653;2.2218192
10:12:47:460;11:12:47:393;0.7469909;9.557653;2.2218192
10:12:47:468;11:12:47:393;0.7469909;9.557653;2.2218192
10:12:47:476;11:12:47:393;0.7469909;9.557653;2.2218192
10:12:47:484;11:12:47:393;0.7469909;9.557653;2.2218192
10:12:47:492;11:12:47:393;0.7469909;9.557653;2.2218192
10:12:47:500;11:12:47:393;0.7469909;9.557653;2.2218192
10:12:47:507;11:12:47:393;0.7469909;9.557653;2.2218192
10:12:47:515;11:12:47:512;0.22984336;10.304645;1.6663644
10:12:47:523;11:12:47:512;0.22984336;10.304645;1.6663644
10:12:47:531;11:12:47:512;0.22984336;10.304645;1.6663644
10:12:47:539;11:12:47:512;0.22984336;10.304645;1.6663644
10:12:47:546;11:12:47:512;0.22984336;10.304645;1.6663644
10:12:47:554;11:12:47:512;0.22984336;10.304645;1.6663644
10:12:47:562;11:12:47:512;0.22984336;10.304645;1.6663644
10:12:47:570;11:12:47:512;0.22984336;10.304645;1.6663644
10:12:47:578;11:12:47:512;0.22984336;10.304645;1.6663644
10:12:47:585;11:12:47:512;0.22984336;10.304645;1.6663644
10:12:47:593;11:12:47:512;0.22984336;10.304645;1.6663644
10:12:47:601;11:12:47:512;0.22984336;10.304645;1.6663644
10:12:47:609;11:12:47:512;0.22984336;10.304645;1.6663644
10:12:47:617;11:12:47:512;0.22984336;10.304645;1.6663644
10:12:47:625;11:12:47:621;0.038307227;10.247183;0.5746084
10:12:47:632;11:12:47:621;0.038307227;10.247183;0.5746084
10:12:47:640;11:12:47:621;0.038307227;10.247183;0.5746084
10:12:47:648;11:12:47:621;0.038307227;10.247183;0.5746084
10:12:47:656;11:12:47:621;0.038307227;10.247183;0.5746084
10:12:47:664;11:12:47:621;0.038307227;10.247183;0.5746084
10:12:47:671;11:12:47:621;0.038307227;10.247183;0.5746084
10:12:47:679;11:12:47:621;0.038307227;10.247183;0.5746084
10:12:47:687;11:12:47:621;0.038307227;10.247183;0.5746084
10:12:47:695;11:12:47:621;0.038307227;10.247183;0.5746084
10:12:47:703;11:12:47:621;0.038307227;10.247183;0.5746084
10:12:47:710;11:12:47:621;0.038307227;10.247183;0.5746084
10:12:47:718;11:12:47:621;0.038307227;10.247183;0.5746084
10:12:47:726;11:12:47:724;0.1340753;9.576807;-0.038307227
10:12:47:734;11:12:47:724;0.1340753;9.576807;-0.038307227
10:12:47:742;11:12:47:724;0.1340753;9.576807;-0.038307227
10:12:47:750;11:12:47:724;0.1340753;9.576807;-0.038307227
10:12:47:757;11:12:47:724;0.1340753;9.576807;-0.038307227
10:12:47:765;11:12:47:724;0.1340753;9.576807;-0.038307227
10:12:47:773;11:12:47:724;0.1340753;9.576807;-0.038307227
10:12:47:781;11:12:47:724;0.1340753;9.576807;-0.038307227
10:12:47:789;11:12:47:724;0.1340753;9.576807;-0.038307227
10:12:47:796;11:12:47:724;0.1340753;9.576807;-0.038307227
10:12:47:804;11:12:47:724;0.1340753;9.576807;-0.038307227
10:12:47:812;11:12:47:724;0.1340753;9.576807;-0.038307227
10:12:47:820;11:12:47:724;0.1340753;9.576807;-0.038307227
10:12:47:828;11:12:47:724;0.1340753;9.576807;-0.038307227
10:12:47:835;11:12:47:834;0.2681506;9.710882;0.80445176
10:12:47:843;11:12:47:834;0.2681506;9.710882;0.80445176
10:12:47:851;11:12:47:834;0.2681506;9.710882;0.80445176
10:12:47:859;11:12:47:834;0.2681506;9.710882;0.80445176
10:12:47:867;11:12:47:834;0.2681506;9.710882;0.80445176
10:12:47:875;11:12:47:834;0.2681506;9.710882;0.80445176
10:12:47:882;11:12:47:834;0.2681506;9.710882;0.80445176
10:12:47:890;11:12:47:834;0.2681506;9.710882;0.80445176
10:12:47:898;11:12:47:834;0.2681506;9.710882;0.80445176
10:12:47:906;11:12:47:834;0.2681506;9.710882;0.80445176
10:12:47:914;11:12:47:834;0.2681506;9.710882;0.80445176
10:12:47:921;11:12:47:834;0.2681506;9.710882;0.80445176
10:12:47:929;11:12:47:834;0.2681506;9.710882;0.80445176
10:12:47:937;11:12:47:935;0.1340753;9.653421;0.7661445
10:12:47:945;11:12:47:935;0.1340753;9.653421;0.7661445
10:12:47:953;11:12:47:935;0.1340753;9.653421;0.7661445
10:12:47:960;11:12:47:935;0.1340753;9.653421;0.7661445
10:12:47:968;11:12:47:935;0.1340753;9.653421;0.7661445
10:12:47:976;11:12:47:935;0.1340753;9.653421;0.7661445
10:12:47:984;11:12:47:935;0.1340753;9.653421;0.7661445
10:12:47:992;11:12:47:935;0.1340753;9.653421;0.7661445
10:12:48:000;11:12:47:935;0.1340753;9.653421;0.7661445
10:12:48:007;11:12:47:935;0.1340753;9.653421;0.7661445
10:12:48:015;11:12:47:935;0.1340753;9.653421;0.7661445
10:12:48:023;11:12:47:935;0.1340753;9.653421;0.7661445
10:12:48:031;11:12:47:935;0.1340753;9.653421;0.7661445
10:12:48:039;11:12:47:935;0.1340753;9.653421;0.7661445
10:12:48:046;11:12:47:935;0.1340753;9.653421;0.7661445
10:12:48:054;11:12:48:051;0.34476504;10.113108;0.5746084
10:12:48:062;11:12:48:051;0.34476504;10.113108;0.5746084
10:12:48:070;11:12:48:051;0.34476504;10.113108;0.5746084
10:12:48:078;11:12:48:051;0.34476504;10.113108;0.5746084
10:12:48:085;11:12:48:051;0.34476504;10.113108;0.5746084
10:12:48:093;11:12:48:051;0.34476504;10.113108;0.5746084
10:12:48:101;11:12:48:051;0.34476504;10.113108;0.5746084
10:12:48:109;11:12:48:051;0.34476504;10.113108;0.5746084
10:12:48:117;11:12:48:051;0.34476504;10.113108;0.5746084
10:12:48:125;11:12:48:051;0.34476504;10.113108;0.5746084
10:12:48:132;11:12:48:051;0.34476504;10.113108;0.5746084
10:12:48:140;11:12:48:051;0.34476504;10.113108;0.5746084
10:12:48:148;11:12:48:051;0.34476504;10.113108;0.5746084
10:12:48:156;11:12:48:051;0.34476504;10.113108;0.5746084
10:12:48:164;11:12:48:051;0.34476504;10.113108;0.5746084
10:12:48:171;11:12:48:169;-0.11492168;10.151415;0.36391866
10:12:48:179;11:12:48:169;-0.11492168;10.151415;0.36391866
10:12:48:187;11:12:48:169;-0.11492168;10.151415;0.36391866
10:12:48:195;11:12:48:169;-0.11492168;10.151415;0.36391866
10:12:48:203;11:12:48:169;-0.11492168;10.151415;0.36391866
10:12:48:210;11:12:48:169;-0.11492168;10.151415;0.36391866
10:12:48:218;11:12:48:169;-0.11492168;10.151415;0.36391866
10:12:48:226;11:12:48:169;-0.11492168;10.151415;0.36391866
10:12:48:234;11:12:48:169;-0.11492168;10.151415;0.36391866
10:12:48:242;11:12:48:169;-0.11492168;10.151415;0.36391866
10:12:48:250;11:12:48:169;-0.11492168;10.151415;0.36391866
10:12:48:257;11:12:48:169;-0.11492168;10.151415;0.36391866
10:12:48:265;11:12:48:169;-0.11492168;10.151415;0.36391866
10:12:48:273;11:12:48:169;-0.11492168;10.151415;0.36391866
10:12:48:281;11:12:48:169;-0.11492168;10.151415;0.36391866
10:12:48:289;11:12:48:288;0.2873042;10.189722;0.05746084
10:12:48:296;11:12:48:288;0.2873042;10.189722;0.05746084
10:12:48:304;11:12:48:288;0.2873042;10.189722;0.05746084
10:12:48:312;11:12:48:288;0.2873042;10.189722;0.05746084
10:12:48:320;11:12:48:288;0.2873042;10.189722;0.05746084
10:12:48:328;11:12:48:288;0.2873042;10.189722;0.05746084
10:12:48:335;11:12:48:288;0.2873042;10.189722;0.05746084
10:12:48:343;11:12:48:288;0.2873042;10.189722;0.05746084
10:12:48:351;11:12:48:288;0.2873042;10.189722;0.05746084
10:12:48:359;11:12:48:288;0.2873042;10.189722;0.05746084
10:12:48:367;11:12:48:288;0.2873042;10.189722;0.05746084
10:12:48:375;11:12:48:288;0.2873042;10.189722;0.05746084
10:12:48:382;11:12:48:288;0.2873042;10.189722;0.05746084
10:12:48:390;11:12:48:288;0.2873042;10.189722;0.05746084
10:12:48:398;11:12:48:288;0.2873042;10.189722;0.05746084
10:12:48:406;11:12:48:404;0.2681506;9.691729;0.5554548
10:12:48:414;11:12:48:404;0.2681506;9.691729;0.5554548
10:12:48:421;11:12:48:404;0.2681506;9.691729;0.5554548
10:12:48:429;11:12:48:404;0.2681506;9.691729;0.5554548
10:12:48:437;11:12:48:404;0.2681506;9.691729;0.5554548
10:12:48:445;11:12:48:404;0.2681506;9.691729;0.5554548
10:12:48:453;11:12:48:404;0.2681506;9.691729;0.5554548
10:12:48:460;11:12:48:404;0.2681506;9.691729;0.5554548
10:12:48:468;11:12:48:404;0.2681506;9.691729;0.5554548
10:12:48:476;11:12:48:404;0.2681506;9.691729;0.5554548
10:12:48:484;11:12:48:404;0.2681506;9.691729;0.5554548
10:12:48:492;11:12:48:404;0.2681506;9.691729;0.5554548
10:12:48:500;11:12:48:404;0.2681506;9.691729;0.5554548
10:12:48:507;11:12:48:404;0.2681506;9.691729;0.5554548
10:12:48:515;11:12:48:404;0.2681506;9.691729;0.5554548
10:12:48:523;11:12:48:522;0.36391866;10.132261;0.6895301
10:12:48:531;11:12:48:522;0.36391866;10.132261;0.6895301
10:12:48:539;11:12:48:522;0.36391866;10.132261;0.6895301
10:12:48:546;11:12:48:522;0.36391866;10.132261;0.6895301
10:12:48:554;11:12:48:522;0.36391866;10.132261;0.6895301
10:12:48:562;11:12:48:522;0.36391866;10.132261;0.6895301
10:12:48:570;11:12:48:522;0.36391866;10.132261;0.6895301
10:12:48:578;11:12:48:522;0.36391866;10.132261;0.6895301
10:12:48:585;11:12:48:522;0.36391866;10.132261;0.6895301
10:12:48:593;11:12:48:522;0.36391866;10.132261;0.6895301
10:12:48:601;11:12:48:522;0.36391866;10.132261;0.6895301
10:12:48:609;11:12:48:522;0.36391866;10.132261;0.6895301
10:12:48:617;11:12:48:522;0.36391866;10.132261;0.6895301
10:12:48:625;11:12:48:522;0.36391866;10.132261;0.6895301
10:12:48:632;11:12:48:522;0.36391866;10.132261;0.6895301
10:12:48:640;11:12:48:522;0.36391866;10.132261;0.6895301
10:12:48:648;11:12:48:642;0.21068975;9.940725;0.90021986
10:12:48:656;11:12:48:642;0.21068975;9.940725;0.90021986
10:12:48:664;11:12:48:642;0.21068975;9.940725;0.90021986
10:12:48:671;11:12:48:642;0.21068975;9.940725;0.90021986
10:12:48:679;11:12:48:642;0.21068975;9.940725;0.90021986
10:12:48:687;11:12:48:642;0.21068975;9.940725;0.90021986
10:12:48:695;11:12:48:642;0.21068975;9.940725;0.90021986
10:12:48:703;11:12:48:642;0.21068975;9.940725;0.90021986
10:12:48:710;11:12:48:642;0.21068975;9.940725;0.90021986
10:12:48:718;11:12:48:642;0.21068975;9.940725;0.90021986
10:12:48:726;11:12:48:642;0.21068975;9.940725;0.90021986
10:12:48:734;11:12:48:642;0.21068975;9.940725;0.90021986
10:12:48:742;11:12:48:642;0.21068975;9.940725;0.90021986
10:12:48:750;11:12:48:642;0.21068975;9.940725;0.90021986
10:12:48:757;11:12:48:756;0.1340753;9.921572;1.1875241
10:12:48:765;11:12:48:756;0.1340753;9.921572;1.1875241
10:12:48:773;11:12:48:756;0.1340753;9.921572;1.1875241
10:12:48:781;11:12:48:756;0.1340753;9.921572;1.1875241
10:12:48:789;11:12:48:756;0.1340753;9.921572;1.1875241
10:12:48:796;11:12:48:756;0.1340753;9.921572;1.1875241
10:12:48:804;11:12:48:756;0.1340753;9.921572;1.1875241
10:12:48:812;11:12:48:756;0.1340753;9.921572;1.1875241
10:12:48:820;11:12:48:756;0.1340753;9.921572;1.1875241
10:12:48:828;11:12:48:756;0.1340753;9.921572;1.1875241
10:12:48:835;11:12:48:756;0.1340753;9.921572;1.1875241
10:12:48:843;11:12:48:756;0.1340753;9.921572;1.1875241
10:12:48:851;11:12:48:756;0.1340753;9.921572;1.1875241
10:12:48:859;11:12:48:756;0.1340753;9.921572;1.1875241
10:12:48:867;11:12:48:756;0.1340753;9.921572;1.1875241
10:12:48:875;11:12:48:874;0.4405331;9.844957;1.1109096
10:12:48:882;11:12:48:874;0.4405331;9.844957;1.1109096
10:12:48:890;11:12:48:874;0.4405331;9.844957;1.1109096
10:12:48:898;11:12:48:874;0.4405331;9.844957;1.1109096
10:12:48:906;11:12:48:874;0.4405331;9.844957;1.1109096
10:12:48:914;11:12:48:874;0.4405331;9.844957;1.1109096
10:12:48:921;11:12:48:874;0.4405331;9.844957;1.1109096
10:12:48:929;11:12:48:874;0.4405331;9.844957;1.1109096
10:12:48:937;11:12:48:874;0.4405331;9.844957;1.1109096
10:12:48:945;11:12:48:874;0.4405331;9.844957;1.1109096
10:12:48:953;11:12:48:874;0.4405331;9.844957;1.1109096
10:12:48:960;11:12:48:874;0.4405331;9.844957;1.1109096
10:12:48:968;11:12:48:874;0.4405331;9.844957;1.1109096
10:12:48:976;11:12:48:874;0.4405331;9.844957;1.1109096
10:12:48:984;11:12:48:874;0.4405331;9.844957;1.1109096
10:12:48:992;11:12:48:874;0.4405331;9.844957;1.1109096
10:12:49:000;11:12:48:993;0.59376204;10.036493;1.532289
10:12:49:007;11:12:48:993;0.59376204;10.036493;1.532289
10:12:49:015;11:12:48:993;0.59376204;10.036493;1.532289
10:12:49:023;11:12:48:993;0.59376204;10.036493;1.532289
10:12:49:031;11:12:48:993;0.59376204;10.036493;1.532289
10:12:49:039;11:12:48:993;0.59376204;10.036493;1.532289
10:12:49:046;11:12:48:993;0.59376204;10.036493;1.532289
