Time_Biotrace;Time_Accel;AccelX;AccelY;AccelZ
12:06:05:460;13:06:05:378;-0.2873042;9.672575;-0.6703765
12:06:05:468;13:06:05:378;-0.2873042;9.672575;-0.6703765
12:06:05:476;13:06:05:378;-0.2873042;9.672575;-0.6703765
12:06:05:484;13:06:05:479;-0.15322891;10.208876;-0.93852705
12:06:05:492;13:06:05:479;-0.15322891;10.208876;-0.93852705
12:06:05:500;13:06:05:479;-0.15322891;10.208876;-0.93852705
12:06:05:507;13:06:05:479;-0.15322891;10.208876;-0.93852705
12:06:05:515;13:06:05:479;-0.15322891;10.208876;-0.93852705
12:06:05:523;13:06:05:479;-0.15322891;10.208876;-0.93852705
12:06:05:531;13:06:05:479;-0.15322891;10.208876;-0.93852705
12:06:05:539;13:06:05:479;-0.15322891;10.208876;-0.93852705
12:06:05:546;13:06:05:479;-0.15322891;10.208876;-0.93852705
12:06:05:554;13:06:05:479;-0.15322891;10.208876;-0.93852705
12:06:05:562;13:06:05:479;-0.15322891;10.208876;-0.93852705
12:06:05:570;13:06:05:479;-0.15322891;10.208876;-0.93852705
12:06:05:578;13:06:05:479;-0.15322891;10.208876;-0.93852705
12:06:05:585;13:06:05:479;-0.15322891;10.208876;-0.93852705
12:06:05:593;13:06:05:479;-0.15322891;10.208876;-0.93852705
12:06:05:601;13:06:05:597;-0.1340753;9.902418;-0.2681506
12:06:05:609;13:06:05:597;-0.1340753;9.902418;-0.2681506
12:06:05:617;13:06:05:597;-0.1340753;9.902418;-0.2681506
12:06:05:625;13:06:05:597;-0.1340753;9.902418;-0.2681506
12:06:05:632;13:06:05:597;-0.1340753;9.902418;-0.2681506
12:06:05:640;13:06:05:597;-0.1340753;9.902418;-0.2681506
12:06:05:648;13:06:05:597;-0.1340753;9.902418;-0.2681506
12:06:05:656;13:06:05:597;-0.1340753;9.902418;-0.2681506
12:06:05:664;13:06:05:597;-0.1340753;9.902418;-0.2681506
12:06:05:671;13:06:05:597;-0.1340753;9.902418;-0.2681506
12:06:05:679;13:06:05:597;-0.1340753;9.902418;-0.2681506
12:06:05:687;13:06:05:597;-0.1340753;9.902418;-0.2681506
12:06:05:695;13:06:05:597;-0.1340753;9.902418;-0.2681506
12:06:05:703;13:06:05:597;-0.1340753;9.902418;-0.2681506
12:06:05:710;13:06:05:597;-0.1340753;9.902418;-0.2681506
12:06:05:718;13:06:05:597;-0.1340753;9.902418;-0.2681506
12:06:05:726;13:06:05:597;-0.1340753;9.902418;-0.2681506
12:06:05:734;13:06:05:597;-0.1340753;9.902418;-0.2681506
12:06:05:742;13:06:05:597;-0.1340753;9.902418;-0.2681506
12:06:05:750;13:06:05:597;-0.1340753;9.902418;-0.2681506
12:06:05:757;13:06:05:597;-0.1340753;9.902418;-0.2681506
12:06:05:765;13:06:05:597;-0.1340753;9.902418;-0.2681506
12:06:05:773;13:06:05:597;-0.1340753;9.902418;-0.2681506
12:06:05:781;13:06:05:597;-0.1340753;9.902418;-0.2681506
12:06:05:789;13:06:05:597;-0.1340753;9.902418;-0.2681506
12:06:05:796;13:06:05:792;-0.095768064;9.672575;-0.40222588
12:06:05:804;13:06:05:792;-0.095768064;9.672575;-0.40222588
12:06:05:812;13:06:05:792;-0.095768064;9.672575;-0.40222588
12:06:05:820;13:06:05:792;-0.095768064;9.672575;-0.40222588
12:06:05:828;13:06:05:792;-0.095768064;9.672575;-0.40222588
12:06:05:835;13:06:05:792;-0.095768064;9.672575;-0.40222588
12:06:05:843;13:06:05:792;-0.095768064;9.672575;-0.40222588
12:06:05:851;13:06:05:792;-0.095768064;9.672575;-0.40222588
12:06:05:859;13:06:05:792;-0.095768064;9.672575;-0.40222588
12:06:05:867;13:06:05:792;-0.095768064;9.672575;-0.40222588
12:06:05:875;13:06:05:792;-0.095768064;9.672575;-0.40222588
12:06:05:882;13:06:05:792;-0.095768064;9.672575;-0.40222588
12:06:05:890;13:06:05:792;-0.095768064;9.672575;-0.40222588
12:06:05:898;13:06:05:792;-0.095768064;9.672575;-0.40222588
12:06:05:906;13:06:05:792;-0.095768064;9.672575;-0.40222588
12:06:05:914;13:06:05:910;-0.24899697;9.634268;-0.61291564
12:06:05:921;13:06:05:910;-0.24899697;9.634268;-0.61291564
12:06:05:929;13:06:05:910;-0.24899697;9.634268;-0.61291564
12:06:05:937;13:06:05:910;-0.24899697;9.634268;-0.61291564
12:06:05:945;13:06:05:910;-0.24899697;9.634268;-0.61291564
12:06:05:953;13:06:05:910;-0.24899697;9.634268;-0.61291564
12:06:05:960;13:06:05:910;-0.24899697;9.634268;-0.61291564
12:06:05:968;13:06:05:910;-0.24899697;9.634268;-0.61291564
12:06:05:976;13:06:05:910;-0.24899697;9.634268;-0.61291564
12:06:05:984;13:06:05:910;-0.24899697;9.634268;-0.61291564
12:06:05:992;13:06:05:910;-0.24899697;9.634268;-0.61291564
12:06:06:000;13:06:05:910;-0.24899697;9.634268;-0.61291564
12:06:06:007;13:06:05:910;-0.24899697;9.634268;-0.61291564
12:06:06:015;13:06:06:011;-0.076614454;9.519346;-0.6703765
12:06:06:023;13:06:06:011;-0.076614454;9.519346;-0.6703765
12:06:06:031;13:06:06:011;-0.076614454;9.519346;-0.6703765
12:06:06:039;13:06:06:011;-0.076614454;9.519346;-0.6703765
12:06:06:046;13:06:06:011;-0.076614454;9.519346;-0.6703765
12:06:06:054;13:06:06:011;-0.076614454;9.519346;-0.6703765
12:06:06:062;13:06:06:011;-0.076614454;9.519346;-0.6703765
12:06:06:070;13:06:06:011;-0.076614454;9.519346;-0.6703765
12:06:06:078;13:06:06:011;-0.076614454;9.519346;-0.6703765
12:06:06:085;13:06:06:011;-0.076614454;9.519346;-0.6703765
12:06:06:093;13:06:06:011;-0.076614454;9.519346;-0.6703765
12:06:06:101;13:06:06:011;-0.076614454;9.519346;-0.6703765
12:06:06:109;13:06:06:011;-0.076614454;9.519346;-0.6703765
12:06:06:117;13:06:06:011;-0.076614454;9.519346;-0.6703765
12:06:06:125;13:06:06:011;-0.076614454;9.519346;-0.6703765
12:06:06:132;13:06:06:011;-0.076614454;9.519346;-0.6703765
12:06:06:140;13:06:06:135;-0.22984336;10.189722;-1.2258313
12:06:06:148;13:06:06:135;-0.22984336;10.189722;-1.2258313
12:06:06:156;13:06:06:135;-0.22984336;10.189722;-1.2258313
12:06:06:164;13:06:06:135;-0.22984336;10.189722;-1.2258313
12:06:06:171;13:06:06:135;-0.22984336;10.189722;-1.2258313
12:06:06:179;13:06:06:135;-0.22984336;10.189722;-1.2258313
12:06:06:187;13:06:06:135;-0.22984336;10.189722;-1.2258313
12:06:06:195;13:06:06:135;-0.22984336;10.189722;-1.2258313
12:06:06:203;13:06:06:135;-0.22984336;10.189722;-1.2258313
12:06:06:210;13:06:06:135;-0.22984336;10.189722;-1.2258313
12:06:06:218;13:06:06:135;-0.22984336;10.189722;-1.2258313
12:06:06:226;13:06:06:135;-0.22984336;10.189722;-1.2258313
12:06:06:234;13:06:06:135;-0.22984336;10.189722;-1.2258313
12:06:06:242;13:06:06:135;-0.22984336;10.189722;-1.2258313
12:06:06:250;13:06:06:248;-0.1340753;8.90643;-0.038307227
12:06:06:257;13:06:06:248;-0.1340753;8.90643;-0.038307227
12:06:06:265;13:06:06:248;-0.1340753;8.90643;-0.038307227
12:06:06:273;13:06:06:248;-0.1340753;8.90643;-0.038307227
12:06:06:281;13:06:06:248;-0.1340753;8.90643;-0.038307227
12:06:06:289;13:06:06:248;-0.1340753;8.90643;-0.038307227
12:06:06:296;13:06:06:248;-0.1340753;8.90643;-0.038307227
12:06:06:304;13:06:06:248;-0.1340753;8.90643;-0.038307227
12:06:06:312;13:06:06:248;-0.1340753;8.90643;-0.038307227
12:06:06:320;13:06:06:248;-0.1340753;8.90643;-0.038307227
12:06:06:328;13:06:06:248;-0.1340753;8.90643;-0.038307227
12:06:06:335;13:06:06:248;-0.1340753;8.90643;-0.038307227
12:06:06:343;13:06:06:248;-0.1340753;8.90643;-0.038307227
12:06:06:351;13:06:06:248;-0.1340753;8.90643;-0.038307227
12:06:06:359;13:06:06:248;-0.1340753;8.90643;-0.038307227
12:06:06:367;13:06:06:363;-0.38307226;10.726024;-0.7086837
12:06:06:375;13:06:06:363;-0.38307226;10.726024;-0.7086837
12:06:06:382;13:06:06:363;-0.38307226;10.726024;-0.7086837
12:06:06:390;13:06:06:363;-0.38307226;10.726024;-0.7086837
12:06:06:398;13:06:06:363;-0.38307226;10.726024;-0.7086837
12:06:06:406;13:06:06:363;-0.38307226;10.726024;-0.7086837
12:06:06:414;13:06:06:363;-0.38307226;10.726024;-0.7086837
12:06:06:421;13:06:06:363;-0.38307226;10.726024;-0.7086837
12:06:06:429;13:06:06:363;-0.38307226;10.726024;-0.7086837
12:06:06:437;13:06:06:363;-0.38307226;10.726024;-0.7086837
12:06:06:445;13:06:06:363;-0.38307226;10.726024;-0.7086837
12:06:06:453;13:06:06:363;-0.38307226;10.726024;-0.7086837
12:06:06:460;13:06:06:363;-0.38307226;10.726024;-0.7086837
12:06:06:468;13:06:06:363;-0.38307226;10.726024;-0.7086837
12:06:06:476;13:06:06:363;-0.38307226;10.726024;-0.7086837
12:06:06:484;13:06:06:481;0.19153613;9.557653;-0.22984336
12:06:06:492;13:06:06:481;0.19153613;9.557653;-0.22984336
12:06:06:500;13:06:06:481;0.19153613;9.557653;-0.22984336
12:06:06:507;13:06:06:481;0.19153613;9.557653;-0.22984336
12:06:06:515;13:06:06:481;0.19153613;9.557653;-0.22984336
12:06:06:523;13:06:06:481;0.19153613;9.557653;-0.22984336
12:06:06:531;13:06:06:481;0.19153613;9.557653;-0.22984336
12:06:06:539;13:06:06:481;0.19153613;9.557653;-0.22984336
12:06:06:546;13:06:06:481;0.19153613;9.557653;-0.22984336
12:06:06:554;13:06:06:481;0.19153613;9.557653;-0.22984336
12:06:06:562;13:06:06:481;0.19153613;9.557653;-0.22984336
12:06:06:570;13:06:06:481;0.19153613;9.557653;-0.22984336
12:06:06:578;13:06:06:481;0.19153613;9.557653;-0.22984336
12:06:06:585;13:06:06:481;0.19153613;9.557653;-0.22984336
12:06:06:593;13:06:06:481;0.19153613;9.557653;-0.22984336
12:06:06:601;13:06:06:481;0.19153613;9.557653;-0.22984336
12:06:06:609;13:06:06:481;0.19153613;9.557653;-0.22984336
12:06:06:617;13:06:06:614;-0.15322891;9.730036;-0.59376204
12:06:06:625;13:06:06:614;-0.15322891;9.730036;-0.59376204
12:06:06:632;13:06:06:614;-0.15322891;9.730036;-0.59376204
12:06:06:640;13:06:06:614;-0.15322891;9.730036;-0.59376204
12:06:06:648;13:06:06:614;-0.15322891;9.730036;-0.59376204
12:06:06:656;13:06:06:614;-0.15322891;9.730036;-0.59376204
12:06:06:664;13:06:06:614;-0.15322891;9.730036;-0.59376204
12:06:06:671;13:06:06:614;-0.15322891;9.730036;-0.59376204
12:06:06:679;13:06:06:614;-0.15322891;9.730036;-0.59376204
12:06:06:687;13:06:06:614;-0.15322891;9.730036;-0.59376204
12:06:06:695;13:06:06:614;-0.15322891;9.730036;-0.59376204
12:06:06:703;13:06:06:614;-0.15322891;9.730036;-0.59376204
12:06:06:710;13:06:06:614;-0.15322891;9.730036;-0.59376204
12:06:06:718;13:06:06:716;-0.19153613;9.289502;-0.80445176
12:06:06:726;13:06:06:716;-0.19153613;9.289502;-0.80445176
12:06:06:734;13:06:06:716;-0.19153613;9.289502;-0.80445176
12:06:06:742;13:06:06:716;-0.19153613;9.289502;-0.80445176
12:06:06:750;13:06:06:716;-0.19153613;9.289502;-0.80445176
12:06:06:757;13:06:06:716;-0.19153613;9.289502;-0.80445176
12:06:06:765;13:06:06:716;-0.19153613;9.289502;-0.80445176
12:06:06:773;13:06:06:716;-0.19153613;9.289502;-0.80445176
12:06:06:781;13:06:06:716;-0.19153613;9.289502;-0.80445176
12:06:06:789;13:06:06:716;-0.19153613;9.289502;-0.80445176
12:06:06:796;13:06:06:716;-0.19153613;9.289502;-0.80445176
12:06:06:804;13:06:06:716;-0.19153613;9.289502;-0.80445176
12:06:06:812;13:06:06:716;-0.19153613;9.289502;-0.80445176
12:06:06:820;13:06:06:716;-0.19153613;9.289502;-0.80445176
12:06:06:828;13:06:06:716;-0.19153613;9.289502;-0.80445176
12:06:06:835;13:06:06:832;-0.91937345;9.80665;-0.7086837
12:06:06:843;13:06:06:832;-0.91937345;9.80665;-0.7086837
12:06:06:851;13:06:06:832;-0.91937345;9.80665;-0.7086837
12:06:06:859;13:06:06:832;-0.91937345;9.80665;-0.7086837
12:06:06:867;13:06:06:832;-0.91937345;9.80665;-0.7086837
12:06:06:875;13:06:06:832;-0.91937345;9.80665;-0.7086837
12:06:06:882;13:06:06:832;-0.91937345;9.80665;-0.7086837
12:06:06:890;13:06:06:832;-0.91937345;9.80665;-0.7086837
12:06:06:898;13:06:06:832;-0.91937345;9.80665;-0.7086837
12:06:06:906;13:06:06:832;-0.91937345;9.80665;-0.7086837
12:06:06:914;13:06:06:832;-0.91937345;9.80665;-0.7086837
12:06:06:921;13:06:06:832;-0.91937345;9.80665;-0.7086837
12:06:06:929;13:06:06:832;-0.91937345;9.80665;-0.7086837
12:06:06:937;13:06:06:935;-0.22984336;9.442732;-1.0151415
12:06:06:945;13:06:06:935;-0.22984336;9.442732;-1.0151415
12:06:06:953;13:06:06:935;-0.22984336;9.442732;-1.0151415
12:06:06:960;13:06:06:935;-0.22984336;9.442732;-1.0151415
12:06:06:968;13:06:06:935;-0.22984336;9.442732;-1.0151415
12:06:06:976;13:06:06:935;-0.22984336;9.442732;-1.0151415
12:06:06:984;13:06:06:935;-0.22984336;9.442732;-1.0151415
12:06:06:992;13:06:06:935;-0.22984336;9.442732;-1.0151415
12:06:07:000;13:06:06:935;-0.22984336;9.442732;-1.0151415
12:06:07:007;13:06:06:935;-0.22984336;9.442732;-1.0151415
12:06:07:015;13:06:06:935;-0.22984336;9.442732;-1.0151415
12:06:07:023;13:06:06:935;-0.22984336;9.442732;-1.0151415
12:06:07:031;13:06:06:935;-0.22984336;9.442732;-1.0151415
12:06:07:039;13:06:06:935;-0.22984336;9.442732;-1.0151415
12:06:07:046;13:06:06:935;-0.22984336;9.442732;-1.0151415
12:06:07:054;13:06:06:935;-0.22984336;9.442732;-1.0151415
12:06:07:062;13:06:06:935;-0.22984336;9.442732;-1.0151415
12:06:07:070;13:06:07:067;0.24899697;9.672575;-0.47884035
12:06:07:078;13:06:07:067;0.24899697;9.672575;-0.47884035
12:06:07:085;13:06:07:067;0.24899697;9.672575;-0.47884035
12:06:07:093;13:06:07:067;0.24899697;9.672575;-0.47884035
12:06:07:101;13:06:07:067;0.24899697;9.672575;-0.47884035
12:06:07:109;13:06:07:067;0.24899697;9.672575;-0.47884035
12:06:07:117;13:06:07:067;0.24899697;9.672575;-0.47884035
12:06:07:125;13:06:07:067;0.24899697;9.672575;-0.47884035
12:06:07:132;13:06:07:067;0.24899697;9.672575;-0.47884035
12:06:07:140;13:06:07:067;0.24899697;9.672575;-0.47884035
12:06:07:148;13:06:07:067;0.24899697;9.672575;-0.47884035
12:06:07:156;13:06:07:067;0.24899697;9.672575;-0.47884035
12:06:07:164;13:06:07:067;0.24899697;9.672575;-0.47884035
12:06:07:171;13:06:07:067;0.24899697;9.672575;-0.47884035
12:06:07:179;13:06:07:067;0.24899697;9.672575;-0.47884035
12:06:07:187;13:06:07:181;0.30645782;10.189722;-1.7621324
12:06:07:195;13:06:07:181;0.30645782;10.189722;-1.7621324
12:06:07:203;13:06:07:181;0.30645782;10.189722;-1.7621324
12:06:07:210;13:06:07:181;0.30645782;10.189722;-1.7621324
12:06:07:218;13:06:07:181;0.30645782;10.189722;-1.7621324
12:06:07:226;13:06:07:181;0.30645782;10.189722;-1.7621324
12:06:07:234;13:06:07:181;0.30645782;10.189722;-1.7621324
12:06:07:242;13:06:07:181;0.30645782;10.189722;-1.7621324
12:06:07:250;13:06:07:181;0.30645782;10.189722;-1.7621324
12:06:07:257;13:06:07:181;0.30645782;10.189722;-1.7621324
12:06:07:265;13:06:07:181;0.30645782;10.189722;-1.7621324
12:06:07:273;13:06:07:181;0.30645782;10.189722;-1.7621324
12:06:07:281;13:06:07:181;0.30645782;10.189722;-1.7621324
12:06:07:289;13:06:07:286;0.019153614;10.802638;-1.934515
12:06:07:296;13:06:07:286;0.019153614;10.802638;-1.934515
12:06:07:304;13:06:07:286;0.019153614;10.802638;-1.934515
12:06:07:312;13:06:07:286;0.019153614;10.802638;-1.934515
12:06:07:320;13:06:07:286;0.019153614;10.802638;-1.934515
12:06:07:328;13:06:07:286;0.019153614;10.802638;-1.934515
12:06:07:335;13:06:07:286;0.019153614;10.802638;-1.934515
12:06:07:343;13:06:07:286;0.019153614;10.802638;-1.934515
12:06:07:351;13:06:07:286;0.019153614;10.802638;-1.934515
12:06:07:359;13:06:07:286;0.019153614;10.802638;-1.934515
12:06:07:367;13:06:07:286;0.019153614;10.802638;-1.934515
12:06:07:375;13:06:07:286;0.019153614;10.802638;-1.934515
12:06:07:382;13:06:07:286;0.019153614;10.802638;-1.934515
12:06:07:390;13:06:07:286;0.019153614;10.802638;-1.934515
12:06:07:398;13:06:07:286;0.019153614;10.802638;-1.934515
12:06:07:406;13:06:07:286;0.019153614;10.802638;-1.934515
12:06:07:414;13:06:07:286;0.019153614;10.802638;-1.934515
12:06:07:421;13:06:07:415;-0.45968673;10.304645;-1.6089035
12:06:07:429;13:06:07:415;-0.45968673;10.304645;-1.6089035
12:06:07:437;13:06:07:415;-0.45968673;10.304645;-1.6089035
12:06:07:445;13:06:07:415;-0.45968673;10.304645;-1.6089035
12:06:07:453;13:06:07:415;-0.45968673;10.304645;-1.6089035
12:06:07:460;13:06:07:415;-0.45968673;10.304645;-1.6089035
12:06:07:468;13:06:07:415;-0.45968673;10.304645;-1.6089035
12:06:07:476;13:06:07:415;-0.45968673;10.304645;-1.6089035
12:06:07:484;13:06:07:415;-0.45968673;10.304645;-1.6089035
12:06:07:492;13:06:07:415;-0.45968673;10.304645;-1.6089035
12:06:07:500;13:06:07:415;-0.45968673;10.304645;-1.6089035
12:06:07:507;13:06:07:415;-0.45968673;10.304645;-1.6089035
12:06:07:515;13:06:07:415;-0.45968673;10.304645;-1.6089035
12:06:07:523;13:06:07:415;-0.45968673;10.304645;-1.6089035
12:06:07:531;13:06:07:524;-0.45968673;10.553641;-1.4173675
12:06:07:539;13:06:07:524;-0.45968673;10.553641;-1.4173675
12:06:07:546;13:06:07:524;-0.45968673;10.553641;-1.4173675
12:06:07:554;13:06:07:524;-0.45968673;10.553641;-1.4173675
12:06:07:562;13:06:07:524;-0.45968673;10.553641;-1.4173675
12:06:07:570;13:06:07:524;-0.45968673;10.553641;-1.4173675
12:06:07:578;13:06:07:524;-0.45968673;10.553641;-1.4173675
12:06:07:585;13:06:07:524;-0.45968673;10.553641;-1.4173675
12:06:07:593;13:06:07:524;-0.45968673;10.553641;-1.4173675
12:06:07:601;13:06:07:524;-0.45968673;10.553641;-1.4173675
12:06:07:609;13:06:07:524;-0.45968673;10.553641;-1.4173675
12:06:07:617;13:06:07:524;-0.45968673;10.553641;-1.4173675
12:06:07:625;13:06:07:524;-0.45968673;10.553641;-1.4173675
12:06:07:632;13:06:07:524;-0.45968673;10.553641;-1.4173675
12:06:07:640;13:06:07:524;-0.45968673;10.553641;-1.4173675
12:06:07:648;13:06:07:644;-0.8619126;10.189722;-0.7278373
12:06:07:656;13:06:07:644;-0.8619126;10.189722;-0.7278373
12:06:07:664;13:06:07:644;-0.8619126;10.189722;-0.7278373
12:06:07:671;13:06:07:644;-0.8619126;10.189722;-0.7278373
12:06:07:679;13:06:07:644;-0.8619126;10.189722;-0.7278373
12:06:07:687;13:06:07:644;-0.8619126;10.189722;-0.7278373
12:06:07:695;13:06:07:644;-0.8619126;10.189722;-0.7278373
12:06:07:703;13:06:07:644;-0.8619126;10.189722;-0.7278373
12:06:07:710;13:06:07:644;-0.8619126;10.189722;-0.7278373
12:06:07:718;13:06:07:644;-0.8619126;10.189722;-0.7278373
12:06:07:726;13:06:07:644;-0.8619126;10.189722;-0.7278373
12:06:07:734;13:06:07:644;-0.8619126;10.189722;-0.7278373
12:06:07:742;13:06:07:644;-0.8619126;10.189722;-0.7278373
12:06:07:750;13:06:07:644;-0.8619126;10.189722;-0.7278373
12:06:07:757;13:06:07:644;-0.8619126;10.189722;-0.7278373
12:06:07:765;13:06:07:762;-1.2066777;9.902418;-0.7469909
12:06:07:773;13:06:07:762;-1.2066777;9.902418;-0.7469909
12:06:07:781;13:06:07:762;-1.2066777;9.902418;-0.7469909
12:06:07:789;13:06:07:762;-1.2066777;9.902418;-0.7469909
12:06:07:796;13:06:07:762;-1.2066777;9.902418;-0.7469909
12:06:07:804;13:06:07:762;-1.2066777;9.902418;-0.7469909
12:06:07:812;13:06:07:762;-1.2066777;9.902418;-0.7469909
12:06:07:820;13:06:07:762;-1.2066777;9.902418;-0.7469909
12:06:07:828;13:06:07:762;-1.2066777;9.902418;-0.7469909
12:06:07:835;13:06:07:762;-1.2066777;9.902418;-0.7469909
12:06:07:843;13:06:07:762;-1.2066777;9.902418;-0.7469909
12:06:07:851;13:06:07:762;-1.2066777;9.902418;-0.7469909
12:06:07:859;13:06:07:762;-1.2066777;9.902418;-0.7469909
12:06:07:867;13:06:07:762;-1.2066777;9.902418;-0.7469909
12:06:07:875;13:06:07:762;-1.2066777;9.902418;-0.7469909
12:06:07:882;13:06:07:762;-1.2066777;9.902418;-0.7469909
12:06:07:890;13:06:07:762;-1.2066777;9.902418;-0.7469909
12:06:07:898;13:06:07:762;-1.2066777;9.902418;-0.7469909
12:06:07:906;13:06:07:762;-1.2066777;9.902418;-0.7469909
12:06:07:914;13:06:07:762;-1.2066777;9.902418;-0.7469909
12:06:07:921;13:06:07:762;-1.2066777;9.902418;-0.7469909
12:06:07:929;13:06:07:926;-1.283292;10.323798;-1.091756
12:06:07:937;13:06:07:926;-1.283292;10.323798;-1.091756
12:06:07:945;13:06:07:926;-1.283292;10.323798;-1.091756
12:06:07:953;13:06:07:926;-1.283292;10.323798;-1.091756
12:06:07:960;13:06:07:926;-1.283292;10.323798;-1.091756
12:06:07:968;13:06:07:926;-1.283292;10.323798;-1.091756
12:06:07:976;13:06:07:926;-1.283292;10.323798;-1.091756
12:06:07:984;13:06:07:926;-1.283292;10.323798;-1.091756
12:06:07:992;13:06:07:926;-1.283292;10.323798;-1.091756
12:06:08:000;13:06:07:926;-1.283292;10.323798;-1.091756
12:06:08:007;13:06:07:926;-1.283292;10.323798;-1.091756
12:06:08:015;13:06:07:926;-1.283292;10.323798;-1.091756
12:06:08:023;13:06:07:926;-1.283292;10.323798;-1.091756
12:06:08:031;13:06:07:926;-1.283292;10.323798;-1.091756
12:06:08:039;13:06:07:926;-1.283292;10.323798;-1.091756
12:06:08:046;13:06:08:041;-1.1875241;10.43872;-0.8619126
12:06:08:054;13:06:08:041;-1.1875241;10.43872;-0.8619126
12:06:08:062;13:06:08:041;-1.1875241;10.43872;-0.8619126
12:06:08:070;13:06:08:041;-1.1875241;10.43872;-0.8619126
12:06:08:078;13:06:08:041;-1.1875241;10.43872;-0.8619126
12:06:08:085;13:06:08:041;-1.1875241;10.43872;-0.8619126
12:06:08:093;13:06:08:041;-1.1875241;10.43872;-0.8619126
12:06:08:101;13:06:08:041;-1.1875241;10.43872;-0.8619126
12:06:08:109;13:06:08:041;-1.1875241;10.43872;-0.8619126
12:06:08:117;13:06:08:041;-1.1875241;10.43872;-0.8619126
12:06:08:125;13:06:08:041;-1.1875241;10.43872;-0.8619126
12:06:08:132;13:06:08:041;-1.1875241;10.43872;-0.8619126
12:06:08:140;13:06:08:041;-1.1875241;10.43872;-0.8619126
12:06:08:148;13:06:08:041;-1.1875241;10.43872;-0.8619126
12:06:08:156;13:06:08:041;-1.1875241;10.43872;-0.8619126
12:06:08:164;13:06:08:160;-0.842759;10.055647;-0.6703765
12:06:08:171;13:06:08:160;-0.842759;10.055647;-0.6703765
12:06:08:179;13:06:08:160;-0.842759;10.055647;-0.6703765
12:06:08:187;13:06:08:160;-0.842759;10.055647;-0.6703765
12:06:08:195;13:06:08:160;-0.842759;10.055647;-0.6703765
12:06:08:203;13:06:08:160;-0.842759;10.055647;-0.6703765
12:06:08:210;13:06:08:160;-0.842759;10.055647;-0.6703765
12:06:08:218;13:06:08:160;-0.842759;10.055647;-0.6703765
12:06:08:226;13:06:08:160;-0.842759;10.055647;-0.6703765
12:06:08:234;13:06:08:160;-0.842759;10.055647;-0.6703765
12:06:08:242;13:06:08:160;-0.842759;10.055647;-0.6703765
12:06:08:250;13:06:08:160;-0.842759;10.055647;-0.6703765
12:06:08:257;13:06:08:160;-0.842759;10.055647;-0.6703765
12:06:08:265;13:06:08:160;-0.842759;10.055647;-0.6703765
12:06:08:273;13:06:08:160;-0.842759;10.055647;-0.6703765
12:06:08:281;13:06:08:160;-0.842759;10.055647;-0.6703765
12:06:08:289;13:06:08:288;-0.9959879;9.653421;-0.5363012
12:06:08:296;13:06:08:288;-0.9959879;9.653421;-0.5363012
12:06:08:304;13:06:08:288;-0.9959879;9.653421;-0.5363012
12:06:08:312;13:06:08:288;-0.9959879;9.653421;-0.5363012
12:06:08:320;13:06:08:288;-0.9959879;9.653421;-0.5363012
12:06:08:328;13:06:08:288;-0.9959879;9.653421;-0.5363012
12:06:08:335;13:06:08:288;-0.9959879;9.653421;-0.5363012
12:06:08:343;13:06:08:288;-0.9959879;9.653421;-0.5363012
12:06:08:351;13:06:08:288;-0.9959879;9.653421;-0.5363012
12:06:08:359;13:06:08:288;-0.9959879;9.653421;-0.5363012
12:06:08:367;13:06:08:288;-0.9959879;9.653421;-0.5363012
12:06:08:375;13:06:08:288;-0.9959879;9.653421;-0.5363012
12:06:08:382;13:06:08:288;-0.9959879;9.653421;-0.5363012
12:06:08:390;13:06:08:288;-0.9959879;9.653421;-0.5363012
12:06:08:398;13:06:08:288;-0.9959879;9.653421;-0.5363012
12:06:08:406;13:06:08:406;-1.1300632;10.668563;0.6512229
12:06:08:414;13:06:08:406;-1.1300632;10.668563;0.6512229
12:06:08:421;13:06:08:406;-1.1300632;10.668563;0.6512229
12:06:08:429;13:06:08:406;-1.1300632;10.668563;0.6512229
12:06:08:437;13:06:08:406;-1.1300632;10.668563;0.6512229
12:06:08:445;13:06:08:406;-1.1300632;10.668563;0.6512229
12:06:08:453;13:06:08:406;-1.1300632;10.668563;0.6512229
12:06:08:460;13:06:08:406;-1.1300632;10.668563;0.6512229
12:06:08:468;13:06:08:406;-1.1300632;10.668563;0.6512229
12:06:08:476;13:06:08:406;-1.1300632;10.668563;0.6512229
12:06:08:484;13:06:08:406;-1.1300632;10.668563;0.6512229
12:06:08:492;13:06:08:406;-1.1300632;10.668563;0.6512229
12:06:08:500;13:06:08:406;-1.1300632;10.668563;0.6512229
12:06:08:507;13:06:08:406;-1.1300632;10.668563;0.6512229
12:06:08:515;13:06:08:511;-0.91937345;9.883265;-0.9768343
12:06:08:523;13:06:08:511;-0.91937345;9.883265;-0.9768343
12:06:08:531;13:06:08:511;-0.91937345;9.883265;-0.9768343
12:06:08:539;13:06:08:511;-0.91937345;9.883265;-0.9768343
12:06:08:546;13:06:08:511;-0.91937345;9.883265;-0.9768343
12:06:08:554;13:06:08:511;-0.91937345;9.883265;-0.9768343
12:06:08:562;13:06:08:511;-0.91937345;9.883265;-0.9768343
12:06:08:570;13:06:08:511;-0.91937345;9.883265;-0.9768343
12:06:08:578;13:06:08:511;-0.91937345;9.883265;-0.9768343
12:06:08:585;13:06:08:511;-0.91937345;9.883265;-0.9768343
12:06:08:593;13:06:08:511;-0.91937345;9.883265;-0.9768343
12:06:08:601;13:06:08:511;-0.91937345;9.883265;-0.9768343
12:06:08:609;13:06:08:511;-0.91937345;9.883265;-0.9768343
12:06:08:617;13:06:08:612;-1.0342951;9.481039;-0.6512229
12:06:08:625;13:06:08:612;-1.0342951;9.481039;-0.6512229
12:06:08:632;13:06:08:612;-1.0342951;9.481039;-0.6512229
12:06:08:640;13:06:08:612;-1.0342951;9.481039;-0.6512229
12:06:08:648;13:06:08:612;-1.0342951;9.481039;-0.6512229
12:06:08:656;13:06:08:612;-1.0342951;9.481039;-0.6512229
12:06:08:664;13:06:08:612;-1.0342951;9.481039;-0.6512229
12:06:08:671;13:06:08:612;-1.0342951;9.481039;-0.6512229
12:06:08:679;13:06:08:612;-1.0342951;9.481039;-0.6512229
12:06:08:687;13:06:08:612;-1.0342951;9.481039;-0.6512229
12:06:08:695;13:06:08:612;-1.0342951;9.481039;-0.6512229
12:06:08:703;13:06:08:612;-1.0342951;9.481039;-0.6512229
12:06:08:710;13:06:08:612;-1.0342951;9.481039;-0.6512229
12:06:08:718;13:06:08:612;-1.0342951;9.481039;-0.6512229
12:06:08:726;13:06:08:612;-1.0342951;9.481039;-0.6512229
12:06:08:734;13:06:08:727;-1.1492168;10.534488;0.2873042
12:06:08:742;13:06:08:727;-1.1492168;10.534488;0.2873042
12:06:08:750;13:06:08:727;-1.1492168;10.534488;0.2873042
12:06:08:757;13:06:08:727;-1.1492168;10.534488;0.2873042
12:06:08:765;13:06:08:727;-1.1492168;10.534488;0.2873042
12:06:08:773;13:06:08:727;-1.1492168;10.534488;0.2873042
12:06:08:781;13:06:08:727;-1.1492168;10.534488;0.2873042
12:06:08:789;13:06:08:727;-1.1492168;10.534488;0.2873042
12:06:08:796;13:06:08:727;-1.1492168;10.534488;0.2873042
12:06:08:804;13:06:08:727;-1.1492168;10.534488;0.2873042
12:06:08:812;13:06:08:727;-1.1492168;10.534488;0.2873042
12:06:08:820;13:06:08:727;-1.1492168;10.534488;0.2873042
12:06:08:828;13:06:08:727;-1.1492168;10.534488;0.2873042
12:06:08:835;13:06:08:830;-0.8619126;10.5919485;-1.5131354
12:06:08:843;13:06:08:830;-0.8619126;10.5919485;-1.5131354
12:06:08:851;13:06:08:830;-0.8619126;10.5919485;-1.5131354
12:06:08:859;13:06:08:830;-0.8619126;10.5919485;-1.5131354
12:06:08:867;13:06:08:830;-0.8619126;10.5919485;-1.5131354
12:06:08:875;13:06:08:830;-0.8619126;10.5919485;-1.5131354
12:06:08:882;13:06:08:830;-0.8619126;10.5919485;-1.5131354
12:06:08:890;13:06:08:830;-0.8619126;10.5919485;-1.5131354
12:06:08:898;13:06:08:830;-0.8619126;10.5919485;-1.5131354
12:06:08:906;13:06:08:830;-0.8619126;10.5919485;-1.5131354
12:06:08:914;13:06:08:830;-0.8619126;10.5919485;-1.5131354
12:06:08:921;13:06:08:830;-0.8619126;10.5919485;-1.5131354
12:06:08:929;13:06:08:830;-0.8619126;10.5919485;-1.5131354
12:06:08:937;13:06:08:935;-0.8810662;10.228029;-0.9768343
12:06:08:945;13:06:08:935;-0.8810662;10.228029;-0.9768343
12:06:08:953;13:06:08:935;-0.8810662;10.228029;-0.9768343
12:06:08:960;13:06:08:935;-0.8810662;10.228029;-0.9768343
12:06:08:968;13:06:08:935;-0.8810662;10.228029;-0.9768343
12:06:08:976;13:06:08:935;-0.8810662;10.228029;-0.9768343
12:06:08:984;13:06:08:935;-0.8810662;10.228029;-0.9768343
12:06:08:992;13:06:08:935;-0.8810662;10.228029;-0.9768343
12:06:09:000;13:06:08:935;-0.8810662;10.228029;-0.9768343
12:06:09:007;13:06:08:935;-0.8810662;10.228029;-0.9768343
12:06:09:015;13:06:08:935;-0.8810662;10.228029;-0.9768343
12:06:09:023;13:06:08:935;-0.8810662;10.228029;-0.9768343
12:06:09:031;13:06:08:935;-0.8810662;10.228029;-0.9768343
12:06:09:039;13:06:08:935;-0.8810662;10.228029;-0.9768343
12:06:09:046;13:06:08:935;-0.8810662;10.228029;-0.9768343
12:06:09:054;13:06:09:052;-0.842759;10.170568;-1.4748282
12:06:09:062;13:06:09:052;-0.842759;10.170568;-1.4748282
12:06:09:070;13:06:09:052;-0.842759;10.170568;-1.4748282
12:06:09:078;13:06:09:052;-0.842759;10.170568;-1.4748282
12:06:09:085;13:06:09:052;-0.842759;10.170568;-1.4748282
12:06:09:093;13:06:09:052;-0.842759;10.170568;-1.4748282
12:06:09:101;13:06:09:052;-0.842759;10.170568;-1.4748282
12:06:09:109;13:06:09:052;-0.842759;10.170568;-1.4748282
12:06:09:117;13:06:09:052;-0.842759;10.170568;-1.4748282
12:06:09:125;13:06:09:052;-0.842759;10.170568;-1.4748282
12:06:09:132;13:06:09:052;-0.842759;10.170568;-1.4748282
12:06:09:140;13:06:09:052;-0.842759;10.170568;-1.4748282
12:06:09:148;13:06:09:052;-0.842759;10.170568;-1.4748282
12:06:09:156;13:06:09:154;-0.91937345;10.572795;-1.5514427
12:06:09:164;13:06:09:154;-0.91937345;10.572795;-1.5514427
12:06:09:171;13:06:09:154;-0.91937345;10.572795;-1.5514427
12:06:09:179;13:06:09:154;-0.91937345;10.572795;-1.5514427
12:06:09:187;13:06:09:154;-0.91937345;10.572795;-1.5514427
12:06:09:195;13:06:09:154;-0.91937345;10.572795;-1.5514427
12:06:09:203;13:06:09:154;-0.91937345;10.572795;-1.5514427
12:06:09:210;13:06:09:154;-0.91937345;10.572795;-1.5514427
12:06:09:218;13:06:09:154;-0.91937345;10.572795;-1.5514427
12:06:09:226;13:06:09:154;-0.91937345;10.572795;-1.5514427
12:06:09:234;13:06:09:154;-0.91937345;10.572795;-1.5514427
12:06:09:242;13:06:09:154;-0.91937345;10.572795;-1.5514427
12:06:09:250;13:06:09:154;-0.91937345;10.572795;-1.5514427
12:06:09:257;13:06:09:154;-0.91937345;10.572795;-1.5514427
12:06:09:265;13:06:09:154;-0.91937345;10.572795;-1.5514427
12:06:09:273;13:06:09:154;-0.91937345;10.572795;-1.5514427
12:06:09:281;13:06:09:154;-0.91937345;10.572795;-1.5514427
12:06:09:289;13:06:09:154;-0.91937345;10.572795;-1.5514427
12:06:09:296;13:06:09:154;-0.91937345;10.572795;-1.5514427
12:06:09:304;13:06:09:154;-0.91937345;10.572795;-1.5514427
12:06:09:312;13:06:09:154;-0.91937345;10.572795;-1.5514427
12:06:09:320;13:06:09:154;-0.91937345;10.572795;-1.5514427
12:06:09:328;13:06:09:154;-0.91937345;10.572795;-1.5514427
12:06:09:335;13:06:09:154;-0.91937345;10.572795;-1.5514427
12:06:09:343;13:06:09:337;-0.91937345;9.385271;-0.842759
12:06:09:351;13:06:09:337;-0.91937345;9.385271;-0.842759
12:06:09:359;13:06:09:337;-0.91937345;9.385271;-0.842759
12:06:09:367;13:06:09:337;-0.91937345;9.385271;-0.842759
12:06:09:375;13:06:09:337;-0.91937345;9.385271;-0.842759
12:06:09:382;13:06:09:337;-0.91937345;9.385271;-0.842759
12:06:09:390;13:06:09:337;-0.91937345;9.385271;-0.842759
12:06:09:398;13:06:09:337;-0.91937345;9.385271;-0.842759
12:06:09:406;13:06:09:337;-0.91937345;9.385271;-0.842759
12:06:09:414;13:06:09:337;-0.91937345;9.385271;-0.842759
12:06:09:421;13:06:09:337;-0.91937345;9.385271;-0.842759
12:06:09:429;13:06:09:337;-0.91937345;9.385271;-0.842759
12:06:09:437;13:06:09:337;-0.91937345;9.385271;-0.842759
12:06:09:445;13:06:09:442;-1.0726024;9.3661175;-0.91937345
12:06:09:453;13:06:09:442;-1.0726024;9.3661175;-0.91937345
12:06:09:460;13:06:09:442;-1.0726024;9.3661175;-0.91937345
12:06:09:468;13:06:09:442;-1.0726024;9.3661175;-0.91937345
12:06:09:476;13:06:09:442;-1.0726024;9.3661175;-0.91937345
12:06:09:484;13:06:09:442;-1.0726024;9.3661175;-0.91937345
12:06:09:492;13:06:09:442;-1.0726024;9.3661175;-0.91937345
12:06:09:500;13:06:09:442;-1.0726024;9.3661175;-0.91937345
12:06:09:507;13:06:09:442;-1.0726024;9.3661175;-0.91937345
12:06:09:515;13:06:09:442;-1.0726024;9.3661175;-0.91937345
12:06:09:523;13:06:09:442;-1.0726024;9.3661175;-0.91937345
12:06:09:531;13:06:09:442;-1.0726024;9.3661175;-0.91937345
12:06:09:539;13:06:09:442;-1.0726024;9.3661175;-0.91937345
12:06:09:546;13:06:09:442;-1.0726024;9.3661175;-0.91937345
12:06:09:554;13:06:09:442;-1.0726024;9.3661175;-0.91937345
12:06:09:562;13:06:09:442;-1.0726024;9.3661175;-0.91937345
12:06:09:570;13:06:09:442;-1.0726024;9.3661175;-0.91937345
12:06:09:578;13:06:09:442;-1.0726024;9.3661175;-0.91937345
12:06:09:585;13:06:09:580;-0.36391866;10.036493;-0.7661445
12:06:09:593;13:06:09:580;-0.36391866;10.036493;-0.7661445
12:06:09:601;13:06:09:580;-0.36391866;10.036493;-0.7661445
12:06:09:609;13:06:09:580;-0.36391866;10.036493;-0.7661445
12:06:09:617;13:06:09:580;-0.36391866;10.036493;-0.7661445
12:06:09:625;13:06:09:580;-0.36391866;10.036493;-0.7661445
12:06:09:632;13:06:09:580;-0.36391866;10.036493;-0.7661445
12:06:09:640;13:06:09:580;-0.36391866;10.036493;-0.7661445
12:06:09:648;13:06:09:580;-0.36391866;10.036493;-0.7661445
12:06:09:656;13:06:09:580;-0.36391866;10.036493;-0.7661445
12:06:09:664;13:06:09:580;-0.36391866;10.036493;-0.7661445
12:06:09:671;13:06:09:580;-0.36391866;10.036493;-0.7661445
12:06:09:679;13:06:09:580;-0.36391866;10.036493;-0.7661445
12:06:09:687;13:06:09:686;-1.0151415;10.955867;-0.7278373
12:06:09:695;13:06:09:686;-1.0151415;10.955867;-0.7278373
12:06:09:703;13:06:09:686;-1.0151415;10.955867;-0.7278373
12:06:09:710;13:06:09:686;-1.0151415;10.955867;-0.7278373
12:06:09:718;13:06:09:686;-1.0151415;10.955867;-0.7278373
12:06:09:726;13:06:09:686;-1.0151415;10.955867;-0.7278373
12:06:09:734;13:06:09:686;-1.0151415;10.955867;-0.7278373
12:06:09:742;13:06:09:686;-1.0151415;10.955867;-0.7278373
12:06:09:750;13:06:09:686;-1.0151415;10.955867;-0.7278373
12:06:09:757;13:06:09:686;-1.0151415;10.955867;-0.7278373
12:06:09:765;13:06:09:686;-1.0151415;10.955867;-0.7278373
12:06:09:773;13:06:09:686;-1.0151415;10.955867;-0.7278373
12:06:09:781;13:06:09:686;-1.0151415;10.955867;-0.7278373
12:06:09:789;13:06:09:787;-0.8810662;10.342952;-0.8810662
12:06:09:796;13:06:09:787;-0.8810662;10.342952;-0.8810662
12:06:09:804;13:06:09:787;-0.8810662;10.342952;-0.8810662
12:06:09:812;13:06:09:787;-0.8810662;10.342952;-0.8810662
12:06:09:820;13:06:09:787;-0.8810662;10.342952;-0.8810662
12:06:09:828;13:06:09:787;-0.8810662;10.342952;-0.8810662
12:06:09:835;13:06:09:787;-0.8810662;10.342952;-0.8810662
12:06:09:843;13:06:09:787;-0.8810662;10.342952;-0.8810662
12:06:09:851;13:06:09:787;-0.8810662;10.342952;-0.8810662
12:06:09:859;13:06:09:787;-0.8810662;10.342952;-0.8810662
12:06:09:867;13:06:09:787;-0.8810662;10.342952;-0.8810662
12:06:09:875;13:06:09:787;-0.8810662;10.342952;-0.8810662
12:06:09:882;13:06:09:787;-0.8810662;10.342952;-0.8810662
12:06:09:890;13:06:09:787;-0.8810662;10.342952;-0.8810662
12:06:09:898;13:06:09:787;-0.8810662;10.342952;-0.8810662
12:06:09:906;13:06:09:906;-1.0534488;9.9790325;-0.9959879
12:06:09:914;13:06:09:906;-1.0534488;9.9790325;-0.9959879
12:06:09:921;13:06:09:906;-1.0534488;9.9790325;-0.9959879
12:06:09:929;13:06:09:906;-1.0534488;9.9790325;-0.9959879
12:06:09:937;13:06:09:906;-1.0534488;9.9790325;-0.9959879
12:06:09:945;13:06:09:906;-1.0534488;9.9790325;-0.9959879
12:06:09:953;13:06:09:906;-1.0534488;9.9790325;-0.9959879
12:06:09:960;13:06:09:906;-1.0534488;9.9790325;-0.9959879
12:06:09:968;13:06:09:906;-1.0534488;9.9790325;-0.9959879
12:06:09:976;13:06:09:906;-1.0534488;9.9790325;-0.9959879
12:06:09:984;13:06:09:906;-1.0534488;9.9790325;-0.9959879
12:06:09:992;13:06:09:906;-1.0534488;9.9790325;-0.9959879
12:06:10:000;13:06:09:906;-1.0534488;9.9790325;-0.9959879
12:06:10:007;13:06:09:906;-1.0534488;9.9790325;-0.9959879
12:06:10:015;13:06:09:906;-1.0534488;9.9790325;-0.9959879
12:06:10:023;13:06:09:906;-1.0534488;9.9790325;-0.9959879
12:06:10:031;13:06:10:024;-1.0342951;9.193734;-0.019153614
12:06:10:039;13:06:10:024;-1.0342951;9.193734;-0.019153614
12:06:10:046;13:06:10:024;-1.0342951;9.193734;-0.019153614
12:06:10:054;13:06:10:024;-1.0342951;9.193734;-0.019153614
12:06:10:062;13:06:10:024;-1.0342951;9.193734;-0.019153614
12:06:10:070;13:06:10:024;-1.0342951;9.193734;-0.019153614
12:06:10:078;13:06:10:024;-1.0342951;9.193734;-0.019153614
12:06:10:085;13:06:10:024;-1.0342951;9.193734;-0.019153614
12:06:10:093;13:06:10:024;-1.0342951;9.193734;-0.019153614
12:06:10:101;13:06:10:024;-1.0342951;9.193734;-0.019153614
12:06:10:109;13:06:10:024;-1.0342951;9.193734;-0.019153614
12:06:10:117;13:06:10:024;-1.0342951;9.193734;-0.019153614
12:06:10:125;13:06:10:125;-0.7661445;9.078813;-0.91937345
12:06:10:132;13:06:10:125;-0.7661445;9.078813;-0.91937345
12:06:10:140;13:06:10:125;-0.7661445;9.078813;-0.91937345
12:06:10:148;13:06:10:125;-0.7661445;9.078813;-0.91937345
12:06:10:156;13:06:10:125;-0.7661445;9.078813;-0.91937345
12:06:10:164;13:06:10:125;-0.7661445;9.078813;-0.91937345
12:06:10:171;13:06:10:125;-0.7661445;9.078813;-0.91937345
12:06:10:179;13:06:10:125;-0.7661445;9.078813;-0.91937345
12:06:10:187;13:06:10:125;-0.7661445;9.078813;-0.91937345
12:06:10:195;13:06:10:125;-0.7661445;9.078813;-0.91937345
12:06:10:203;13:06:10:125;-0.7661445;9.078813;-0.91937345
12:06:10:210;13:06:10:125;-0.7661445;9.078813;-0.91937345
12:06:10:218;13:06:10:125;-0.7661445;9.078813;-0.91937345
12:06:10:226;13:06:10:125;-0.7661445;9.078813;-0.91937345
12:06:10:234;13:06:10:230;-1.0726024;9.481039;0.2681506
12:06:10:242;13:06:10:230;-1.0726024;9.481039;0.2681506
12:06:10:250;13:06:10:230;-1.0726024;9.481039;0.2681506
12:06:10:257;13:06:10:230;-1.0726024;9.481039;0.2681506
12:06:10:265;13:06:10:230;-1.0726024;9.481039;0.2681506
12:06:10:273;13:06:10:230;-1.0726024;9.481039;0.2681506
12:06:10:281;13:06:10:230;-1.0726024;9.481039;0.2681506
12:06:10:289;13:06:10:230;-1.0726024;9.481039;0.2681506
12:06:10:296;13:06:10:230;-1.0726024;9.481039;0.2681506
12:06:10:304;13:06:10:230;-1.0726024;9.481039;0.2681506
12:06:10:312;13:06:10:230;-1.0726024;9.481039;0.2681506
12:06:10:320;13:06:10:230;-1.0726024;9.481039;0.2681506
12:06:10:328;13:06:10:230;-1.0726024;9.481039;0.2681506
12:06:10:335;13:06:10:332;-1.0726024;10.362105;0.05746084
12:06:10:343;13:06:10:332;-1.0726024;10.362105;0.05746084
12:06:10:351;13:06:10:332;-1.0726024;10.362105;0.05746084
12:06:10:359;13:06:10:332;-1.0726024;10.362105;0.05746084
12:06:10:367;13:06:10:332;-1.0726024;10.362105;0.05746084
12:06:10:375;13:06:10:332;-1.0726024;10.362105;0.05746084
12:06:10:382;13:06:10:332;-1.0726024;10.362105;0.05746084
12:06:10:390;13:06:10:332;-1.0726024;10.362105;0.05746084
12:06:10:398;13:06:10:332;-1.0726024;10.362105;0.05746084
12:06:10:406;13:06:10:332;-1.0726024;10.362105;0.05746084
12:06:10:414;13:06:10:332;-1.0726024;10.362105;0.05746084
12:06:10:421;13:06:10:332;-1.0726024;10.362105;0.05746084
12:06:10:429;13:06:10:332;-1.0726024;10.362105;0.05746084
12:06:10:437;13:06:10:436;-1.340753;10.342952;0.9959879
12:06:10:445;13:06:10:436;-1.340753;10.342952;0.9959879
12:06:10:453;13:06:10:436;-1.340753;10.342952;0.9959879
12:06:10:460;13:06:10:436;-1.340753;10.342952;0.9959879
12:06:10:468;13:06:10:436;-1.340753;10.342952;0.9959879
12:06:10:476;13:06:10:436;-1.340753;10.342952;0.9959879
12:06:10:484;13:06:10:436;-1.340753;10.342952;0.9959879
12:06:10:492;13:06:10:436;-1.340753;10.342952;0.9959879
12:06:10:500;13:06:10:436;-1.340753;10.342952;0.9959879
12:06:10:507;13:06:10:436;-1.340753;10.342952;0.9959879
12:06:10:515;13:06:10:436;-1.340753;10.342952;0.9959879
12:06:10:523;13:06:10:436;-1.340753;10.342952;0.9959879
12:06:10:531;13:06:10:436;-1.340753;10.342952;0.9959879
12:06:10:539;13:06:10:436;-1.340753;10.342952;0.9959879
12:06:10:546;13:06:10:436;-1.340753;10.342952;0.9959879
12:06:10:554;13:06:10:436;-1.340753;10.342952;0.9959879
12:06:10:562;13:06:10:436;-1.340753;10.342952;0.9959879
12:06:10:570;13:06:10:436;-1.340753;10.342952;0.9959879
12:06:10:578;13:06:10:571;-0.78529817;11.147403;-0.40222588
12:06:10:585;13:06:10:571;-0.78529817;11.147403;-0.40222588
12:06:10:593;13:06:10:571;-0.78529817;11.147403;-0.40222588
12:06:10:601;13:06:10:571;-0.78529817;11.147403;-0.40222588
12:06:10:609;13:06:10:571;-0.78529817;11.147403;-0.40222588
12:06:10:617;13:06:10:571;-0.78529817;11.147403;-0.40222588
12:06:10:625;13:06:10:571;-0.78529817;11.147403;-0.40222588
12:06:10:632;13:06:10:571;-0.78529817;11.147403;-0.40222588
12:06:10:640;13:06:10:571;-0.78529817;11.147403;-0.40222588
12:06:10:648;13:06:10:571;-0.78529817;11.147403;-0.40222588
12:06:10:656;13:06:10:571;-0.78529817;11.147403;-0.40222588
12:06:10:664;13:06:10:571;-0.78529817;11.147403;-0.40222588
12:06:10:671;13:06:10:571;-0.78529817;11.147403;-0.40222588
12:06:10:679;13:06:10:674;-0.40222588;9.021352;1.436521
12:06:10:687;13:06:10:674;-0.40222588;9.021352;1.436521
12:06:10:695;13:06:10:674;-0.40222588;9.021352;1.436521
12:06:10:703;13:06:10:674;-0.40222588;9.021352;1.436521
12:06:10:710;13:06:10:674;-0.40222588;9.021352;1.436521
12:06:10:718;13:06:10:674;-0.40222588;9.021352;1.436521
12:06:10:726;13:06:10:674;-0.40222588;9.021352;1.436521
12:06:10:734;13:06:10:674;-0.40222588;9.021352;1.436521
12:06:10:742;13:06:10:674;-0.40222588;9.021352;1.436521
12:06:10:750;13:06:10:674;-0.40222588;9.021352;1.436521
12:06:10:757;13:06:10:674;-0.40222588;9.021352;1.436521
12:06:10:765;13:06:10:674;-0.40222588;9.021352;1.436521
12:06:10:773;13:06:10:674;-0.40222588;9.021352;1.436521
12:06:10:781;13:06:10:674;-0.40222588;9.021352;1.436521
12:06:10:789;13:06:10:674;-0.40222588;9.021352;1.436521
12:06:10:796;13:06:10:792;-0.91937345;10.113108;0.36391866
12:06:10:804;13:06:10:792;-0.91937345;10.113108;0.36391866
12:06:10:812;13:06:10:792;-0.91937345;10.113108;0.36391866
12:06:10:820;13:06:10:792;-0.91937345;10.113108;0.36391866
12:06:10:828;13:06:10:792;-0.91937345;10.113108;0.36391866
12:06:10:835;13:06:10:792;-0.91937345;10.113108;0.36391866
12:06:10:843;13:06:10:792;-0.91937345;10.113108;0.36391866
12:06:10:851;13:06:10:792;-0.91937345;10.113108;0.36391866
12:06:10:859;13:06:10:792;-0.91937345;10.113108;0.36391866
12:06:10:867;13:06:10:792;-0.91937345;10.113108;0.36391866
12:06:10:875;13:06:10:792;-0.91937345;10.113108;0.36391866
12:06:10:882;13:06:10:792;-0.91937345;10.113108;0.36391866
12:06:10:890;13:06:10:792;-0.91937345;10.113108;0.36391866
12:06:10:898;13:06:10:792;-0.91937345;10.113108;0.36391866
12:06:10:906;13:06:10:792;-0.91937345;10.113108;0.36391866
12:06:10:914;13:06:10:910;-1.2641385;10.189722;1.1109096
12:06:10:921;13:06:10:910;-1.2641385;10.189722;1.1109096
12:06:10:929;13:06:10:910;-1.2641385;10.189722;1.1109096
12:06:10:937;13:06:10:910;-1.2641385;10.189722;1.1109096
12:06:10:945;13:06:10:910;-1.2641385;10.189722;1.1109096
12:06:10:953;13:06:10:910;-1.2641385;10.189722;1.1109096
12:06:10:960;13:06:10:910;-1.2641385;10.189722;1.1109096
12:06:10:968;13:06:10:910;-1.2641385;10.189722;1.1109096
12:06:10:976;13:06:10:910;-1.2641385;10.189722;1.1109096
12:06:10:984;13:06:10:910;-1.2641385;10.189722;1.1109096
12:06:10:992;13:06:10:910;-1.2641385;10.189722;1.1109096
12:06:11:000;13:06:10:910;-1.2641385;10.189722;1.1109096
12:06:11:007;13:06:10:910;-1.2641385;10.189722;1.1109096
12:06:11:015;13:06:11:011;-0.38307226;9.710882;1.091756
12:06:11:023;13:06:11:011;-0.38307226;9.710882;1.091756
12:06:11:031;13:06:11:011;-0.38307226;9.710882;1.091756
12:06:11:039;13:06:11:011;-0.38307226;9.710882;1.091756
12:06:11:046;13:06:11:011;-0.38307226;9.710882;1.091756
12:06:11:054;13:06:11:011;-0.38307226;9.710882;1.091756
12:06:11:062;13:06:11:011;-0.38307226;9.710882;1.091756
12:06:11:070;13:06:11:011;-0.38307226;9.710882;1.091756
12:06:11:078;13:06:11:011;-0.38307226;9.710882;1.091756
12:06:11:085;13:06:11:011;-0.38307226;9.710882;1.091756
12:06:11:093;13:06:11:011;-0.38307226;9.710882;1.091756
12:06:11:101;13:06:11:011;-0.38307226;9.710882;1.091756
12:06:11:109;13:06:11:011;-0.38307226;9.710882;1.091756
12:06:11:117;13:06:11:011;-0.38307226;9.710882;1.091756
12:06:11:125;13:06:11:011;-0.38307226;9.710882;1.091756
12:06:11:132;13:06:11:130;-0.8810662;9.710882;1.2641385
12:06:11:140;13:06:11:130;-0.8810662;9.710882;1.2641385
12:06:11:148;13:06:11:130;-0.8810662;9.710882;1.2641385
12:06:11:156;13:06:11:130;-0.8810662;9.710882;1.2641385
12:06:11:164;13:06:11:130;-0.8810662;9.710882;1.2641385
12:06:11:171;13:06:11:130;-0.8810662;9.710882;1.2641385
12:06:11:179;13:06:11:130;-0.8810662;9.710882;1.2641385
12:06:11:187;13:06:11:130;-0.8810662;9.710882;1.2641385
12:06:11:195;13:06:11:130;-0.8810662;9.710882;1.2641385
12:06:11:203;13:06:11:130;-0.8810662;9.710882;1.2641385
12:06:11:210;13:06:11:130;-0.8810662;9.710882;1.2641385
12:06:11:218;13:06:11:130;-0.8810662;9.710882;1.2641385
12:06:11:226;13:06:11:130;-0.8810662;9.710882;1.2641385
12:06:11:234;13:06:11:130;-0.8810662;9.710882;1.2641385
12:06:11:242;13:06:11:130;-0.8810662;9.710882;1.2641385
12:06:11:250;13:06:11:247;-0.61291564;10.28549;1.2066777
12:06:11:257;13:06:11:247;-0.61291564;10.28549;1.2066777
12:06:11:265;13:06:11:247;-0.61291564;10.28549;1.2066777
12:06:11:273;13:06:11:247;-0.61291564;10.28549;1.2066777
12:06:11:281;13:06:11:247;-0.61291564;10.28549;1.2066777
12:06:11:289;13:06:11:247;-0.61291564;10.28549;1.2066777
12:06:11:296;13:06:11:247;-0.61291564;10.28549;1.2066777
12:06:11:304;13:06:11:247;-0.61291564;10.28549;1.2066777
12:06:11:312;13:06:11:247;-0.61291564;10.28549;1.2066777
12:06:11:320;13:06:11:247;-0.61291564;10.28549;1.2066777
12:06:11:328;13:06:11:247;-0.61291564;10.28549;1.2066777
12:06:11:335;13:06:11:247;-0.61291564;10.28549;1.2066777
12:06:11:343;13:06:11:247;-0.61291564;10.28549;1.2066777
12:06:11:351;13:06:11:350;-0.40222588;10.266336;1.7046716
12:06:11:359;13:06:11:350;-0.40222588;10.266336;1.7046716
12:06:11:367;13:06:11:350;-0.40222588;10.266336;1.7046716
12:06:11:375;13:06:11:350;-0.40222588;10.266336;1.7046716
12:06:11:382;13:06:11:350;-0.40222588;10.266336;1.7046716
12:06:11:390;13:06:11:350;-0.40222588;10.266336;1.7046716
12:06:11:398;13:06:11:350;-0.40222588;10.266336;1.7046716
12:06:11:406;13:06:11:350;-0.40222588;10.266336;1.7046716
12:06:11:414;13:06:11:350;-0.40222588;10.266336;1.7046716
12:06:11:421;13:06:11:350;-0.40222588;10.266336;1.7046716
12:06:11:429;13:06:11:350;-0.40222588;10.266336;1.7046716
12:06:11:437;13:06:11:350;-0.40222588;10.266336;1.7046716
12:06:11:445;13:06:11:350;-0.40222588;10.266336;1.7046716
12:06:11:453;13:06:11:350;-0.40222588;10.266336;1.7046716
12:06:11:460;13:06:11:455;-0.30645782;9.385271;2.96881
12:06:11:468;13:06:11:455;-0.30645782;9.385271;2.96881
12:06:11:476;13:06:11:455;-0.30645782;9.385271;2.96881
12:06:11:484;13:06:11:455;-0.30645782;9.385271;2.96881
12:06:11:492;13:06:11:455;-0.30645782;9.385271;2.96881
12:06:11:500;13:06:11:455;-0.30645782;9.385271;2.96881
12:06:11:507;13:06:11:455;-0.30645782;9.385271;2.96881
12:06:11:515;13:06:11:455;-0.30645782;9.385271;2.96881
12:06:11:523;13:06:11:455;-0.30645782;9.385271;2.96881
12:06:11:531;13:06:11:455;-0.30645782;9.385271;2.96881
12:06:11:539;13:06:11:455;-0.30645782;9.385271;2.96881
12:06:11:546;13:06:11:455;-0.30645782;9.385271;2.96881
12:06:11:554;13:06:11:455;-0.30645782;9.385271;2.96881
12:06:11:562;13:06:11:559;-0.15322891;9.232041;2.7581203
12:06:11:570;13:06:11:559;-0.15322891;9.232041;2.7581203
12:06:11:578;13:06:11:559;-0.15322891;9.232041;2.7581203
12:06:11:585;13:06:11:559;-0.15322891;9.232041;2.7581203
12:06:11:593;13:06:11:559;-0.15322891;9.232041;2.7581203
12:06:11:601;13:06:11:559;-0.15322891;9.232041;2.7581203
12:06:11:609;13:06:11:559;-0.15322891;9.232041;2.7581203
12:06:11:617;13:06:11:559;-0.15322891;9.232041;2.7581203
12:06:11:625;13:06:11:559;-0.15322891;9.232041;2.7581203
12:06:11:632;13:06:11:559;-0.15322891;9.232041;2.7581203
12:06:11:640;13:06:11:559;-0.15322891;9.232041;2.7581203
12:06:11:648;13:06:11:559;-0.15322891;9.232041;2.7581203
12:06:11:656;13:06:11:559;-0.15322891;9.232041;2.7581203
12:06:11:664;13:06:11:559;-0.15322891;9.232041;2.7581203
12:06:11:671;13:06:11:559;-0.15322891;9.232041;2.7581203
12:06:11:679;13:06:11:674;-0.22984336;10.553641;1.6089035
12:06:11:687;13:06:11:674;-0.22984336;10.553641;1.6089035
12:06:11:695;13:06:11:674;-0.22984336;10.553641;1.6089035
12:06:11:703;13:06:11:674;-0.22984336;10.553641;1.6089035
12:06:11:710;13:06:11:674;-0.22984336;10.553641;1.6089035
12:06:11:718;13:06:11:674;-0.22984336;10.553641;1.6089035
12:06:11:726;13:06:11:674;-0.22984336;10.553641;1.6089035
12:06:11:734;13:06:11:674;-0.22984336;10.553641;1.6089035
12:06:11:742;13:06:11:674;-0.22984336;10.553641;1.6089035
12:06:11:750;13:06:11:674;-0.22984336;10.553641;1.6089035
12:06:11:757;13:06:11:674;-0.22984336;10.553641;1.6089035
12:06:11:765;13:06:11:674;-0.22984336;10.553641;1.6089035
12:06:11:773;13:06:11:674;-0.22984336;10.553641;1.6089035
12:06:11:781;13:06:11:777;0.19153613;10.247183;1.6663644
12:06:11:789;13:06:11:777;0.19153613;10.247183;1.6663644
12:06:11:796;13:06:11:777;0.19153613;10.247183;1.6663644
12:06:11:804;13:06:11:777;0.19153613;10.247183;1.6663644
12:06:11:812;13:06:11:777;0.19153613;10.247183;1.6663644
12:06:11:820;13:06:11:777;0.19153613;10.247183;1.6663644
12:06:11:828;13:06:11:777;0.19153613;10.247183;1.6663644
12:06:11:835;13:06:11:777;0.19153613;10.247183;1.6663644
12:06:11:843;13:06:11:777;0.19153613;10.247183;1.6663644
12:06:11:851;13:06:11:777;0.19153613;10.247183;1.6663644
12:06:11:859;13:06:11:777;0.19153613;10.247183;1.6663644
12:06:11:867;13:06:11:777;0.19153613;10.247183;1.6663644
12:06:11:875;13:06:11:777;0.19153613;10.247183;1.6663644
12:06:11:882;13:06:11:777;0.19153613;10.247183;1.6663644
12:06:11:890;13:06:11:777;0.19153613;10.247183;1.6663644
12:06:11:898;13:06:11:777;0.19153613;10.247183;1.6663644
12:06:11:906;13:06:11:777;0.19153613;10.247183;1.6663644
12:06:11:914;13:06:11:777;0.19153613;10.247183;1.6663644
12:06:11:921;13:06:11:917;0.19153613;9.155427;3.3327289
12:06:11:929;13:06:11:917;0.19153613;9.155427;3.3327289
12:06:11:937;13:06:11:917;0.19153613;9.155427;3.3327289
12:06:11:945;13:06:11:917;0.19153613;9.155427;3.3327289
12:06:11:953;13:06:11:917;0.19153613;9.155427;3.3327289
12:06:11:960;13:06:11:917;0.19153613;9.155427;3.3327289
12:06:11:968;13:06:11:917;0.19153613;9.155427;3.3327289
12:06:11:976;13:06:11:917;0.19153613;9.155427;3.3327289
12:06:11:984;13:06:11:917;0.19153613;9.155427;3.3327289
12:06:11:992;13:06:11:917;0.19153613;9.155427;3.3327289
12:06:12:000;13:06:11:917;0.19153613;9.155427;3.3327289
12:06:12:007;13:06:11:917;0.19153613;9.155427;3.3327289
12:06:12:015;13:06:11:917;0.19153613;9.155427;3.3327289
12:06:12:023;13:06:11:917;0.19153613;9.155427;3.3327289
12:06:12:031;13:06:12:030;0.038307227;8.350976;3.064578
12:06:12:039;13:06:12:030;0.038307227;8.350976;3.064578
12:06:12:046;13:06:12:030;0.038307227;8.350976;3.064578
12:06:12:054;13:06:12:030;0.038307227;8.350976;3.064578
12:06:12:062;13:06:12:030;0.038307227;8.350976;3.064578
12:06:12:070;13:06:12:030;0.038307227;8.350976;3.064578
12:06:12:078;13:06:12:030;0.038307227;8.350976;3.064578
12:06:12:085;13:06:12:030;0.038307227;8.350976;3.064578
12:06:12:093;13:06:12:030;0.038307227;8.350976;3.064578
12:06:12:101;13:06:12:030;0.038307227;8.350976;3.064578
12:06:12:109;13:06:12:030;0.038307227;8.350976;3.064578
12:06:12:117;13:06:12:030;0.038307227;8.350976;3.064578
12:06:12:125;13:06:12:030;0.038307227;8.350976;3.064578
12:06:12:132;13:06:12:030;0.038307227;8.350976;3.064578
12:06:12:140;13:06:12:030;0.038307227;8.350976;3.064578
12:06:12:148;13:06:12:030;0.038307227;8.350976;3.064578
12:06:12:156;13:06:12:030;0.038307227;8.350976;3.064578
12:06:12:164;13:06:12:157;0.038307227;10.304645;2.777274
12:06:12:171;13:06:12:157;0.038307227;10.304645;2.777274
12:06:12:179;13:06:12:157;0.038307227;10.304645;2.777274
12:06:12:187;13:06:12:157;0.038307227;10.304645;2.777274
12:06:12:195;13:06:12:157;0.038307227;10.304645;2.777274
12:06:12:203;13:06:12:157;0.038307227;10.304645;2.777274
12:06:12:210;13:06:12:157;0.038307227;10.304645;2.777274
12:06:12:218;13:06:12:157;0.038307227;10.304645;2.777274
12:06:12:226;13:06:12:157;0.038307227;10.304645;2.777274
12:06:12:234;13:06:12:157;0.038307227;10.304645;2.777274
12:06:12:242;13:06:12:157;0.038307227;10.304645;2.777274
12:06:12:250;13:06:12:157;0.038307227;10.304645;2.777274
12:06:12:257;13:06:12:157;0.038307227;10.304645;2.777274
12:06:12:265;13:06:12:157;0.038307227;10.304645;2.777274
12:06:12:273;13:06:12:157;0.038307227;10.304645;2.777274
12:06:12:281;13:06:12:281;-0.8810662;9.883265;1.8962077
12:06:12:289;13:06:12:281;-0.8810662;9.883265;1.8962077
12:06:12:296;13:06:12:281;-0.8810662;9.883265;1.8962077
12:06:12:304;13:06:12:281;-0.8810662;9.883265;1.8962077
12:06:12:312;13:06:12:281;-0.8810662;9.883265;1.8962077
12:06:12:320;13:06:12:281;-0.8810662;9.883265;1.8962077
12:06:12:328;13:06:12:281;-0.8810662;9.883265;1.8962077
12:06:12:335;13:06:12:281;-0.8810662;9.883265;1.8962077
12:06:12:343;13:06:12:281;-0.8810662;9.883265;1.8962077
12:06:12:351;13:06:12:281;-0.8810662;9.883265;1.8962077
12:06:12:359;13:06:12:281;-0.8810662;9.883265;1.8962077
12:06:12:367;13:06:12:281;-0.8810662;9.883265;1.8962077
12:06:12:375;13:06:12:375;-0.15322891;9.5385;2.336741
12:06:12:382;13:06:12:375;-0.15322891;9.5385;2.336741
12:06:12:390;13:06:12:375;-0.15322891;9.5385;2.336741
12:06:12:398;13:06:12:375;-0.15322891;9.5385;2.336741
12:06:12:406;13:06:12:375;-0.15322891;9.5385;2.336741
12:06:12:414;13:06:12:375;-0.15322891;9.5385;2.336741
12:06:12:421;13:06:12:375;-0.15322891;9.5385;2.336741
12:06:12:429;13:06:12:375;-0.15322891;9.5385;2.336741
12:06:12:437;13:06:12:375;-0.15322891;9.5385;2.336741
12:06:12:445;13:06:12:375;-0.15322891;9.5385;2.336741
12:06:12:453;13:06:12:375;-0.15322891;9.5385;2.336741
12:06:12:460;13:06:12:375;-0.15322891;9.5385;2.336741
12:06:12:468;13:06:12:375;-0.15322891;9.5385;2.336741
12:06:12:476;13:06:12:476;-0.63206923;9.385271;2.6240451
12:06:12:484;13:06:12:476;-0.63206923;9.385271;2.6240451
12:06:12:492;13:06:12:476;-0.63206923;9.385271;2.6240451
12:06:12:500;13:06:12:476;-0.63206923;9.385271;2.6240451
12:06:12:507;13:06:12:476;-0.63206923;9.385271;2.6240451
12:06:12:515;13:06:12:476;-0.63206923;9.385271;2.6240451
12:06:12:523;13:06:12:476;-0.63206923;9.385271;2.6240451
12:06:12:531;13:06:12:476;-0.63206923;9.385271;2.6240451
12:06:12:539;13:06:12:476;-0.63206923;9.385271;2.6240451
12:06:12:546;13:06:12:476;-0.63206923;9.385271;2.6240451
12:06:12:554;13:06:12:476;-0.63206923;9.385271;2.6240451
12:06:12:562;13:06:12:476;-0.63206923;9.385271;2.6240451
12:06:12:570;13:06:12:476;-0.63206923;9.385271;2.6240451
12:06:12:578;13:06:12:578;-0.24899697;10.132261;2.4133554
12:06:12:585;13:06:12:578;-0.24899697;10.132261;2.4133554
12:06:12:593;13:06:12:578;-0.24899697;10.132261;2.4133554
12:06:12:601;13:06:12:578;-0.24899697;10.132261;2.4133554
12:06:12:609;13:06:12:578;-0.24899697;10.132261;2.4133554
12:06:12:617;13:06:12:578;-0.24899697;10.132261;2.4133554
12:06:12:625;13:06:12:578;-0.24899697;10.132261;2.4133554
12:06:12:632;13:06:12:578;-0.24899697;10.132261;2.4133554
12:06:12:640;13:06:12:578;-0.24899697;10.132261;2.4133554
12:06:12:648;13:06:12:578;-0.24899697;10.132261;2.4133554
12:06:12:656;13:06:12:578;-0.24899697;10.132261;2.4133554
12:06:12:664;13:06:12:578;-0.24899697;10.132261;2.4133554
12:06:12:671;13:06:12:578;-0.24899697;10.132261;2.4133554
12:06:12:679;13:06:12:578;-0.24899697;10.132261;2.4133554
12:06:12:687;13:06:12:578;-0.24899697;10.132261;2.4133554
12:06:12:695;13:06:12:695;-0.32561144;9.902418;2.6240451
12:06:12:703;13:06:12:695;-0.32561144;9.902418;2.6240451
12:06:12:710;13:06:12:695;-0.32561144;9.902418;2.6240451
12:06:12:718;13:06:12:695;-0.32561144;9.902418;2.6240451
12:06:12:726;13:06:12:695;-0.32561144;9.902418;2.6240451
12:06:12:734;13:06:12:695;-0.32561144;9.902418;2.6240451
12:06:12:742;13:06:12:695;-0.32561144;9.902418;2.6240451
12:06:12:750;13:06:12:695;-0.32561144;9.902418;2.6240451
12:06:12:757;13:06:12:695;-0.32561144;9.902418;2.6240451
12:06:12:765;13:06:12:695;-0.32561144;9.902418;2.6240451
12:06:12:773;13:06:12:695;-0.32561144;9.902418;2.6240451
12:06:12:781;13:06:12:695;-0.32561144;9.902418;2.6240451
12:06:12:789;13:06:12:695;-0.32561144;9.902418;2.6240451
12:06:12:796;13:06:12:695;-0.32561144;9.902418;2.6240451
12:06:12:804;13:06:12:695;-0.32561144;9.902418;2.6240451
12:06:12:812;13:06:12:695;-0.32561144;9.902418;2.6240451
12:06:12:820;13:06:12:813;-0.24899697;10.381259;2.681506
12:06:12:828;13:06:12:813;-0.24899697;10.381259;2.681506
12:06:12:835;13:06:12:813;-0.24899697;10.381259;2.681506
12:06:12:843;13:06:12:813;-0.24899697;10.381259;2.681506
12:06:12:851;13:06:12:813;-0.24899697;10.381259;2.681506
12:06:12:859;13:06:12:813;-0.24899697;10.381259;2.681506
12:06:12:867;13:06:12:813;-0.24899697;10.381259;2.681506
12:06:12:875;13:06:12:813;-0.24899697;10.381259;2.681506
12:06:12:882;13:06:12:813;-0.24899697;10.381259;2.681506
12:06:12:890;13:06:12:813;-0.24899697;10.381259;2.681506
12:06:12:898;13:06:12:813;-0.24899697;10.381259;2.681506
12:06:12:906;13:06:12:813;-0.24899697;10.381259;2.681506
12:06:12:914;13:06:12:813;-0.24899697;10.381259;2.681506
12:06:12:921;13:06:12:917;0.22984336;9.595961;2.834735
12:06:12:929;13:06:12:917;0.22984336;9.595961;2.834735
12:06:12:937;13:06:12:917;0.22984336;9.595961;2.834735
12:06:12:945;13:06:12:917;0.22984336;9.595961;2.834735
12:06:12:953;13:06:12:917;0.22984336;9.595961;2.834735
12:06:12:960;13:06:12:917;0.22984336;9.595961;2.834735
12:06:12:968;13:06:12:917;0.22984336;9.595961;2.834735
12:06:12:976;13:06:12:917;0.22984336;9.595961;2.834735
12:06:12:984;13:06:12:917;0.22984336;9.595961;2.834735
12:06:12:992;13:06:12:917;0.22984336;9.595961;2.834735
12:06:13:000;13:06:12:917;0.22984336;9.595961;2.834735
12:06:13:007;13:06:12:917;0.22984336;9.595961;2.834735
12:06:13:015;13:06:12:917;0.22984336;9.595961;2.834735
12:06:13:023;13:06:12:917;0.22984336;9.595961;2.834735
12:06:13:031;13:06:12:917;0.22984336;9.595961;2.834735
12:06:13:039;13:06:13:036;0.095768064;9.864111;2.0685902
12:06:13:046;13:06:13:036;0.095768064;9.864111;2.0685902
12:06:13:054;13:06:13:036;0.095768064;9.864111;2.0685902
12:06:13:062;13:06:13:036;0.095768064;9.864111;2.0685902
12:06:13:070;13:06:13:036;0.095768064;9.864111;2.0685902
12:06:13:078;13:06:13:036;0.095768064;9.864111;2.0685902
12:06:13:085;13:06:13:036;0.095768064;9.864111;2.0685902
12:06:13:093;13:06:13:036;0.095768064;9.864111;2.0685902
12:06:13:101;13:06:13:036;0.095768064;9.864111;2.0685902
12:06:13:109;13:06:13:036;0.095768064;9.864111;2.0685902
12:06:13:117;13:06:13:036;0.095768064;9.864111;2.0685902
12:06:13:125;13:06:13:036;0.095768064;9.864111;2.0685902
12:06:13:132;13:06:13:036;0.095768064;9.864111;2.0685902
12:06:13:140;13:06:13:036;0.095768064;9.864111;2.0685902
12:06:13:148;13:06:13:036;0.095768064;9.864111;2.0685902
12:06:13:156;13:06:13:153;-0.22984336;9.557653;2.873042
12:06:13:164;13:06:13:153;-0.22984336;9.557653;2.873042
12:06:13:171;13:06:13:153;-0.22984336;9.557653;2.873042
12:06:13:179;13:06:13:153;-0.22984336;9.557653;2.873042
12:06:13:187;13:06:13:153;-0.22984336;9.557653;2.873042
12:06:13:195;13:06:13:153;-0.22984336;9.557653;2.873042
12:06:13:203;13:06:13:153;-0.22984336;9.557653;2.873042
12:06:13:210;13:06:13:153;-0.22984336;9.557653;2.873042
12:06:13:218;13:06:13:153;-0.22984336;9.557653;2.873042
12:06:13:226;13:06:13:153;-0.22984336;9.557653;2.873042
12:06:13:234;13:06:13:153;-0.22984336;9.557653;2.873042
12:06:13:242;13:06:13:153;-0.22984336;9.557653;2.873042
12:06:13:250;13:06:13:153;-0.22984336;9.557653;2.873042
12:06:13:257;13:06:13:153;-0.22984336;9.557653;2.873042
12:06:13:265;13:06:13:153;-0.22984336;9.557653;2.873042
12:06:13:273;13:06:13:153;-0.22984336;9.557653;2.873042
12:06:13:281;13:06:13:153;-0.22984336;9.557653;2.873042
12:06:13:289;13:06:13:153;-0.22984336;9.557653;2.873042
12:06:13:296;13:06:13:153;-0.22984336;9.557653;2.873042
12:06:13:304;13:06:13:300;-0.1340753;10.515334;2.183512
12:06:13:312;13:06:13:300;-0.1340753;10.515334;2.183512
12:06:13:320;13:06:13:300;-0.1340753;10.515334;2.183512
12:06:13:328;13:06:13:300;-0.1340753;10.515334;2.183512
12:06:13:335;13:06:13:300;-0.1340753;10.515334;2.183512
12:06:13:343;13:06:13:300;-0.1340753;10.515334;2.183512
12:06:13:351;13:06:13:300;-0.1340753;10.515334;2.183512
12:06:13:359;13:06:13:300;-0.1340753;10.515334;2.183512
12:06:13:367;13:06:13:300;-0.1340753;10.515334;2.183512
12:06:13:375;13:06:13:300;-0.1340753;10.515334;2.183512
12:06:13:382;13:06:13:300;-0.1340753;10.515334;2.183512
12:06:13:390;13:06:13:300;-0.1340753;10.515334;2.183512
12:06:13:398;13:06:13:300;-0.1340753;10.515334;2.183512
12:06:13:406;13:06:13:300;-0.1340753;10.515334;2.183512
12:06:13:414;13:06:13:300;-0.1340753;10.515334;2.183512
12:06:13:421;13:06:13:300;-0.1340753;10.515334;2.183512
12:06:13:429;13:06:13:300;-0.1340753;10.515334;2.183512
12:06:13:437;13:06:13:300;-0.1340753;10.515334;2.183512
12:06:13:445;13:06:13:300;-0.1340753;10.515334;2.183512
12:06:13:453;13:06:13:448;-1.1300632;10.247183;2.585738
12:06:13:460;13:06:13:448;-1.1300632;10.247183;2.585738
12:06:13:468;13:06:13:448;-1.1300632;10.247183;2.585738
12:06:13:476;13:06:13:448;-1.1300632;10.247183;2.585738
12:06:13:484;13:06:13:448;-1.1300632;10.247183;2.585738
12:06:13:492;13:06:13:448;-1.1300632;10.247183;2.585738
12:06:13:500;13:06:13:448;-1.1300632;10.247183;2.585738
12:06:13:507;13:06:13:448;-1.1300632;10.247183;2.585738
12:06:13:515;13:06:13:448;-1.1300632;10.247183;2.585738
12:06:13:523;13:06:13:448;-1.1300632;10.247183;2.585738
12:06:13:531;13:06:13:448;-1.1300632;10.247183;2.585738
12:06:13:539;13:06:13:448;-1.1300632;10.247183;2.585738
12:06:13:546;13:06:13:448;-1.1300632;10.247183;2.585738
12:06:13:554;13:06:13:550;-0.40222588;9.672575;2.585738
12:06:13:562;13:06:13:550;-0.40222588;9.672575;2.585738
12:06:13:570;13:06:13:550;-0.40222588;9.672575;2.585738
12:06:13:578;13:06:13:550;-0.40222588;9.672575;2.585738
12:06:13:585;13:06:13:550;-0.40222588;9.672575;2.585738
12:06:13:593;13:06:13:550;-0.40222588;9.672575;2.585738
12:06:13:601;13:06:13:550;-0.40222588;9.672575;2.585738
12:06:13:609;13:06:13:550;-0.40222588;9.672575;2.585738
12:06:13:617;13:06:13:550;-0.40222588;9.672575;2.585738
12:06:13:625;13:06:13:550;-0.40222588;9.672575;2.585738
12:06:13:632;13:06:13:550;-0.40222588;9.672575;2.585738
12:06:13:640;13:06:13:550;-0.40222588;9.672575;2.585738
12:06:13:648;13:06:13:550;-0.40222588;9.672575;2.585738
12:06:13:656;13:06:13:550;-0.40222588;9.672575;2.585738
12:06:13:664;13:06:13:658;-0.61291564;9.346964;2.6048915
12:06:13:671;13:06:13:658;-0.61291564;9.346964;2.6048915
12:06:13:679;13:06:13:658;-0.61291564;9.346964;2.6048915
12:06:13:687;13:06:13:658;-0.61291564;9.346964;2.6048915
12:06:13:695;13:06:13:658;-0.61291564;9.346964;2.6048915
12:06:13:703;13:06:13:658;-0.61291564;9.346964;2.6048915
12:06:13:710;13:06:13:658;-0.61291564;9.346964;2.6048915
12:06:13:718;13:06:13:658;-0.61291564;9.346964;2.6048915
12:06:13:726;13:06:13:658;-0.61291564;9.346964;2.6048915
12:06:13:734;13:06:13:658;-0.61291564;9.346964;2.6048915
12:06:13:742;13:06:13:658;-0.61291564;9.346964;2.6048915
12:06:13:750;13:06:13:658;-0.61291564;9.346964;2.6048915
12:06:13:757;13:06:13:658;-0.61291564;9.346964;2.6048915
12:06:13:765;13:06:13:764;-0.5746084;10.323798;1.4939818
12:06:13:773;13:06:13:764;-0.5746084;10.323798;1.4939818
12:06:13:781;13:06:13:764;-0.5746084;10.323798;1.4939818
12:06:13:789;13:06:13:764;-0.5746084;10.323798;1.4939818
12:06:13:796;13:06:13:764;-0.5746084;10.323798;1.4939818
12:06:13:804;13:06:13:764;-0.5746084;10.323798;1.4939818
12:06:13:812;13:06:13:764;-0.5746084;10.323798;1.4939818
12:06:13:820;13:06:13:764;-0.5746084;10.323798;1.4939818
12:06:13:828;13:06:13:764;-0.5746084;10.323798;1.4939818
12:06:13:835;13:06:13:764;-0.5746084;10.323798;1.4939818
12:06:13:843;13:06:13:764;-0.5746084;10.323798;1.4939818
12:06:13:851;13:06:13:764;-0.5746084;10.323798;1.4939818
12:06:13:859;13:06:13:764;-0.5746084;10.323798;1.4939818
12:06:13:867;13:06:13:764;-0.5746084;10.323798;1.4939818
12:06:13:875;13:06:13:764;-0.5746084;10.323798;1.4939818
12:06:13:882;13:06:13:882;-0.2681506;9.672575;1.7621324
12:06:13:890;13:06:13:882;-0.2681506;9.672575;1.7621324
12:06:13:898;13:06:13:882;-0.2681506;9.672575;1.7621324
12:06:13:906;13:06:13:882;-0.2681506;9.672575;1.7621324
12:06:13:914;13:06:13:882;-0.2681506;9.672575;1.7621324
12:06:13:921;13:06:13:882;-0.2681506;9.672575;1.7621324
12:06:13:929;13:06:13:882;-0.2681506;9.672575;1.7621324
12:06:13:937;13:06:13:882;-0.2681506;9.672575;1.7621324
12:06:13:945;13:06:13:882;-0.2681506;9.672575;1.7621324
12:06:13:953;13:06:13:882;-0.2681506;9.672575;1.7621324
12:06:13:960;13:06:13:882;-0.2681506;9.672575;1.7621324
12:06:13:968;13:06:13:882;-0.2681506;9.672575;1.7621324
12:06:13:976;13:06:13:882;-0.2681506;9.672575;1.7621324
12:06:13:984;13:06:13:882;-0.2681506;9.672575;1.7621324
12:06:13:992;13:06:13:882;-0.2681506;9.672575;1.7621324
12:06:14:000;13:06:14:000;-0.45968673;9.730036;2.0685902
12:06:14:007;13:06:14:000;-0.45968673;9.730036;2.0685902
12:06:14:015;13:06:14:000;-0.45968673;9.730036;2.0685902
12:06:14:023;13:06:14:000;-0.45968673;9.730036;2.0685902
12:06:14:031;13:06:14:000;-0.45968673;9.730036;2.0685902
12:06:14:039;13:06:14:000;-0.45968673;9.730036;2.0685902
12:06:14:046;13:06:14:000;-0.45968673;9.730036;2.0685902
12:06:14:054;13:06:14:000;-0.45968673;9.730036;2.0685902
12:06:14:062;13:06:14:000;-0.45968673;9.730036;2.0685902
12:06:14:070;13:06:14:000;-0.45968673;9.730036;2.0685902
12:06:14:078;13:06:14:000;-0.45968673;9.730036;2.0685902
12:06:14:085;13:06:14:000;-0.45968673;9.730036;2.0685902
12:06:14:093;13:06:14:000;-0.45968673;9.730036;2.0685902
12:06:14:101;13:06:14:000;-0.45968673;9.730036;2.0685902
12:06:14:109;13:06:14:109;-0.2681506;10.611102;0.7278373
12:06:14:117;13:06:14:109;-0.2681506;10.611102;0.7278373
12:06:14:125;13:06:14:109;-0.2681506;10.611102;0.7278373
12:06:14:132;13:06:14:109;-0.2681506;10.611102;0.7278373
12:06:14:140;13:06:14:109;-0.2681506;10.611102;0.7278373
12:06:14:148;13:06:14:109;-0.2681506;10.611102;0.7278373
12:06:14:156;13:06:14:109;-0.2681506;10.611102;0.7278373
12:06:14:164;13:06:14:109;-0.2681506;10.611102;0.7278373
12:06:14:171;13:06:14:109;-0.2681506;10.611102;0.7278373
12:06:14:179;13:06:14:109;-0.2681506;10.611102;0.7278373
12:06:14:187;13:06:14:109;-0.2681506;10.611102;0.7278373
12:06:14:195;13:06:14:109;-0.2681506;10.611102;0.7278373
12:06:14:203;13:06:14:109;-0.2681506;10.611102;0.7278373
12:06:14:210;13:06:14:109;-0.2681506;10.611102;0.7278373
12:06:14:218;13:06:14:109;-0.2681506;10.611102;0.7278373
12:06:14:226;13:06:14:109;-0.2681506;10.611102;0.7278373
12:06:14:234;13:06:14:229;-0.05746084;9.844957;1.8195933
12:06:14:242;13:06:14:229;-0.05746084;9.844957;1.8195933
12:06:14:250;13:06:14:229;-0.05746084;9.844957;1.8195933
12:06:14:257;13:06:14:229;-0.05746084;9.844957;1.8195933
12:06:14:265;13:06:14:229;-0.05746084;9.844957;1.8195933
12:06:14:273;13:06:14:229;-0.05746084;9.844957;1.8195933
12:06:14:281;13:06:14:229;-0.05746084;9.844957;1.8195933
12:06:14:289;13:06:14:229;-0.05746084;9.844957;1.8195933
12:06:14:296;13:06:14:229;-0.05746084;9.844957;1.8195933
12:06:14:304;13:06:14:229;-0.05746084;9.844957;1.8195933
12:06:14:312;13:06:14:229;-0.05746084;9.844957;1.8195933
12:06:14:320;13:06:14:229;-0.05746084;9.844957;1.8195933
12:06:14:328;13:06:14:229;-0.05746084;9.844957;1.8195933
12:06:14:335;13:06:14:334;-0.1340753;11.051635;0.51714754
12:06:14:343;13:06:14:334;-0.1340753;11.051635;0.51714754
12:06:14:351;13:06:14:334;-0.1340753;11.051635;0.51714754
12:06:14:359;13:06:14:334;-0.1340753;11.051635;0.51714754
12:06:14:367;13:06:14:334;-0.1340753;11.051635;0.51714754
12:06:14:375;13:06:14:334;-0.1340753;11.051635;0.51714754
12:06:14:382;13:06:14:334;-0.1340753;11.051635;0.51714754
12:06:14:390;13:06:14:334;-0.1340753;11.051635;0.51714754
12:06:14:398;13:06:14:334;-0.1340753;11.051635;0.51714754
12:06:14:406;13:06:14:334;-0.1340753;11.051635;0.51714754
12:06:14:414;13:06:14:334;-0.1340753;11.051635;0.51714754
12:06:14:421;13:06:14:334;-0.1340753;11.051635;0.51714754
12:06:14:429;13:06:14:334;-0.1340753;11.051635;0.51714754
12:06:14:437;13:06:14:334;-0.1340753;11.051635;0.51714754
12:06:14:445;13:06:14:440;-0.15322891;10.91756;-0.19153613
12:06:14:453;13:06:14:440;-0.15322891;10.91756;-0.19153613
12:06:14:460;13:06:14:440;-0.15322891;10.91756;-0.19153613
12:06:14:468;13:06:14:440;-0.15322891;10.91756;-0.19153613
12:06:14:476;13:06:14:440;-0.15322891;10.91756;-0.19153613
12:06:14:484;13:06:14:440;-0.15322891;10.91756;-0.19153613
12:06:14:492;13:06:14:440;-0.15322891;10.91756;-0.19153613
12:06:14:500;13:06:14:440;-0.15322891;10.91756;-0.19153613
12:06:14:507;13:06:14:440;-0.15322891;10.91756;-0.19153613
12:06:14:515;13:06:14:440;-0.15322891;10.91756;-0.19153613
12:06:14:523;13:06:14:440;-0.15322891;10.91756;-0.19153613
12:06:14:531;13:06:14:440;-0.15322891;10.91756;-0.19153613
12:06:14:539;13:06:14:440;-0.15322891;10.91756;-0.19153613
12:06:14:546;13:06:14:440;-0.15322891;10.91756;-0.19153613
12:06:14:554;13:06:14:440;-0.15322891;10.91756;-0.19153613
12:06:14:562;13:06:14:440;-0.15322891;10.91756;-0.19153613
12:06:14:570;13:06:14:440;-0.15322891;10.91756;-0.19153613
12:06:14:578;13:06:14:440;-0.15322891;10.91756;-0.19153613
12:06:14:585;13:06:14:440;-0.15322891;10.91756;-0.19153613
12:06:14:593;13:06:14:440;-0.15322891;10.91756;-0.19153613
12:06:14:601;13:06:14:596;-0.2681506;9.80665;1.532289
12:06:14:609;13:06:14:596;-0.2681506;9.80665;1.532289
12:06:14:617;13:06:14:596;-0.2681506;9.80665;1.532289
12:06:14:625;13:06:14:596;-0.2681506;9.80665;1.532289
12:06:14:632;13:06:14:596;-0.2681506;9.80665;1.532289
12:06:14:640;13:06:14:596;-0.2681506;9.80665;1.532289
12:06:14:648;13:06:14:596;-0.2681506;9.80665;1.532289
12:06:14:656;13:06:14:596;-0.2681506;9.80665;1.532289
12:06:14:664;13:06:14:596;-0.2681506;9.80665;1.532289
12:06:14:671;13:06:14:596;-0.2681506;9.80665;1.532289
12:06:14:679;13:06:14:596;-0.2681506;9.80665;1.532289
12:06:14:687;13:06:14:596;-0.2681506;9.80665;1.532289
12:06:14:695;13:06:14:596;-0.2681506;9.80665;1.532289
12:06:14:703;13:06:14:697;-0.019153614;10.093954;0.90021986
12:06:14:710;13:06:14:697;-0.019153614;10.093954;0.90021986
12:06:14:718;13:06:14:697;-0.019153614;10.093954;0.90021986
12:06:14:726;13:06:14:697;-0.019153614;10.093954;0.90021986
12:06:14:734;13:06:14:697;-0.019153614;10.093954;0.90021986
12:06:14:742;13:06:14:697;-0.019153614;10.093954;0.90021986
12:06:14:750;13:06:14:697;-0.019153614;10.093954;0.90021986
12:06:14:757;13:06:14:697;-0.019153614;10.093954;0.90021986
12:06:14:765;13:06:14:697;-0.019153614;10.093954;0.90021986
12:06:14:773;13:06:14:697;-0.019153614;10.093954;0.90021986
12:06:14:781;13:06:14:697;-0.019153614;10.093954;0.90021986
12:06:14:789;13:06:14:697;-0.019153614;10.093954;0.90021986
12:06:14:796;13:06:14:697;-0.019153614;10.093954;0.90021986
12:06:14:804;13:06:14:800;-0.076614454;9.615114;1.685518
12:06:14:812;13:06:14:800;-0.076614454;9.615114;1.685518
12:06:14:820;13:06:14:800;-0.076614454;9.615114;1.685518
12:06:14:828;13:06:14:800;-0.076614454;9.615114;1.685518
12:06:14:835;13:06:14:800;-0.076614454;9.615114;1.685518
12:06:14:843;13:06:14:800;-0.076614454;9.615114;1.685518
12:06:14:851;13:06:14:800;-0.076614454;9.615114;1.685518
12:06:14:859;13:06:14:800;-0.076614454;9.615114;1.685518
12:06:14:867;13:06:14:800;-0.076614454;9.615114;1.685518
12:06:14:875;13:06:14:800;-0.076614454;9.615114;1.685518
12:06:14:882;13:06:14:800;-0.076614454;9.615114;1.685518
12:06:14:890;13:06:14:800;-0.076614454;9.615114;1.685518
12:06:14:898;13:06:14:800;-0.076614454;9.615114;1.685518
12:06:14:906;13:06:14:800;-0.076614454;9.615114;1.685518
12:06:14:914;13:06:14:800;-0.076614454;9.615114;1.685518
12:06:14:921;13:06:14:915;-0.61291564;9.136273;2.2409728
12:06:14:929;13:06:14:915;-0.61291564;9.136273;2.2409728
12:06:14:937;13:06:14:915;-0.61291564;9.136273;2.2409728
12:06:14:945;13:06:14:915;-0.61291564;9.136273;2.2409728
12:06:14:953;13:06:14:915;-0.61291564;9.136273;2.2409728
12:06:14:960;13:06:14:915;-0.61291564;9.136273;2.2409728
12:06:14:968;13:06:14:915;-0.61291564;9.136273;2.2409728
12:06:14:976;13:06:14:915;-0.61291564;9.136273;2.2409728
12:06:14:984;13:06:14:915;-0.61291564;9.136273;2.2409728
12:06:14:992;13:06:14:915;-0.61291564;9.136273;2.2409728
12:06:15:000;13:06:14:915;-0.61291564;9.136273;2.2409728
12:06:15:007;13:06:14:915;-0.61291564;9.136273;2.2409728
12:06:15:015;13:06:14:915;-0.61291564;9.136273;2.2409728
12:06:15:023;13:06:15:018;-0.32561144;9.251195;2.2026656
12:06:15:031;13:06:15:018;-0.32561144;9.251195;2.2026656
12:06:15:039;13:06:15:018;-0.32561144;9.251195;2.2026656
12:06:15:046;13:06:15:018;-0.32561144;9.251195;2.2026656
12:06:15:054;13:06:15:018;-0.32561144;9.251195;2.2026656
12:06:15:062;13:06:15:018;-0.32561144;9.251195;2.2026656
12:06:15:070;13:06:15:018;-0.32561144;9.251195;2.2026656
12:06:15:078;13:06:15:018;-0.32561144;9.251195;2.2026656
12:06:15:085;13:06:15:018;-0.32561144;9.251195;2.2026656
12:06:15:093;13:06:15:018;-0.32561144;9.251195;2.2026656
12:06:15:101;13:06:15:018;-0.32561144;9.251195;2.2026656
12:06:15:109;13:06:15:018;-0.32561144;9.251195;2.2026656
12:06:15:117;13:06:15:018;-0.32561144;9.251195;2.2026656
12:06:15:125;13:06:15:018;-0.32561144;9.251195;2.2026656
12:06:15:132;13:06:15:018;-0.32561144;9.251195;2.2026656
12:06:15:140;13:06:15:136;-0.5746084;10.113108;0.63206923
12:06:15:148;13:06:15:136;-0.5746084;10.113108;0.63206923
12:06:15:156;13:06:15:136;-0.5746084;10.113108;0.63206923
12:06:15:164;13:06:15:136;-0.5746084;10.113108;0.63206923
12:06:15:171;13:06:15:136;-0.5746084;10.113108;0.63206923
12:06:15:179;13:06:15:136;-0.5746084;10.113108;0.63206923
12:06:15:187;13:06:15:136;-0.5746084;10.113108;0.63206923
12:06:15:195;13:06:15:136;-0.5746084;10.113108;0.63206923
12:06:15:203;13:06:15:136;-0.5746084;10.113108;0.63206923
12:06:15:210;13:06:15:136;-0.5746084;10.113108;0.63206923
12:06:15:218;13:06:15:136;-0.5746084;10.113108;0.63206923
12:06:15:226;13:06:15:136;-0.5746084;10.113108;0.63206923
12:06:15:234;13:06:15:136;-0.5746084;10.113108;0.63206923
12:06:15:242;13:06:15:136;-0.5746084;10.113108;0.63206923
12:06:15:250;13:06:15:136;-0.5746084;10.113108;0.63206923
12:06:15:257;13:06:15:253;-0.78529817;9.825804;1.3024458
12:06:15:265;13:06:15:253;-0.78529817;9.825804;1.3024458
12:06:15:273;13:06:15:253;-0.78529817;9.825804;1.3024458
12:06:15:281;13:06:15:253;-0.78529817;9.825804;1.3024458
12:06:15:289;13:06:15:253;-0.78529817;9.825804;1.3024458
12:06:15:296;13:06:15:253;-0.78529817;9.825804;1.3024458
12:06:15:304;13:06:15:253;-0.78529817;9.825804;1.3024458
12:06:15:312;13:06:15:253;-0.78529817;9.825804;1.3024458
12:06:15:320;13:06:15:253;-0.78529817;9.825804;1.3024458
12:06:15:328;13:06:15:253;-0.78529817;9.825804;1.3024458
12:06:15:335;13:06:15:253;-0.78529817;9.825804;1.3024458
12:06:15:343;13:06:15:253;-0.78529817;9.825804;1.3024458
12:06:15:351;13:06:15:253;-0.78529817;9.825804;1.3024458
12:06:15:359;13:06:15:355;-0.38307226;9.959879;1.0726024
12:06:15:367;13:06:15:355;-0.38307226;9.959879;1.0726024
12:06:15:375;13:06:15:355;-0.38307226;9.959879;1.0726024
12:06:15:382;13:06:15:355;-0.38307226;9.959879;1.0726024
12:06:15:390;13:06:15:355;-0.38307226;9.959879;1.0726024
12:06:15:398;13:06:15:355;-0.38307226;9.959879;1.0726024
12:06:15:406;13:06:15:355;-0.38307226;9.959879;1.0726024
12:06:15:414;13:06:15:355;-0.38307226;9.959879;1.0726024
12:06:15:421;13:06:15:355;-0.38307226;9.959879;1.0726024
12:06:15:429;13:06:15:355;-0.38307226;9.959879;1.0726024
12:06:15:437;13:06:15:355;-0.38307226;9.959879;1.0726024
12:06:15:445;13:06:15:355;-0.38307226;9.959879;1.0726024
12:06:15:453;13:06:15:355;-0.38307226;9.959879;1.0726024
12:06:15:460;13:06:15:355;-0.38307226;9.959879;1.0726024
12:06:15:468;13:06:15:463;-0.2873042;9.921572;1.2641385
12:06:15:476;13:06:15:463;-0.2873042;9.921572;1.2641385
12:06:15:484;13:06:15:463;-0.2873042;9.921572;1.2641385
12:06:15:492;13:06:15:463;-0.2873042;9.921572;1.2641385
12:06:15:500;13:06:15:463;-0.2873042;9.921572;1.2641385
12:06:15:507;13:06:15:463;-0.2873042;9.921572;1.2641385
12:06:15:515;13:06:15:463;-0.2873042;9.921572;1.2641385
12:06:15:523;13:06:15:463;-0.2873042;9.921572;1.2641385
12:06:15:531;13:06:15:463;-0.2873042;9.921572;1.2641385
12:06:15:539;13:06:15:463;-0.2873042;9.921572;1.2641385
12:06:15:546;13:06:15:463;-0.2873042;9.921572;1.2641385
12:06:15:554;13:06:15:463;-0.2873042;9.921572;1.2641385
12:06:15:562;13:06:15:463;-0.2873042;9.921572;1.2641385
12:06:15:570;13:06:15:564;-0.842759;10.093954;1.1875241
12:06:15:578;13:06:15:564;-0.842759;10.093954;1.1875241
12:06:15:585;13:06:15:564;-0.842759;10.093954;1.1875241
12:06:15:593;13:06:15:564;-0.842759;10.093954;1.1875241
12:06:15:601;13:06:15:564;-0.842759;10.093954;1.1875241
12:06:15:609;13:06:15:564;-0.842759;10.093954;1.1875241
12:06:15:617;13:06:15:564;-0.842759;10.093954;1.1875241
12:06:15:625;13:06:15:564;-0.842759;10.093954;1.1875241
12:06:15:632;13:06:15:564;-0.842759;10.093954;1.1875241
12:06:15:640;13:06:15:564;-0.842759;10.093954;1.1875241
12:06:15:648;13:06:15:564;-0.842759;10.093954;1.1875241
12:06:15:656;13:06:15:564;-0.842759;10.093954;1.1875241
12:06:15:664;13:06:15:564;-0.842759;10.093954;1.1875241
12:06:15:671;13:06:15:564;-0.842759;10.093954;1.1875241
12:06:15:679;13:06:15:564;-0.842759;10.093954;1.1875241
12:06:15:687;13:06:15:684;-0.7661445;9.615114;1.7621324
12:06:15:695;13:06:15:684;-0.7661445;9.615114;1.7621324
12:06:15:703;13:06:15:684;-0.7661445;9.615114;1.7621324
12:06:15:710;13:06:15:684;-0.7661445;9.615114;1.7621324
12:06:15:718;13:06:15:684;-0.7661445;9.615114;1.7621324
12:06:15:726;13:06:15:684;-0.7661445;9.615114;1.7621324
12:06:15:734;13:06:15:684;-0.7661445;9.615114;1.7621324
12:06:15:742;13:06:15:684;-0.7661445;9.615114;1.7621324
12:06:15:750;13:06:15:684;-0.7661445;9.615114;1.7621324
12:06:15:757;13:06:15:684;-0.7661445;9.615114;1.7621324
12:06:15:765;13:06:15:684;-0.7661445;9.615114;1.7621324
12:06:15:773;13:06:15:684;-0.7661445;9.615114;1.7621324
12:06:15:781;13:06:15:684;-0.7661445;9.615114;1.7621324
12:06:15:789;13:06:15:684;-0.7661445;9.615114;1.7621324
12:06:15:796;13:06:15:684;-0.7661445;9.615114;1.7621324
12:06:15:804;13:06:15:804;0.24899697;9.749189;0.90021986
12:06:15:812;13:06:15:804;0.24899697;9.749189;0.90021986
12:06:15:820;13:06:15:804;0.24899697;9.749189;0.90021986
12:06:15:828;13:06:15:804;0.24899697;9.749189;0.90021986
12:06:15:835;13:06:15:804;0.24899697;9.749189;0.90021986
12:06:15:843;13:06:15:804;0.24899697;9.749189;0.90021986
12:06:15:851;13:06:15:804;0.24899697;9.749189;0.90021986
12:06:15:859;13:06:15:804;0.24899697;9.749189;0.90021986
12:06:15:867;13:06:15:804;0.24899697;9.749189;0.90021986
12:06:15:875;13:06:15:804;0.24899697;9.749189;0.90021986
12:06:15:882;13:06:15:804;0.24899697;9.749189;0.90021986
12:06:15:890;13:06:15:804;0.24899697;9.749189;0.90021986
12:06:15:898;13:06:15:804;0.24899697;9.749189;0.90021986
12:06:15:906;13:06:15:804;0.24899697;9.749189;0.90021986
12:06:15:914;13:06:15:907;-0.15322891;10.266336;1.2066777
12:06:15:921;13:06:15:907;-0.15322891;10.266336;1.2066777
12:06:15:929;13:06:15:907;-0.15322891;10.266336;1.2066777
12:06:15:937;13:06:15:907;-0.15322891;10.266336;1.2066777
12:06:15:945;13:06:15:907;-0.15322891;10.266336;1.2066777
12:06:15:953;13:06:15:907;-0.15322891;10.266336;1.2066777
12:06:15:960;13:06:15:907;-0.15322891;10.266336;1.2066777
12:06:15:968;13:06:15:907;-0.15322891;10.266336;1.2066777
12:06:15:976;13:06:15:907;-0.15322891;10.266336;1.2066777
12:06:15:984;13:06:15:907;-0.15322891;10.266336;1.2066777
12:06:15:992;13:06:15:907;-0.15322891;10.266336;1.2066777
12:06:16:000;13:06:15:907;-0.15322891;10.266336;1.2066777
12:06:16:007;13:06:15:907;-0.15322891;10.266336;1.2066777
12:06:16:015;13:06:15:907;-0.15322891;10.266336;1.2066777
12:06:16:023;13:06:16:022;0.1340753;9.921572;1.5514427
12:06:16:031;13:06:16:022;0.1340753;9.921572;1.5514427
12:06:16:039;13:06:16:022;0.1340753;9.921572;1.5514427
12:06:16:046;13:06:16:022;0.1340753;9.921572;1.5514427
12:06:16:054;13:06:16:022;0.1340753;9.921572;1.5514427
12:06:16:062;13:06:16:022;0.1340753;9.921572;1.5514427
12:06:16:070;13:06:16:022;0.1340753;9.921572;1.5514427
12:06:16:078;13:06:16:022;0.1340753;9.921572;1.5514427
12:06:16:085;13:06:16:022;0.1340753;9.921572;1.5514427
12:06:16:093;13:06:16:022;0.1340753;9.921572;1.5514427
12:06:16:101;13:06:16:022;0.1340753;9.921572;1.5514427
12:06:16:109;13:06:16:022;0.1340753;9.921572;1.5514427
12:06:16:117;13:06:16:022;0.1340753;9.921572;1.5514427
12:06:16:125;13:06:16:022;0.1340753;9.921572;1.5514427
12:06:16:132;13:06:16:022;0.1340753;9.921572;1.5514427
12:06:16:140;13:06:16:022;0.1340753;9.921572;1.5514427
12:06:16:148;13:06:16:145;-0.47884035;10.362105;1.340753
12:06:16:156;13:06:16:145;-0.47884035;10.362105;1.340753
12:06:16:164;13:06:16:145;-0.47884035;10.362105;1.340753
12:06:16:171;13:06:16:145;-0.47884035;10.362105;1.340753
12:06:16:179;13:06:16:145;-0.47884035;10.362105;1.340753
12:06:16:187;13:06:16:145;-0.47884035;10.362105;1.340753
12:06:16:195;13:06:16:145;-0.47884035;10.362105;1.340753
12:06:16:203;13:06:16:145;-0.47884035;10.362105;1.340753
12:06:16:210;13:06:16:145;-0.47884035;10.362105;1.340753
12:06:16:218;13:06:16:145;-0.47884035;10.362105;1.340753
12:06:16:226;13:06:16:145;-0.47884035;10.362105;1.340753
12:06:16:234;13:06:16:145;-0.47884035;10.362105;1.340753
12:06:16:242;13:06:16:145;-0.47884035;10.362105;1.340753
12:06:16:250;13:06:16:145;-0.47884035;10.362105;1.340753
12:06:16:257;13:06:16:145;-0.47884035;10.362105;1.340753
12:06:16:265;13:06:16:262;-0.19153613;10.189722;1.7429788
12:06:16:273;13:06:16:262;-0.19153613;10.189722;1.7429788
12:06:16:281;13:06:16:262;-0.19153613;10.189722;1.7429788
12:06:16:289;13:06:16:262;-0.19153613;10.189722;1.7429788
12:06:16:296;13:06:16:262;-0.19153613;10.189722;1.7429788
12:06:16:304;13:06:16:262;-0.19153613;10.189722;1.7429788
12:06:16:312;13:06:16:262;-0.19153613;10.189722;1.7429788
12:06:16:320;13:06:16:262;-0.19153613;10.189722;1.7429788
12:06:16:328;13:06:16:262;-0.19153613;10.189722;1.7429788
12:06:16:335;13:06:16:262;-0.19153613;10.189722;1.7429788
12:06:16:343;13:06:16:262;-0.19153613;10.189722;1.7429788
12:06:16:351;13:06:16:262;-0.19153613;10.189722;1.7429788
12:06:16:359;13:06:16:262;-0.19153613;10.189722;1.7429788
12:06:16:367;13:06:16:262;-0.19153613;10.189722;1.7429788
12:06:16:375;13:06:16:262;-0.19153613;10.189722;1.7429788
12:06:16:382;13:06:16:379;-0.095768064;10.132261;1.436521
12:06:16:390;13:06:16:379;-0.095768064;10.132261;1.436521
12:06:16:398;13:06:16:379;-0.095768064;10.132261;1.436521
12:06:16:406;13:06:16:379;-0.095768064;10.132261;1.436521
12:06:16:414;13:06:16:379;-0.095768064;10.132261;1.436521
12:06:16:421;13:06:16:379;-0.095768064;10.132261;1.436521
12:06:16:429;13:06:16:379;-0.095768064;10.132261;1.436521
12:06:16:437;13:06:16:379;-0.095768064;10.132261;1.436521
12:06:16:445;13:06:16:379;-0.095768064;10.132261;1.436521
12:06:16:453;13:06:16:379;-0.095768064;10.132261;1.436521
12:06:16:460;13:06:16:379;-0.095768064;10.132261;1.436521
12:06:16:468;13:06:16:379;-0.095768064;10.132261;1.436521
12:06:16:476;13:06:16:379;-0.095768064;10.132261;1.436521
12:06:16:484;13:06:16:379;-0.095768064;10.132261;1.436521
12:06:16:492;13:06:16:492;-0.038307227;9.768343;1.4748282
12:06:16:500;13:06:16:492;-0.038307227;9.768343;1.4748282
12:06:16:507;13:06:16:492;-0.038307227;9.768343;1.4748282
12:06:16:515;13:06:16:492;-0.038307227;9.768343;1.4748282
12:06:16:523;13:06:16:492;-0.038307227;9.768343;1.4748282
12:06:16:531;13:06:16:492;-0.038307227;9.768343;1.4748282
12:06:16:539;13:06:16:492;-0.038307227;9.768343;1.4748282
12:06:16:546;13:06:16:492;-0.038307227;9.768343;1.4748282
12:06:16:554;13:06:16:492;-0.038307227;9.768343;1.4748282
12:06:16:562;13:06:16:492;-0.038307227;9.768343;1.4748282
12:06:16:570;13:06:16:492;-0.038307227;9.768343;1.4748282
12:06:16:578;13:06:16:492;-0.038307227;9.768343;1.4748282
12:06:16:585;13:06:16:492;-0.038307227;9.768343;1.4748282
12:06:16:593;13:06:16:492;-0.038307227;9.768343;1.4748282
12:06:16:601;13:06:16:492;-0.038307227;9.768343;1.4748282
12:06:16:609;13:06:16:492;-0.038307227;9.768343;1.4748282
12:06:16:617;13:06:16:610;-0.17238252;9.902418;1.8004397
12:06:16:625;13:06:16:610;-0.17238252;9.902418;1.8004397
12:06:16:632;13:06:16:610;-0.17238252;9.902418;1.8004397
12:06:16:640;13:06:16:610;-0.17238252;9.902418;1.8004397
12:06:16:648;13:06:16:610;-0.17238252;9.902418;1.8004397
12:06:16:656;13:06:16:610;-0.17238252;9.902418;1.8004397
12:06:16:664;13:06:16:610;-0.17238252;9.902418;1.8004397
12:06:16:671;13:06:16:610;-0.17238252;9.902418;1.8004397
12:06:16:679;13:06:16:610;-0.17238252;9.902418;1.8004397
12:06:16:687;13:06:16:610;-0.17238252;9.902418;1.8004397
12:06:16:695;13:06:16:610;-0.17238252;9.902418;1.8004397
12:06:16:703;13:06:16:610;-0.17238252;9.902418;1.8004397
12:06:16:710;13:06:16:610;-0.17238252;9.902418;1.8004397
12:06:16:718;13:06:16:610;-0.17238252;9.902418;1.8004397
12:06:16:726;13:06:16:610;-0.17238252;9.902418;1.8004397
12:06:16:734;13:06:16:729;-0.30645782;9.481039;1.8004397
12:06:16:742;13:06:16:729;-0.30645782;9.481039;1.8004397
12:06:16:750;13:06:16:729;-0.30645782;9.481039;1.8004397
12:06:16:757;13:06:16:729;-0.30645782;9.481039;1.8004397
12:06:16:765;13:06:16:729;-0.30645782;9.481039;1.8004397
12:06:16:773;13:06:16:729;-0.30645782;9.481039;1.8004397
12:06:16:781;13:06:16:729;-0.30645782;9.481039;1.8004397
12:06:16:789;13:06:16:729;-0.30645782;9.481039;1.8004397
12:06:16:796;13:06:16:729;-0.30645782;9.481039;1.8004397
12:06:16:804;13:06:16:729;-0.30645782;9.481039;1.8004397
12:06:16:812;13:06:16:729;-0.30645782;9.481039;1.8004397
12:06:16:820;13:06:16:729;-0.30645782;9.481039;1.8004397
12:06:16:828;13:06:16:729;-0.30645782;9.481039;1.8004397
12:06:16:835;13:06:16:832;0.076614454;9.212888;2.1068976
12:06:16:843;13:06:16:832;0.076614454;9.212888;2.1068976
12:06:16:851;13:06:16:832;0.076614454;9.212888;2.1068976
12:06:16:859;13:06:16:832;0.076614454;9.212888;2.1068976
12:06:16:867;13:06:16:832;0.076614454;9.212888;2.1068976
12:06:16:875;13:06:16:832;0.076614454;9.212888;2.1068976
12:06:16:882;13:06:16:832;0.076614454;9.212888;2.1068976
12:06:16:890;13:06:16:832;0.076614454;9.212888;2.1068976
12:06:16:898;13:06:16:832;0.076614454;9.212888;2.1068976
12:06:16:906;13:06:16:832;0.076614454;9.212888;2.1068976
12:06:16:914;13:06:16:832;0.076614454;9.212888;2.1068976
12:06:16:921;13:06:16:832;0.076614454;9.212888;2.1068976
12:06:16:929;13:06:16:832;0.076614454;9.212888;2.1068976
12:06:16:937;13:06:16:832;0.076614454;9.212888;2.1068976
12:06:16:945;13:06:16:832;0.076614454;9.212888;2.1068976
12:06:16:953;13:06:16:950;0.11492168;10.649409;0.5363012
12:06:16:960;13:06:16:950;0.11492168;10.649409;0.5363012
12:06:16:968;13:06:16:950;0.11492168;10.649409;0.5363012
12:06:16:976;13:06:16:950;0.11492168;10.649409;0.5363012
12:06:16:984;13:06:16:950;0.11492168;10.649409;0.5363012
12:06:16:992;13:06:16:950;0.11492168;10.649409;0.5363012
12:06:17:000;13:06:16:950;0.11492168;10.649409;0.5363012
12:06:17:007;13:06:16:950;0.11492168;10.649409;0.5363012
12:06:17:015;13:06:16:950;0.11492168;10.649409;0.5363012
12:06:17:023;13:06:16:950;0.11492168;10.649409;0.5363012
12:06:17:031;13:06:16:950;0.11492168;10.649409;0.5363012
12:06:17:039;13:06:16:950;0.11492168;10.649409;0.5363012
12:06:17:046;13:06:16:950;0.11492168;10.649409;0.5363012
12:06:17:054;13:06:16:950;0.11492168;10.649409;0.5363012
12:06:17:062;13:06:16:950;0.11492168;10.649409;0.5363012
12:06:17:070;13:06:17:070;-0.21068975;8.90643;2.4133554
12:06:17:078;13:06:17:070;-0.21068975;8.90643;2.4133554
12:06:17:085;13:06:17:070;-0.21068975;8.90643;2.4133554
12:06:17:093;13:06:17:070;-0.21068975;8.90643;2.4133554
12:06:17:101;13:06:17:070;-0.21068975;8.90643;2.4133554
12:06:17:109;13:06:17:070;-0.21068975;8.90643;2.4133554
12:06:17:117;13:06:17:070;-0.21068975;8.90643;2.4133554
12:06:17:125;13:06:17:070;-0.21068975;8.90643;2.4133554
12:06:17:132;13:06:17:070;-0.21068975;8.90643;2.4133554
12:06:17:140;13:06:17:070;-0.21068975;8.90643;2.4133554
12:06:17:148;13:06:17:070;-0.21068975;8.90643;2.4133554
12:06:17:156;13:06:17:070;-0.21068975;8.90643;2.4133554
12:06:17:164;13:06:17:070;-0.21068975;8.90643;2.4133554
12:06:17:171;13:06:17:070;-0.21068975;8.90643;2.4133554
12:06:17:179;13:06:17:172;-0.45968673;8.408437;2.834735
12:06:17:187;13:06:17:172;-0.45968673;8.408437;2.834735
12:06:17:195;13:06:17:172;-0.45968673;8.408437;2.834735
12:06:17:203;13:06:17:172;-0.45968673;8.408437;2.834735
12:06:17:210;13:06:17:172;-0.45968673;8.408437;2.834735
12:06:17:218;13:06:17:172;-0.45968673;8.408437;2.834735
12:06:17:226;13:06:17:172;-0.45968673;8.408437;2.834735
12:06:17:234;13:06:17:172;-0.45968673;8.408437;2.834735
12:06:17:242;13:06:17:172;-0.45968673;8.408437;2.834735
12:06:17:250;13:06:17:172;-0.45968673;8.408437;2.834735
12:06:17:257;13:06:17:172;-0.45968673;8.408437;2.834735
12:06:17:265;13:06:17:172;-0.45968673;8.408437;2.834735
12:06:17:273;13:06:17:172;-0.45968673;8.408437;2.834735
12:06:17:281;13:06:17:172;-0.45968673;8.408437;2.834735
12:06:17:289;13:06:17:172;-0.45968673;8.408437;2.834735
12:06:17:296;13:06:17:172;-0.45968673;8.408437;2.834735
12:06:17:304;13:06:17:172;-0.45968673;8.408437;2.834735
12:06:17:312;13:06:17:172;-0.45968673;8.408437;2.834735
12:06:17:320;13:06:17:314;-0.8810662;9.959879;1.7621324
12:06:17:328;13:06:17:314;-0.8810662;9.959879;1.7621324
12:06:17:335;13:06:17:314;-0.8810662;9.959879;1.7621324
12:06:17:343;13:06:17:314;-0.8810662;9.959879;1.7621324
12:06:17:351;13:06:17:314;-0.8810662;9.959879;1.7621324
12:06:17:359;13:06:17:314;-0.8810662;9.959879;1.7621324
12:06:17:367;13:06:17:314;-0.8810662;9.959879;1.7621324
12:06:17:375;13:06:17:314;-0.8810662;9.959879;1.7621324
12:06:17:382;13:06:17:314;-0.8810662;9.959879;1.7621324
12:06:17:390;13:06:17:314;-0.8810662;9.959879;1.7621324
12:06:17:398;13:06:17:314;-0.8810662;9.959879;1.7621324
12:06:17:406;13:06:17:314;-0.8810662;9.959879;1.7621324
12:06:17:414;13:06:17:314;-0.8810662;9.959879;1.7621324
12:06:17:421;13:06:17:415;-0.82360536;9.212888;1.7621324
12:06:17:429;13:06:17:415;-0.82360536;9.212888;1.7621324
12:06:17:437;13:06:17:415;-0.82360536;9.212888;1.7621324
12:06:17:445;13:06:17:415;-0.82360536;9.212888;1.7621324
12:06:17:453;13:06:17:415;-0.82360536;9.212888;1.7621324
12:06:17:460;13:06:17:415;-0.82360536;9.212888;1.7621324
12:06:17:468;13:06:17:415;-0.82360536;9.212888;1.7621324
12:06:17:476;13:06:17:415;-0.82360536;9.212888;1.7621324
12:06:17:484;13:06:17:415;-0.82360536;9.212888;1.7621324
12:06:17:492;13:06:17:415;-0.82360536;9.212888;1.7621324
12:06:17:500;13:06:17:415;-0.82360536;9.212888;1.7621324
12:06:17:507;13:06:17:415;-0.82360536;9.212888;1.7621324
12:06:17:515;13:06:17:415;-0.82360536;9.212888;1.7621324
12:06:17:523;13:06:17:415;-0.82360536;9.212888;1.7621324
12:06:17:531;13:06:17:415;-0.82360536;9.212888;1.7621324
12:06:17:539;13:06:17:533;-0.45968673;10.515334;0.2873042
12:06:17:546;13:06:17:533;-0.45968673;10.515334;0.2873042
12:06:17:554;13:06:17:533;-0.45968673;10.515334;0.2873042
12:06:17:562;13:06:17:533;-0.45968673;10.515334;0.2873042
12:06:17:570;13:06:17:533;-0.45968673;10.515334;0.2873042
12:06:17:578;13:06:17:533;-0.45968673;10.515334;0.2873042
12:06:17:585;13:06:17:533;-0.45968673;10.515334;0.2873042
12:06:17:593;13:06:17:533;-0.45968673;10.515334;0.2873042
12:06:17:601;13:06:17:533;-0.45968673;10.515334;0.2873042
12:06:17:609;13:06:17:533;-0.45968673;10.515334;0.2873042
12:06:17:617;13:06:17:533;-0.45968673;10.515334;0.2873042
12:06:17:625;13:06:17:533;-0.45968673;10.515334;0.2873042
12:06:17:632;13:06:17:533;-0.45968673;10.515334;0.2873042
12:06:17:640;13:06:17:533;-0.45968673;10.515334;0.2873042
12:06:17:648;13:06:17:643;-0.2873042;9.749189;1.1683705
12:06:17:656;13:06:17:643;-0.2873042;9.749189;1.1683705
12:06:17:664;13:06:17:643;-0.2873042;9.749189;1.1683705
12:06:17:671;13:06:17:643;-0.2873042;9.749189;1.1683705
12:06:17:679;13:06:17:643;-0.2873042;9.749189;1.1683705
12:06:17:687;13:06:17:643;-0.2873042;9.749189;1.1683705
12:06:17:695;13:06:17:643;-0.2873042;9.749189;1.1683705
12:06:17:703;13:06:17:643;-0.2873042;9.749189;1.1683705
12:06:17:710;13:06:17:643;-0.2873042;9.749189;1.1683705
12:06:17:718;13:06:17:643;-0.2873042;9.749189;1.1683705
12:06:17:726;13:06:17:643;-0.2873042;9.749189;1.1683705
12:06:17:734;13:06:17:643;-0.2873042;9.749189;1.1683705
12:06:17:742;13:06:17:643;-0.2873042;9.749189;1.1683705
12:06:17:750;13:06:17:643;-0.2873042;9.749189;1.1683705
12:06:17:757;13:06:17:753;-0.63206923;9.730036;1.436521
12:06:17:765;13:06:17:753;-0.63206923;9.730036;1.436521
12:06:17:773;13:06:17:753;-0.63206923;9.730036;1.436521
12:06:17:781;13:06:17:753;-0.63206923;9.730036;1.436521
12:06:17:789;13:06:17:753;-0.63206923;9.730036;1.436521
12:06:17:796;13:06:17:753;-0.63206923;9.730036;1.436521
12:06:17:804;13:06:17:753;-0.63206923;9.730036;1.436521
12:06:17:812;13:06:17:753;-0.63206923;9.730036;1.436521
12:06:17:820;13:06:17:753;-0.63206923;9.730036;1.436521
12:06:17:828;13:06:17:753;-0.63206923;9.730036;1.436521
12:06:17:835;13:06:17:753;-0.63206923;9.730036;1.436521
12:06:17:843;13:06:17:753;-0.63206923;9.730036;1.436521
12:06:17:851;13:06:17:753;-0.63206923;9.730036;1.436521
12:06:17:859;13:06:17:856;-0.095768064;9.864111;1.2641385
12:06:17:867;13:06:17:856;-0.095768064;9.864111;1.2641385
12:06:17:875;13:06:17:856;-0.095768064;9.864111;1.2641385
12:06:17:882;13:06:17:856;-0.095768064;9.864111;1.2641385
12:06:17:890;13:06:17:856;-0.095768064;9.864111;1.2641385
12:06:17:898;13:06:17:856;-0.095768064;9.864111;1.2641385
12:06:17:906;13:06:17:856;-0.095768064;9.864111;1.2641385
12:06:17:914;13:06:17:856;-0.095768064;9.864111;1.2641385
12:06:17:921;13:06:17:856;-0.095768064;9.864111;1.2641385
12:06:17:929;13:06:17:856;-0.095768064;9.864111;1.2641385
12:06:17:937;13:06:17:856;-0.095768064;9.864111;1.2641385
12:06:17:945;13:06:17:856;-0.095768064;9.864111;1.2641385
12:06:17:953;13:06:17:856;-0.095768064;9.864111;1.2641385
12:06:17:960;13:06:17:856;-0.095768064;9.864111;1.2641385
12:06:17:968;13:06:17:856;-0.095768064;9.864111;1.2641385
12:06:17:976;13:06:17:975;-0.22984336;9.672575;1.6472107
12:06:17:984;13:06:17:975;-0.22984336;9.672575;1.6472107
12:06:17:992;13:06:17:975;-0.22984336;9.672575;1.6472107
12:06:18:000;13:06:17:975;-0.22984336;9.672575;1.6472107
12:06:18:007;13:06:17:975;-0.22984336;9.672575;1.6472107
12:06:18:015;13:06:17:975;-0.22984336;9.672575;1.6472107
12:06:18:023;13:06:17:975;-0.22984336;9.672575;1.6472107
12:06:18:031;13:06:17:975;-0.22984336;9.672575;1.6472107
12:06:18:039;13:06:17:975;-0.22984336;9.672575;1.6472107
12:06:18:046;13:06:17:975;-0.22984336;9.672575;1.6472107
12:06:18:054;13:06:17:975;-0.22984336;9.672575;1.6472107
12:06:18:062;13:06:17:975;-0.22984336;9.672575;1.6472107
12:06:18:070;13:06:17:975;-0.22984336;9.672575;1.6472107
12:06:18:078;13:06:17:975;-0.22984336;9.672575;1.6472107
12:06:18:085;13:06:17:975;-0.22984336;9.672575;1.6472107
12:06:18:093;13:06:18:090;-0.5746084;10.668563;0.38307226
12:06:18:101;13:06:18:090;-0.5746084;10.668563;0.38307226
12:06:18:109;13:06:18:090;-0.5746084;10.668563;0.38307226
12:06:18:117;13:06:18:090;-0.5746084;10.668563;0.38307226
12:06:18:125;13:06:18:090;-0.5746084;10.668563;0.38307226
12:06:18:132;13:06:18:090;-0.5746084;10.668563;0.38307226
12:06:18:140;13:06:18:090;-0.5746084;10.668563;0.38307226
12:06:18:148;13:06:18:090;-0.5746084;10.668563;0.38307226
12:06:18:156;13:06:18:090;-0.5746084;10.668563;0.38307226
12:06:18:164;13:06:18:090;-0.5746084;10.668563;0.38307226
12:06:18:171;13:06:18:090;-0.5746084;10.668563;0.38307226
12:06:18:179;13:06:18:090;-0.5746084;10.668563;0.38307226
12:06:18:187;13:06:18:090;-0.5746084;10.668563;0.38307226
12:06:18:195;13:06:18:193;-0.24899697;10.5919485;0.40222588
12:06:18:203;13:06:18:193;-0.24899697;10.5919485;0.40222588
12:06:18:210;13:06:18:193;-0.24899697;10.5919485;0.40222588
12:06:18:218;13:06:18:193;-0.24899697;10.5919485;0.40222588
12:06:18:226;13:06:18:193;-0.24899697;10.5919485;0.40222588
12:06:18:234;13:06:18:193;-0.24899697;10.5919485;0.40222588
12:06:18:242;13:06:18:193;-0.24899697;10.5919485;0.40222588
12:06:18:250;13:06:18:193;-0.24899697;10.5919485;0.40222588
12:06:18:257;13:06:18:193;-0.24899697;10.5919485;0.40222588
12:06:18:265;13:06:18:193;-0.24899697;10.5919485;0.40222588
12:06:18:273;13:06:18:193;-0.24899697;10.5919485;0.40222588
12:06:18:281;13:06:18:193;-0.24899697;10.5919485;0.40222588
12:06:18:289;13:06:18:193;-0.24899697;10.5919485;0.40222588
12:06:18:296;13:06:18:193;-0.24899697;10.5919485;0.40222588
12:06:18:304;13:06:18:193;-0.24899697;10.5919485;0.40222588
12:06:18:312;13:06:18:311;-0.5363012;8.791509;2.183512
12:06:18:320;13:06:18:311;-0.5363012;8.791509;2.183512
12:06:18:328;13:06:18:311;-0.5363012;8.791509;2.183512
12:06:18:335;13:06:18:311;-0.5363012;8.791509;2.183512
12:06:18:343;13:06:18:311;-0.5363012;8.791509;2.183512
12:06:18:351;13:06:18:311;-0.5363012;8.791509;2.183512
12:06:18:359;13:06:18:311;-0.5363012;8.791509;2.183512
12:06:18:367;13:06:18:311;-0.5363012;8.791509;2.183512
12:06:18:375;13:06:18:311;-0.5363012;8.791509;2.183512
12:06:18:382;13:06:18:311;-0.5363012;8.791509;2.183512
12:06:18:390;13:06:18:311;-0.5363012;8.791509;2.183512
12:06:18:398;13:06:18:311;-0.5363012;8.791509;2.183512
12:06:18:406;13:06:18:311;-0.5363012;8.791509;2.183512
12:06:18:414;13:06:18:413;-0.47884035;9.097966;1.7621324
12:06:18:421;13:06:18:413;-0.47884035;9.097966;1.7621324
12:06:18:429;13:06:18:413;-0.47884035;9.097966;1.7621324
12:06:18:437;13:06:18:413;-0.47884035;9.097966;1.7621324
12:06:18:445;13:06:18:413;-0.47884035;9.097966;1.7621324
12:06:18:453;13:06:18:413;-0.47884035;9.097966;1.7621324
12:06:18:460;13:06:18:413;-0.47884035;9.097966;1.7621324
12:06:18:468;13:06:18:413;-0.47884035;9.097966;1.7621324
12:06:18:476;13:06:18:413;-0.47884035;9.097966;1.7621324
12:06:18:484;13:06:18:413;-0.47884035;9.097966;1.7621324
12:06:18:492;13:06:18:413;-0.47884035;9.097966;1.7621324
12:06:18:500;13:06:18:413;-0.47884035;9.097966;1.7621324
12:06:18:507;13:06:18:413;-0.47884035;9.097966;1.7621324
12:06:18:515;13:06:18:413;-0.47884035;9.097966;1.7621324
12:06:18:523;13:06:18:413;-0.47884035;9.097966;1.7621324
12:06:18:531;13:06:18:530;-0.40222588;10.534488;0.40222588
12:06:18:539;13:06:18:530;-0.40222588;10.534488;0.40222588
12:06:18:546;13:06:18:530;-0.40222588;10.534488;0.40222588
12:06:18:554;13:06:18:530;-0.40222588;10.534488;0.40222588
12:06:18:562;13:06:18:530;-0.40222588;10.534488;0.40222588
12:06:18:570;13:06:18:530;-0.40222588;10.534488;0.40222588
12:06:18:578;13:06:18:530;-0.40222588;10.534488;0.40222588
12:06:18:585;13:06:18:530;-0.40222588;10.534488;0.40222588
12:06:18:593;13:06:18:530;-0.40222588;10.534488;0.40222588
12:06:18:601;13:06:18:530;-0.40222588;10.534488;0.40222588
12:06:18:609;13:06:18:530;-0.40222588;10.534488;0.40222588
12:06:18:617;13:06:18:530;-0.40222588;10.534488;0.40222588
12:06:18:625;13:06:18:530;-0.40222588;10.534488;0.40222588
12:06:18:632;13:06:18:530;-0.40222588;10.534488;0.40222588
12:06:18:640;13:06:18:530;-0.40222588;10.534488;0.40222588
12:06:18:648;13:06:18:646;-0.5363012;9.902418;0.80445176
12:06:18:656;13:06:18:646;-0.5363012;9.902418;0.80445176
12:06:18:664;13:06:18:646;-0.5363012;9.902418;0.80445176
12:06:18:671;13:06:18:646;-0.5363012;9.902418;0.80445176
12:06:18:679;13:06:18:646;-0.5363012;9.902418;0.80445176
12:06:18:687;13:06:18:646;-0.5363012;9.902418;0.80445176
12:06:18:695;13:06:18:646;-0.5363012;9.902418;0.80445176
12:06:18:703;13:06:18:646;-0.5363012;9.902418;0.80445176
12:06:18:710;13:06:18:646;-0.5363012;9.902418;0.80445176
12:06:18:718;13:06:18:646;-0.5363012;9.902418;0.80445176
12:06:18:726;13:06:18:646;-0.5363012;9.902418;0.80445176
12:06:18:734;13:06:18:646;-0.5363012;9.902418;0.80445176
12:06:18:742;13:06:18:646;-0.5363012;9.902418;0.80445176
12:06:18:750;13:06:18:646;-0.5363012;9.902418;0.80445176
12:06:18:757;13:06:18:646;-0.5363012;9.902418;0.80445176
12:06:18:765;13:06:18:646;-0.5363012;9.902418;0.80445176
12:06:18:773;13:06:18:767;-0.22984336;9.385271;1.4748282
12:06:18:781;13:06:18:767;-0.22984336;9.385271;1.4748282
12:06:18:789;13:06:18:767;-0.22984336;9.385271;1.4748282
12:06:18:796;13:06:18:767;-0.22984336;9.385271;1.4748282
12:06:18:804;13:06:18:767;-0.22984336;9.385271;1.4748282
12:06:18:812;13:06:18:767;-0.22984336;9.385271;1.4748282
12:06:18:820;13:06:18:767;-0.22984336;9.385271;1.4748282
12:06:18:828;13:06:18:767;-0.22984336;9.385271;1.4748282
12:06:18:835;13:06:18:767;-0.22984336;9.385271;1.4748282
12:06:18:843;13:06:18:767;-0.22984336;9.385271;1.4748282
12:06:18:851;13:06:18:767;-0.22984336;9.385271;1.4748282
12:06:18:859;13:06:18:767;-0.22984336;9.385271;1.4748282
12:06:18:867;13:06:18:767;-0.22984336;9.385271;1.4748282
12:06:18:875;13:06:18:767;-0.22984336;9.385271;1.4748282
12:06:18:882;13:06:18:767;-0.22984336;9.385271;1.4748282
12:06:18:890;13:06:18:884;-0.2681506;10.70687;0.11492168
12:06:18:898;13:06:18:884;-0.2681506;10.70687;0.11492168
12:06:18:906;13:06:18:884;-0.2681506;10.70687;0.11492168
12:06:18:914;13:06:18:884;-0.2681506;10.70687;0.11492168
12:06:18:921;13:06:18:884;-0.2681506;10.70687;0.11492168
12:06:18:929;13:06:18:884;-0.2681506;10.70687;0.11492168
12:06:18:937;13:06:18:884;-0.2681506;10.70687;0.11492168
12:06:18:945;13:06:18:884;-0.2681506;10.70687;0.11492168
12:06:18:953;13:06:18:884;-0.2681506;10.70687;0.11492168
12:06:18:960;13:06:18:884;-0.2681506;10.70687;0.11492168
12:06:18:968;13:06:18:884;-0.2681506;10.70687;0.11492168
12:06:18:976;13:06:18:884;-0.2681506;10.70687;0.11492168
12:06:18:984;13:06:18:884;-0.2681506;10.70687;0.11492168
12:06:18:992;13:06:18:987;-0.24899697;10.5919485;0.038307227
12:06:19:000;13:06:18:987;-0.24899697;10.5919485;0.038307227
12:06:19:007;13:06:18:987;-0.24899697;10.5919485;0.038307227
12:06:19:015;13:06:18:987;-0.24899697;10.5919485;0.038307227
12:06:19:023;13:06:18:987;-0.24899697;10.5919485;0.038307227
12:06:19:031;13:06:18:987;-0.24899697;10.5919485;0.038307227
12:06:19:039;13:06:18:987;-0.24899697;10.5919485;0.038307227
12:06:19:046;13:06:18:987;-0.24899697;10.5919485;0.038307227
12:06:19:054;13:06:18:987;-0.24899697;10.5919485;0.038307227
12:06:19:062;13:06:18:987;-0.24899697;10.5919485;0.038307227
12:06:19:070;13:06:18:987;-0.24899697;10.5919485;0.038307227
12:06:19:078;13:06:18:987;-0.24899697;10.5919485;0.038307227
12:06:19:085;13:06:18:987;-0.24899697;10.5919485;0.038307227
12:06:19:093;13:06:18:987;-0.24899697;10.5919485;0.038307227
12:06:19:101;13:06:18:987;-0.24899697;10.5919485;0.038307227
12:06:19:109;13:06:19:106;-0.30645782;9.3661175;1.685518
12:06:19:117;13:06:19:106;-0.30645782;9.3661175;1.685518
12:06:19:125;13:06:19:106;-0.30645782;9.3661175;1.685518
12:06:19:132;13:06:19:106;-0.30645782;9.3661175;1.685518
12:06:19:140;13:06:19:106;-0.30645782;9.3661175;1.685518
12:06:19:148;13:06:19:106;-0.30645782;9.3661175;1.685518
12:06:19:156;13:06:19:106;-0.30645782;9.3661175;1.685518
12:06:19:164;13:06:19:106;-0.30645782;9.3661175;1.685518
12:06:19:171;13:06:19:106;-0.30645782;9.3661175;1.685518
12:06:19:179;13:06:19:106;-0.30645782;9.3661175;1.685518
12:06:19:187;13:06:19:106;-0.30645782;9.3661175;1.685518
12:06:19:195;13:06:19:106;-0.30645782;9.3661175;1.685518
12:06:19:203;13:06:19:106;-0.30645782;9.3661175;1.685518
12:06:19:210;13:06:19:106;-0.30645782;9.3661175;1.685518
12:06:19:218;13:06:19:106;-0.30645782;9.3661175;1.685518
12:06:19:226;13:06:19:222;-0.24899697;10.97502;-0.61291564
12:06:19:234;13:06:19:222;-0.24899697;10.97502;-0.61291564
12:06:19:242;13:06:19:222;-0.24899697;10.97502;-0.61291564
12:06:19:250;13:06:19:222;-0.24899697;10.97502;-0.61291564
12:06:19:257;13:06:19:222;-0.24899697;10.97502;-0.61291564
12:06:19:265;13:06:19:222;-0.24899697;10.97502;-0.61291564
12:06:19:273;13:06:19:222;-0.24899697;10.97502;-0.61291564
12:06:19:281;13:06:19:222;-0.24899697;10.97502;-0.61291564
12:06:19:289;13:06:19:222;-0.24899697;10.97502;-0.61291564
12:06:19:296;13:06:19:222;-0.24899697;10.97502;-0.61291564
12:06:19:304;13:06:19:222;-0.24899697;10.97502;-0.61291564
12:06:19:312;13:06:19:222;-0.24899697;10.97502;-0.61291564
12:06:19:320;13:06:19:222;-0.24899697;10.97502;-0.61291564
12:06:19:328;13:06:19:222;-0.24899697;10.97502;-0.61291564
12:06:19:335;13:06:19:330;-0.2873042;10.151415;0.2681506
12:06:19:343;13:06:19:330;-0.2873042;10.151415;0.2681506
12:06:19:351;13:06:19:330;-0.2873042;10.151415;0.2681506
12:06:19:359;13:06:19:330;-0.2873042;10.151415;0.2681506
12:06:19:367;13:06:19:330;-0.2873042;10.151415;0.2681506
12:06:19:375;13:06:19:330;-0.2873042;10.151415;0.2681506
12:06:19:382;13:06:19:330;-0.2873042;10.151415;0.2681506
12:06:19:390;13:06:19:330;-0.2873042;10.151415;0.2681506
12:06:19:398;13:06:19:330;-0.2873042;10.151415;0.2681506
12:06:19:406;13:06:19:330;-0.2873042;10.151415;0.2681506
12:06:19:414;13:06:19:330;-0.2873042;10.151415;0.2681506
12:06:19:421;13:06:19:330;-0.2873042;10.151415;0.2681506
12:06:19:429;13:06:19:330;-0.2873042;10.151415;0.2681506
12:06:19:437;13:06:19:330;-0.2873042;10.151415;0.2681506
12:06:19:445;13:06:19:440;-0.4213795;9.940725;0.7278373
12:06:19:453;13:06:19:440;-0.4213795;9.940725;0.7278373
12:06:19:460;13:06:19:440;-0.4213795;9.940725;0.7278373
12:06:19:468;13:06:19:440;-0.4213795;9.940725;0.7278373
12:06:19:476;13:06:19:440;-0.4213795;9.940725;0.7278373
12:06:19:484;13:06:19:440;-0.4213795;9.940725;0.7278373
12:06:19:492;13:06:19:440;-0.4213795;9.940725;0.7278373
12:06:19:500;13:06:19:440;-0.4213795;9.940725;0.7278373
12:06:19:507;13:06:19:440;-0.4213795;9.940725;0.7278373
12:06:19:515;13:06:19:440;-0.4213795;9.940725;0.7278373
12:06:19:523;13:06:19:440;-0.4213795;9.940725;0.7278373
12:06:19:531;13:06:19:440;-0.4213795;9.940725;0.7278373
12:06:19:539;13:06:19:440;-0.4213795;9.940725;0.7278373
12:06:19:546;13:06:19:440;-0.4213795;9.940725;0.7278373
12:06:19:554;13:06:19:440;-0.4213795;9.940725;0.7278373
12:06:19:562;13:06:19:555;-0.2681506;10.151415;0.30645782
12:06:19:570;13:06:19:555;-0.2681506;10.151415;0.30645782
12:06:19:578;13:06:19:555;-0.2681506;10.151415;0.30645782
12:06:19:585;13:06:19:555;-0.2681506;10.151415;0.30645782
12:06:19:593;13:06:19:555;-0.2681506;10.151415;0.30645782
12:06:19:601;13:06:19:555;-0.2681506;10.151415;0.30645782
12:06:19:609;13:06:19:555;-0.2681506;10.151415;0.30645782
12:06:19:617;13:06:19:555;-0.2681506;10.151415;0.30645782
12:06:19:625;13:06:19:555;-0.2681506;10.151415;0.30645782
12:06:19:632;13:06:19:555;-0.2681506;10.151415;0.30645782
12:06:19:640;13:06:19:555;-0.2681506;10.151415;0.30645782
12:06:19:648;13:06:19:555;-0.2681506;10.151415;0.30645782
12:06:19:656;13:06:19:555;-0.2681506;10.151415;0.30645782
12:06:19:664;13:06:19:555;-0.2681506;10.151415;0.30645782
12:06:19:671;13:06:19:555;-0.2681506;10.151415;0.30645782
12:06:19:679;13:06:19:679;-0.24899697;10.113108;1.0342951
12:06:19:687;13:06:19:679;-0.24899697;10.113108;1.0342951
12:06:19:695;13:06:19:679;-0.24899697;10.113108;1.0342951
12:06:19:703;13:06:19:679;-0.24899697;10.113108;1.0342951
12:06:19:710;13:06:19:679;-0.24899697;10.113108;1.0342951
12:06:19:718;13:06:19:679;-0.24899697;10.113108;1.0342951
12:06:19:726;13:06:19:679;-0.24899697;10.113108;1.0342951
12:06:19:734;13:06:19:679;-0.24899697;10.113108;1.0342951
12:06:19:742;13:06:19:679;-0.24899697;10.113108;1.0342951
12:06:19:750;13:06:19:679;-0.24899697;10.113108;1.0342951
12:06:19:757;13:06:19:679;-0.24899697;10.113108;1.0342951
12:06:19:765;13:06:19:679;-0.24899697;10.113108;1.0342951
12:06:19:773;13:06:19:679;-0.24899697;10.113108;1.0342951
12:06:19:781;13:06:19:679;-0.24899697;10.113108;1.0342951
12:06:19:789;13:06:19:679;-0.24899697;10.113108;1.0342951
12:06:19:796;13:06:19:792;-0.17238252;10.01734;0.80445176
12:06:19:804;13:06:19:792;-0.17238252;10.01734;0.80445176
12:06:19:812;13:06:19:792;-0.17238252;10.01734;0.80445176
12:06:19:820;13:06:19:792;-0.17238252;10.01734;0.80445176
12:06:19:828;13:06:19:792;-0.17238252;10.01734;0.80445176
12:06:19:835;13:06:19:792;-0.17238252;10.01734;0.80445176
12:06:19:843;13:06:19:792;-0.17238252;10.01734;0.80445176
12:06:19:851;13:06:19:792;-0.17238252;10.01734;0.80445176
12:06:19:859;13:06:19:792;-0.17238252;10.01734;0.80445176
12:06:19:867;13:06:19:792;-0.17238252;10.01734;0.80445176
12:06:19:875;13:06:19:792;-0.17238252;10.01734;0.80445176
12:06:19:882;13:06:19:792;-0.17238252;10.01734;0.80445176
12:06:19:890;13:06:19:792;-0.17238252;10.01734;0.80445176
12:06:19:898;13:06:19:896;-0.34476504;9.768343;1.2449849
12:06:19:906;13:06:19:896;-0.34476504;9.768343;1.2449849
12:06:19:914;13:06:19:896;-0.34476504;9.768343;1.2449849
12:06:19:921;13:06:19:896;-0.34476504;9.768343;1.2449849
12:06:19:929;13:06:19:896;-0.34476504;9.768343;1.2449849
12:06:19:937;13:06:19:896;-0.34476504;9.768343;1.2449849
12:06:19:945;13:06:19:896;-0.34476504;9.768343;1.2449849
12:06:19:953;13:06:19:896;-0.34476504;9.768343;1.2449849
12:06:19:960;13:06:19:896;-0.34476504;9.768343;1.2449849
12:06:19:968;13:06:19:896;-0.34476504;9.768343;1.2449849
12:06:19:976;13:06:19:896;-0.34476504;9.768343;1.2449849
12:06:19:984;13:06:19:896;-0.34476504;9.768343;1.2449849
12:06:19:992;13:06:19:896;-0.34476504;9.768343;1.2449849
12:06:20:000;13:06:19:896;-0.34476504;9.768343;1.2449849
12:06:20:007;13:06:20:002;-0.2873042;10.572795;0.63206923
12:06:20:015;13:06:20:002;-0.2873042;10.572795;0.63206923
12:06:20:023;13:06:20:002;-0.2873042;10.572795;0.63206923
12:06:20:031;13:06:20:002;-0.2873042;10.572795;0.63206923
12:06:20:039;13:06:20:002;-0.2873042;10.572795;0.63206923
12:06:20:046;13:06:20:002;-0.2873042;10.572795;0.63206923
12:06:20:054;13:06:20:002;-0.2873042;10.572795;0.63206923
12:06:20:062;13:06:20:002;-0.2873042;10.572795;0.63206923
12:06:20:070;13:06:20:002;-0.2873042;10.572795;0.63206923
12:06:20:078;13:06:20:002;-0.2873042;10.572795;0.63206923
12:06:20:085;13:06:20:002;-0.2873042;10.572795;0.63206923
12:06:20:093;13:06:20:002;-0.2873042;10.572795;0.63206923
12:06:20:101;13:06:20:002;-0.2873042;10.572795;0.63206923
12:06:20:109;13:06:20:002;-0.2873042;10.572795;0.63206923
12:06:20:117;13:06:20:002;-0.2873042;10.572795;0.63206923
12:06:20:125;13:06:20:118;-0.24899697;9.346964;1.8004397
12:06:20:132;13:06:20:118;-0.24899697;9.346964;1.8004397
12:06:20:140;13:06:20:118;-0.24899697;9.346964;1.8004397
12:06:20:148;13:06:20:118;-0.24899697;9.346964;1.8004397
12:06:20:156;13:06:20:118;-0.24899697;9.346964;1.8004397
12:06:20:164;13:06:20:118;-0.24899697;9.346964;1.8004397
12:06:20:171;13:06:20:118;-0.24899697;9.346964;1.8004397
12:06:20:179;13:06:20:118;-0.24899697;9.346964;1.8004397
12:06:20:187;13:06:20:118;-0.24899697;9.346964;1.8004397
12:06:20:195;13:06:20:118;-0.24899697;9.346964;1.8004397
12:06:20:203;13:06:20:118;-0.24899697;9.346964;1.8004397
12:06:20:210;13:06:20:118;-0.24899697;9.346964;1.8004397
12:06:20:218;13:06:20:118;-0.24899697;9.346964;1.8004397
12:06:20:226;13:06:20:118;-0.24899697;9.346964;1.8004397
12:06:20:234;13:06:20:118;-0.24899697;9.346964;1.8004397
12:06:20:242;13:06:20:118;-0.24899697;9.346964;1.8004397
12:06:20:250;13:06:20:118;-0.24899697;9.346964;1.8004397
12:06:20:257;13:06:20:118;-0.24899697;9.346964;1.8004397
12:06:20:265;13:06:20:261;-0.11492168;9.576807;1.685518
12:06:20:273;13:06:20:261;-0.11492168;9.576807;1.685518
12:06:20:281;13:06:20:261;-0.11492168;9.576807;1.685518
12:06:20:289;13:06:20:261;-0.11492168;9.576807;1.685518
12:06:20:296;13:06:20:261;-0.11492168;9.576807;1.685518
12:06:20:304;13:06:20:261;-0.11492168;9.576807;1.685518
12:06:20:312;13:06:20:261;-0.11492168;9.576807;1.685518
12:06:20:320;13:06:20:261;-0.11492168;9.576807;1.685518
12:06:20:328;13:06:20:261;-0.11492168;9.576807;1.685518
12:06:20:335;13:06:20:261;-0.11492168;9.576807;1.685518
12:06:20:343;13:06:20:261;-0.11492168;9.576807;1.685518
12:06:20:351;13:06:20:261;-0.11492168;9.576807;1.685518
12:06:20:359;13:06:20:261;-0.11492168;9.576807;1.685518
12:06:20:367;13:06:20:261;-0.11492168;9.576807;1.685518
12:06:20:375;13:06:20:375;-0.2681506;10.70687;0.5363012
12:06:20:382;13:06:20:375;-0.2681506;10.70687;0.5363012
12:06:20:390;13:06:20:375;-0.2681506;10.70687;0.5363012
12:06:20:398;13:06:20:375;-0.2681506;10.70687;0.5363012
12:06:20:406;13:06:20:375;-0.2681506;10.70687;0.5363012
12:06:20:414;13:06:20:375;-0.2681506;10.70687;0.5363012
12:06:20:421;13:06:20:375;-0.2681506;10.70687;0.5363012
12:06:20:429;13:06:20:375;-0.2681506;10.70687;0.5363012
12:06:20:437;13:06:20:375;-0.2681506;10.70687;0.5363012
12:06:20:445;13:06:20:375;-0.2681506;10.70687;0.5363012
12:06:20:453;13:06:20:375;-0.2681506;10.70687;0.5363012
12:06:20:460;13:06:20:375;-0.2681506;10.70687;0.5363012
12:06:20:468;13:06:20:375;-0.2681506;10.70687;0.5363012
12:06:20:476;13:06:20:375;-0.2681506;10.70687;0.5363012
12:06:20:484;13:06:20:375;-0.2681506;10.70687;0.5363012
12:06:20:492;13:06:20:486;-0.49799395;9.998186;0.91937345
12:06:20:500;13:06:20:486;-0.49799395;9.998186;0.91937345
12:06:20:507;13:06:20:486;-0.49799395;9.998186;0.91937345
12:06:20:515;13:06:20:486;-0.49799395;9.998186;0.91937345
12:06:20:523;13:06:20:486;-0.49799395;9.998186;0.91937345
12:06:20:531;13:06:20:486;-0.49799395;9.998186;0.91937345
12:06:20:539;13:06:20:486;-0.49799395;9.998186;0.91937345
12:06:20:546;13:06:20:486;-0.49799395;9.998186;0.91937345
12:06:20:554;13:06:20:486;-0.49799395;9.998186;0.91937345
12:06:20:562;13:06:20:486;-0.49799395;9.998186;0.91937345
12:06:20:570;13:06:20:486;-0.49799395;9.998186;0.91937345
12:06:20:578;13:06:20:486;-0.49799395;9.998186;0.91937345
12:06:20:585;13:06:20:486;-0.49799395;9.998186;0.91937345
12:06:20:593;13:06:20:486;-0.49799395;9.998186;0.91937345
12:06:20:601;13:06:20:486;-0.49799395;9.998186;0.91937345
12:06:20:609;13:06:20:606;-0.4213795;9.730036;1.340753
12:06:20:617;13:06:20:606;-0.4213795;9.730036;1.340753
12:06:20:625;13:06:20:606;-0.4213795;9.730036;1.340753
12:06:20:632;13:06:20:606;-0.4213795;9.730036;1.340753
12:06:20:640;13:06:20:606;-0.4213795;9.730036;1.340753
12:06:20:648;13:06:20:606;-0.4213795;9.730036;1.340753
12:06:20:656;13:06:20:606;-0.4213795;9.730036;1.340753
12:06:20:664;13:06:20:606;-0.4213795;9.730036;1.340753
12:06:20:671;13:06:20:606;-0.4213795;9.730036;1.340753
12:06:20:679;13:06:20:606;-0.4213795;9.730036;1.340753
12:06:20:687;13:06:20:606;-0.4213795;9.730036;1.340753
12:06:20:695;13:06:20:606;-0.4213795;9.730036;1.340753
12:06:20:703;13:06:20:606;-0.4213795;9.730036;1.340753
12:06:20:710;13:06:20:606;-0.4213795;9.730036;1.340753
12:06:20:718;13:06:20:714;-0.4213795;10.43872;0.59376204
12:06:20:726;13:06:20:714;-0.4213795;10.43872;0.59376204
12:06:20:734;13:06:20:714;-0.4213795;10.43872;0.59376204
12:06:20:742;13:06:20:714;-0.4213795;10.43872;0.59376204
12:06:20:750;13:06:20:714;-0.4213795;10.43872;0.59376204
12:06:20:757;13:06:20:714;-0.4213795;10.43872;0.59376204
12:06:20:765;13:06:20:714;-0.4213795;10.43872;0.59376204
12:06:20:773;13:06:20:714;-0.4213795;10.43872;0.59376204
12:06:20:781;13:06:20:714;-0.4213795;10.43872;0.59376204
12:06:20:789;13:06:20:714;-0.4213795;10.43872;0.59376204
12:06:20:796;13:06:20:714;-0.4213795;10.43872;0.59376204
12:06:20:804;13:06:20:714;-0.4213795;10.43872;0.59376204
12:06:20:812;13:06:20:714;-0.4213795;10.43872;0.59376204
12:06:20:820;13:06:20:714;-0.4213795;10.43872;0.59376204
12:06:20:828;13:06:20:826;-0.24899697;10.093954;0.36391866
12:06:20:835;13:06:20:826;-0.24899697;10.093954;0.36391866
12:06:20:843;13:06:20:826;-0.24899697;10.093954;0.36391866
12:06:20:851;13:06:20:826;-0.24899697;10.093954;0.36391866
12:06:20:859;13:06:20:826;-0.24899697;10.093954;0.36391866
12:06:20:867;13:06:20:826;-0.24899697;10.093954;0.36391866
12:06:20:875;13:06:20:826;-0.24899697;10.093954;0.36391866
12:06:20:882;13:06:20:826;-0.24899697;10.093954;0.36391866
12:06:20:890;13:06:20:826;-0.24899697;10.093954;0.36391866
12:06:20:898;13:06:20:826;-0.24899697;10.093954;0.36391866
12:06:20:906;13:06:20:826;-0.24899697;10.093954;0.36391866
12:06:20:914;13:06:20:826;-0.24899697;10.093954;0.36391866
12:06:20:921;13:06:20:826;-0.24899697;10.093954;0.36391866
12:06:20:929;13:06:20:826;-0.24899697;10.093954;0.36391866
12:06:20:937;13:06:20:826;-0.24899697;10.093954;0.36391866
12:06:20:945;13:06:20:826;-0.24899697;10.093954;0.36391866
12:06:20:953;13:06:20:946;-0.4405331;9.270349;0.91937345
12:06:20:960;13:06:20:946;-0.4405331;9.270349;0.91937345
12:06:20:968;13:06:20:946;-0.4405331;9.270349;0.91937345
12:06:20:976;13:06:20:946;-0.4405331;9.270349;0.91937345
12:06:20:984;13:06:20:946;-0.4405331;9.270349;0.91937345
12:06:20:992;13:06:20:946;-0.4405331;9.270349;0.91937345
12:06:21:000;13:06:20:946;-0.4405331;9.270349;0.91937345
12:06:21:007;13:06:20:946;-0.4405331;9.270349;0.91937345
12:06:21:015;13:06:20:946;-0.4405331;9.270349;0.91937345
12:06:21:023;13:06:20:946;-0.4405331;9.270349;0.91937345
12:06:21:031;13:06:20:946;-0.4405331;9.270349;0.91937345
12:06:21:039;13:06:20:946;-0.4405331;9.270349;0.91937345
12:06:21:046;13:06:20:946;-0.4405331;9.270349;0.91937345
12:06:21:054;13:06:21:047;-0.36391866;9.691729;1.2066777
12:06:21:062;13:06:21:047;-0.36391866;9.691729;1.2066777
12:06:21:070;13:06:21:047;-0.36391866;9.691729;1.2066777
12:06:21:078;13:06:21:047;-0.36391866;9.691729;1.2066777
12:06:21:085;13:06:21:047;-0.36391866;9.691729;1.2066777
12:06:21:093;13:06:21:047;-0.36391866;9.691729;1.2066777
12:06:21:101;13:06:21:047;-0.36391866;9.691729;1.2066777
12:06:21:109;13:06:21:047;-0.36391866;9.691729;1.2066777
12:06:21:117;13:06:21:047;-0.36391866;9.691729;1.2066777
12:06:21:125;13:06:21:047;-0.36391866;9.691729;1.2066777
12:06:21:132;13:06:21:047;-0.36391866;9.691729;1.2066777
12:06:21:140;13:06:21:047;-0.36391866;9.691729;1.2066777
12:06:21:148;13:06:21:047;-0.36391866;9.691729;1.2066777
12:06:21:156;13:06:21:151;-0.19153613;9.902418;0.9576807
12:06:21:164;13:06:21:151;-0.19153613;9.902418;0.9576807
12:06:21:171;13:06:21:151;-0.19153613;9.902418;0.9576807
12:06:21:179;13:06:21:151;-0.19153613;9.902418;0.9576807
12:06:21:187;13:06:21:151;-0.19153613;9.902418;0.9576807
12:06:21:195;13:06:21:151;-0.19153613;9.902418;0.9576807
12:06:21:203;13:06:21:151;-0.19153613;9.902418;0.9576807
12:06:21:210;13:06:21:151;-0.19153613;9.902418;0.9576807
12:06:21:218;13:06:21:151;-0.19153613;9.902418;0.9576807
12:06:21:226;13:06:21:151;-0.19153613;9.902418;0.9576807
12:06:21:234;13:06:21:151;-0.19153613;9.902418;0.9576807
12:06:21:242;13:06:21:151;-0.19153613;9.902418;0.9576807
12:06:21:250;13:06:21:151;-0.19153613;9.902418;0.9576807
12:06:21:257;13:06:21:151;-0.19153613;9.902418;0.9576807
12:06:21:265;13:06:21:151;-0.19153613;9.902418;0.9576807
12:06:21:273;13:06:21:151;-0.19153613;9.902418;0.9576807
12:06:21:281;13:06:21:274;-0.45968673;10.208876;0.38307226
12:06:21:289;13:06:21:274;-0.45968673;10.208876;0.38307226
12:06:21:296;13:06:21:274;-0.45968673;10.208876;0.38307226
12:06:21:304;13:06:21:274;-0.45968673;10.208876;0.38307226
12:06:21:312;13:06:21:274;-0.45968673;10.208876;0.38307226
12:06:21:320;13:06:21:274;-0.45968673;10.208876;0.38307226
12:06:21:328;13:06:21:274;-0.45968673;10.208876;0.38307226
12:06:21:335;13:06:21:274;-0.45968673;10.208876;0.38307226
12:06:21:343;13:06:21:274;-0.45968673;10.208876;0.38307226
12:06:21:351;13:06:21:274;-0.45968673;10.208876;0.38307226
12:06:21:359;13:06:21:274;-0.45968673;10.208876;0.38307226
12:06:21:367;13:06:21:274;-0.45968673;10.208876;0.38307226
12:06:21:375;13:06:21:274;-0.45968673;10.208876;0.38307226
12:06:21:382;13:06:21:274;-0.45968673;10.208876;0.38307226
12:06:21:390;13:06:21:274;-0.45968673;10.208876;0.38307226
12:06:21:398;13:06:21:274;-0.45968673;10.208876;0.38307226
12:06:21:406;13:06:21:399;-0.4213795;9.940725;0.9959879
12:06:21:414;13:06:21:399;-0.4213795;9.940725;0.9959879
12:06:21:421;13:06:21:399;-0.4213795;9.940725;0.9959879
12:06:21:429;13:06:21:399;-0.4213795;9.940725;0.9959879
12:06:21:437;13:06:21:399;-0.4213795;9.940725;0.9959879
12:06:21:445;13:06:21:399;-0.4213795;9.940725;0.9959879
12:06:21:453;13:06:21:399;-0.4213795;9.940725;0.9959879
12:06:21:460;13:06:21:399;-0.4213795;9.940725;0.9959879
12:06:21:468;13:06:21:399;-0.4213795;9.940725;0.9959879
12:06:21:476;13:06:21:399;-0.4213795;9.940725;0.9959879
12:06:21:484;13:06:21:399;-0.4213795;9.940725;0.9959879
12:06:21:492;13:06:21:399;-0.4213795;9.940725;0.9959879
12:06:21:500;13:06:21:399;-0.4213795;9.940725;0.9959879
12:06:21:507;13:06:21:504;-0.40222588;10.553641;0.22984336
12:06:21:515;13:06:21:504;-0.40222588;10.553641;0.22984336
12:06:21:523;13:06:21:504;-0.40222588;10.553641;0.22984336
12:06:21:531;13:06:21:504;-0.40222588;10.553641;0.22984336
12:06:21:539;13:06:21:504;-0.40222588;10.553641;0.22984336
12:06:21:546;13:06:21:504;-0.40222588;10.553641;0.22984336
12:06:21:554;13:06:21:504;-0.40222588;10.553641;0.22984336
12:06:21:562;13:06:21:504;-0.40222588;10.553641;0.22984336
12:06:21:570;13:06:21:504;-0.40222588;10.553641;0.22984336
12:06:21:578;13:06:21:504;-0.40222588;10.553641;0.22984336
12:06:21:585;13:06:21:504;-0.40222588;10.553641;0.22984336
12:06:21:593;13:06:21:504;-0.40222588;10.553641;0.22984336
12:06:21:601;13:06:21:504;-0.40222588;10.553641;0.22984336
12:06:21:609;13:06:21:504;-0.40222588;10.553641;0.22984336
12:06:21:617;13:06:21:617;-0.4213795;9.097966;1.5705963
12:06:21:625;13:06:21:617;-0.4213795;9.097966;1.5705963
12:06:21:632;13:06:21:617;-0.4213795;9.097966;1.5705963
12:06:21:640;13:06:21:617;-0.4213795;9.097966;1.5705963
12:06:21:648;13:06:21:617;-0.4213795;9.097966;1.5705963
12:06:21:656;13:06:21:617;-0.4213795;9.097966;1.5705963
12:06:21:664;13:06:21:617;-0.4213795;9.097966;1.5705963
12:06:21:671;13:06:21:617;-0.4213795;9.097966;1.5705963
12:06:21:679;13:06:21:617;-0.4213795;9.097966;1.5705963
12:06:21:687;13:06:21:617;-0.4213795;9.097966;1.5705963
12:06:21:695;13:06:21:617;-0.4213795;9.097966;1.5705963
12:06:21:703;13:06:21:617;-0.4213795;9.097966;1.5705963
12:06:21:710;13:06:21:617;-0.4213795;9.097966;1.5705963
12:06:21:718;13:06:21:617;-0.4213795;9.097966;1.5705963
12:06:21:726;13:06:21:617;-0.4213795;9.097966;1.5705963
12:06:21:734;13:06:21:727;-0.40222588;9.615114;1.1683705
12:06:21:742;13:06:21:727;-0.40222588;9.615114;1.1683705
12:06:21:750;13:06:21:727;-0.40222588;9.615114;1.1683705
12:06:21:757;13:06:21:727;-0.40222588;9.615114;1.1683705
12:06:21:765;13:06:21:727;-0.40222588;9.615114;1.1683705
12:06:21:773;13:06:21:727;-0.40222588;9.615114;1.1683705
12:06:21:781;13:06:21:727;-0.40222588;9.615114;1.1683705
12:06:21:789;13:06:21:727;-0.40222588;9.615114;1.1683705
