Time_Accel;AccelX;AccelY;AccelZ
09:35:33:956;-0.17238252;9.9790325;0.63206923
09:35:33:956;-0.17238252;9.9790325;0.63206923
09:35:33:956;-0.17238252;9.9790325;0.63206923
09:35:33:956;-0.17238252;9.9790325;0.63206923
09:35:33:956;-0.17238252;9.9790325;0.63206923
09:35:33:956;-0.17238252;9.9790325;0.63206923
09:35:33:956;-0.17238252;9.9790325;0.63206923
09:35:33:956;-0.17238252;9.9790325;0.63206923
09:35:33:956;-0.17238252;9.9790325;0.63206923
09:35:34:077;-0.11492168;10.01734;0.6512229
09:35:34:077;-0.11492168;10.01734;0.6512229
09:35:34:077;-0.11492168;10.01734;0.6512229
09:35:34:077;-0.11492168;10.01734;0.6512229
09:35:34:077;-0.11492168;10.01734;0.6512229
09:35:34:077;-0.11492168;10.01734;0.6512229
09:35:34:077;-0.11492168;10.01734;0.6512229
09:35:34:077;-0.11492168;10.01734;0.6512229
09:35:34:077;-0.11492168;10.01734;0.6512229
09:35:34:077;-0.11492168;10.01734;0.6512229
09:35:34:077;-0.11492168;10.01734;0.6512229
09:35:34:077;-0.11492168;10.01734;0.6512229
09:35:34:077;-0.11492168;10.01734;0.6512229
09:35:34:077;-0.11492168;10.01734;0.6512229
09:35:34:182;-0.1340753;9.959879;0.59376204
09:35:34:182;-0.1340753;9.959879;0.59376204
09:35:34:182;-0.1340753;9.959879;0.59376204
09:35:34:182;-0.1340753;9.959879;0.59376204
09:35:34:182;-0.1340753;9.959879;0.59376204
09:35:34:182;-0.1340753;9.959879;0.59376204
09:35:34:182;-0.1340753;9.959879;0.59376204
09:35:34:182;-0.1340753;9.959879;0.59376204
09:35:34:182;-0.1340753;9.959879;0.59376204
09:35:34:182;-0.1340753;9.959879;0.59376204
09:35:34:182;-0.1340753;9.959879;0.59376204
09:35:34:182;-0.1340753;9.959879;0.59376204
09:35:34:182;-0.1340753;9.959879;0.59376204
09:35:34:182;-0.1340753;9.959879;0.59376204
09:35:34:182;-0.1340753;9.959879;0.59376204
09:35:34:299;-0.24899697;9.9790325;0.6895301
09:35:34:299;-0.24899697;9.9790325;0.6895301
09:35:34:299;-0.24899697;9.9790325;0.6895301
09:35:34:299;-0.24899697;9.9790325;0.6895301
09:35:34:299;-0.24899697;9.9790325;0.6895301
09:35:34:299;-0.24899697;9.9790325;0.6895301
09:35:34:299;-0.24899697;9.9790325;0.6895301
09:35:34:299;-0.24899697;9.9790325;0.6895301
09:35:34:299;-0.24899697;9.9790325;0.6895301
09:35:34:299;-0.24899697;9.9790325;0.6895301
09:35:34:299;-0.24899697;9.9790325;0.6895301
09:35:34:299;-0.24899697;9.9790325;0.6895301
09:35:34:299;-0.24899697;9.9790325;0.6895301
09:35:34:299;-0.24899697;9.9790325;0.6895301
09:35:34:299;-0.24899697;9.9790325;0.6895301
09:35:34:417;-0.11492168;9.921572;0.6703765
09:35:34:417;-0.11492168;9.921572;0.6703765
09:35:34:417;-0.11492168;9.921572;0.6703765
09:35:34:417;-0.11492168;9.921572;0.6703765
09:35:34:417;-0.11492168;9.921572;0.6703765
09:35:34:417;-0.11492168;9.921572;0.6703765
09:35:34:417;-0.11492168;9.921572;0.6703765
09:35:34:417;-0.11492168;9.921572;0.6703765
09:35:34:417;-0.11492168;9.921572;0.6703765
09:35:34:417;-0.11492168;9.921572;0.6703765
09:35:34:417;-0.11492168;9.921572;0.6703765
09:35:34:417;-0.11492168;9.921572;0.6703765
09:35:34:417;-0.11492168;9.921572;0.6703765
09:35:34:417;-0.11492168;9.921572;0.6703765
09:35:34:417;-0.11492168;9.921572;0.6703765
09:35:34:535;-0.095768064;9.883265;0.61291564
09:35:34:535;-0.095768064;9.883265;0.61291564
09:35:34:535;-0.095768064;9.883265;0.61291564
09:35:34:535;-0.095768064;9.883265;0.61291564
09:35:34:535;-0.095768064;9.883265;0.61291564
09:35:34:535;-0.095768064;9.883265;0.61291564
09:35:34:535;-0.095768064;9.883265;0.61291564
09:35:34:535;-0.095768064;9.883265;0.61291564
09:35:34:535;-0.095768064;9.883265;0.61291564
09:35:34:535;-0.095768064;9.883265;0.61291564
09:35:34:535;-0.095768064;9.883265;0.61291564
09:35:34:535;-0.095768064;9.883265;0.61291564
09:35:34:535;-0.095768064;9.883265;0.61291564
09:35:34:535;-0.095768064;9.883265;0.61291564
09:35:34:535;-0.095768064;9.883265;0.61291564
09:35:34:535;-0.095768064;9.883265;0.61291564
09:35:34:657;-0.1340753;9.940725;0.7086837
09:35:34:657;-0.1340753;9.940725;0.7086837
09:35:34:657;-0.1340753;9.940725;0.7086837
09:35:34:657;-0.1340753;9.940725;0.7086837
09:35:34:657;-0.1340753;9.940725;0.7086837
09:35:34:657;-0.1340753;9.940725;0.7086837
09:35:34:657;-0.1340753;9.940725;0.7086837
09:35:34:657;-0.1340753;9.940725;0.7086837
09:35:34:657;-0.1340753;9.940725;0.7086837
09:35:34:657;-0.1340753;9.940725;0.7086837
09:35:34:657;-0.1340753;9.940725;0.7086837
09:35:34:657;-0.1340753;9.940725;0.7086837
09:35:34:657;-0.1340753;9.940725;0.7086837
09:35:34:758;-0.05746084;9.959879;0.61291564
09:35:34:758;-0.05746084;9.959879;0.61291564
09:35:34:758;-0.05746084;9.959879;0.61291564
09:35:34:758;-0.05746084;9.959879;0.61291564
09:35:34:758;-0.05746084;9.959879;0.61291564
09:35:34:758;-0.05746084;9.959879;0.61291564
09:35:34:758;-0.05746084;9.959879;0.61291564
09:35:34:758;-0.05746084;9.959879;0.61291564
09:35:34:758;-0.05746084;9.959879;0.61291564
09:35:34:758;-0.05746084;9.959879;0.61291564
09:35:34:758;-0.05746084;9.959879;0.61291564
09:35:34:758;-0.05746084;9.959879;0.61291564
09:35:34:758;-0.05746084;9.959879;0.61291564
09:35:34:865;-0.038307227;9.940725;0.6895301
09:35:34:865;-0.038307227;9.940725;0.6895301
09:35:34:865;-0.038307227;9.940725;0.6895301
09:35:34:865;-0.038307227;9.940725;0.6895301
09:35:34:865;-0.038307227;9.940725;0.6895301
09:35:34:865;-0.038307227;9.940725;0.6895301
09:35:34:865;-0.038307227;9.940725;0.6895301
09:35:34:865;-0.038307227;9.940725;0.6895301
09:35:34:865;-0.038307227;9.940725;0.6895301
09:35:34:865;-0.038307227;9.940725;0.6895301
09:35:34:865;-0.038307227;9.940725;0.6895301
09:35:34:865;-0.038307227;9.940725;0.6895301
09:35:34:865;-0.038307227;9.940725;0.6895301
09:35:34:865;-0.038307227;9.940725;0.6895301
09:35:34:865;-0.038307227;9.940725;0.6895301
09:35:34:979;-0.17238252;10.036493;0.59376204
09:35:34:979;-0.17238252;10.036493;0.59376204
09:35:34:979;-0.17238252;10.036493;0.59376204
09:35:34:979;-0.17238252;10.036493;0.59376204
09:35:34:979;-0.17238252;10.036493;0.59376204
09:35:34:979;-0.17238252;10.036493;0.59376204
09:35:34:979;-0.17238252;10.036493;0.59376204
09:35:34:979;-0.17238252;10.036493;0.59376204
09:35:34:979;-0.17238252;10.036493;0.59376204
09:35:34:979;-0.17238252;10.036493;0.59376204
09:35:34:979;-0.17238252;10.036493;0.59376204
09:35:34:979;-0.17238252;10.036493;0.59376204
09:35:34:979;-0.17238252;10.036493;0.59376204
09:35:35:080;0.05746084;9.902418;0.5554548
09:35:35:080;0.05746084;9.902418;0.5554548
09:35:35:080;0.05746084;9.902418;0.5554548
09:35:35:080;0.05746084;9.902418;0.5554548
09:35:35:080;0.05746084;9.902418;0.5554548
09:35:35:080;0.05746084;9.902418;0.5554548
09:35:35:080;0.05746084;9.902418;0.5554548
09:35:35:080;0.05746084;9.902418;0.5554548
09:35:35:080;0.05746084;9.902418;0.5554548
09:35:35:080;0.05746084;9.902418;0.5554548
09:35:35:080;0.05746084;9.902418;0.5554548
09:35:35:080;0.05746084;9.902418;0.5554548
09:35:35:080;0.05746084;9.902418;0.5554548
09:35:35:186;-0.24899697;10.113108;0.5746084
09:35:35:186;-0.24899697;10.113108;0.5746084
09:35:35:186;-0.24899697;10.113108;0.5746084
09:35:35:186;-0.24899697;10.113108;0.5746084
09:35:35:186;-0.24899697;10.113108;0.5746084
09:35:35:186;-0.24899697;10.113108;0.5746084
09:35:35:186;-0.24899697;10.113108;0.5746084
09:35:35:186;-0.24899697;10.113108;0.5746084
09:35:35:186;-0.24899697;10.113108;0.5746084
09:35:35:186;-0.24899697;10.113108;0.5746084
09:35:35:186;-0.24899697;10.113108;0.5746084
09:35:35:186;-0.24899697;10.113108;0.5746084
09:35:35:186;-0.24899697;10.113108;0.5746084
09:35:35:186;-0.24899697;10.113108;0.5746084
09:35:35:186;-0.24899697;10.113108;0.5746084
09:35:35:186;-0.24899697;10.113108;0.5746084
09:35:35:305;0.019153614;9.844957;0.7278373
09:35:35:305;0.019153614;9.844957;0.7278373
09:35:35:305;0.019153614;9.844957;0.7278373
09:35:35:305;0.019153614;9.844957;0.7278373
09:35:35:305;0.019153614;9.844957;0.7278373
09:35:35:305;0.019153614;9.844957;0.7278373
09:35:35:305;0.019153614;9.844957;0.7278373
09:35:35:305;0.019153614;9.844957;0.7278373
09:35:35:305;0.019153614;9.844957;0.7278373
09:35:35:305;0.019153614;9.844957;0.7278373
09:35:35:305;0.019153614;9.844957;0.7278373
09:35:35:305;0.019153614;9.844957;0.7278373
09:35:35:305;0.019153614;9.844957;0.7278373
09:35:35:305;0.019153614;9.844957;0.7278373
09:35:35:305;0.019153614;9.844957;0.7278373
09:35:35:425;-0.019153614;9.9790325;0.6703765
09:35:35:425;-0.019153614;9.9790325;0.6703765
09:35:35:425;-0.019153614;9.9790325;0.6703765
09:35:35:425;-0.019153614;9.9790325;0.6703765
09:35:35:425;-0.019153614;9.9790325;0.6703765
09:35:35:425;-0.019153614;9.9790325;0.6703765
09:35:35:425;-0.019153614;9.9790325;0.6703765
09:35:35:425;-0.019153614;9.9790325;0.6703765
09:35:35:425;-0.019153614;9.9790325;0.6703765
09:35:35:425;-0.019153614;9.9790325;0.6703765
09:35:35:425;-0.019153614;9.9790325;0.6703765
09:35:35:425;-0.019153614;9.9790325;0.6703765
09:35:35:425;-0.019153614;9.9790325;0.6703765
09:35:35:425;-0.019153614;9.9790325;0.6703765
09:35:35:425;-0.019153614;9.9790325;0.6703765
09:35:35:542;-0.2681506;10.093954;0.5746084
09:35:35:542;-0.2681506;10.093954;0.5746084
09:35:35:542;-0.2681506;10.093954;0.5746084
09:35:35:542;-0.2681506;10.093954;0.5746084
09:35:35:542;-0.2681506;10.093954;0.5746084
09:35:35:542;-0.2681506;10.093954;0.5746084
09:35:35:542;-0.2681506;10.093954;0.5746084
09:35:35:542;-0.2681506;10.093954;0.5746084
09:35:35:542;-0.2681506;10.093954;0.5746084
09:35:35:542;-0.2681506;10.093954;0.5746084
09:35:35:542;-0.2681506;10.093954;0.5746084
09:35:35:542;-0.2681506;10.093954;0.5746084
09:35:35:542;-0.2681506;10.093954;0.5746084
09:35:35:542;-0.2681506;10.093954;0.5746084
09:35:35:542;-0.2681506;10.093954;0.5746084
09:35:35:661;-0.30645782;9.864111;0.7278373
09:35:35:661;-0.30645782;9.864111;0.7278373
09:35:35:661;-0.30645782;9.864111;0.7278373
09:35:35:661;-0.30645782;9.864111;0.7278373
09:35:35:661;-0.30645782;9.864111;0.7278373
09:35:35:661;-0.30645782;9.864111;0.7278373
09:35:35:661;-0.30645782;9.864111;0.7278373
09:35:35:661;-0.30645782;9.864111;0.7278373
09:35:35:661;-0.30645782;9.864111;0.7278373
09:35:35:661;-0.30645782;9.864111;0.7278373
09:35:35:661;-0.30645782;9.864111;0.7278373
09:35:35:661;-0.30645782;9.864111;0.7278373
09:35:35:661;-0.30645782;9.864111;0.7278373
09:35:35:765;-0.05746084;9.940725;0.63206923
09:35:35:765;-0.05746084;9.940725;0.63206923
09:35:35:765;-0.05746084;9.940725;0.63206923
09:35:35:765;-0.05746084;9.940725;0.63206923
09:35:35:765;-0.05746084;9.940725;0.63206923
09:35:35:765;-0.05746084;9.940725;0.63206923
09:35:35:765;-0.05746084;9.940725;0.63206923
09:35:35:765;-0.05746084;9.940725;0.63206923
09:35:35:765;-0.05746084;9.940725;0.63206923
09:35:35:765;-0.05746084;9.940725;0.63206923
09:35:35:765;-0.05746084;9.940725;0.63206923
09:35:35:765;-0.05746084;9.940725;0.63206923
09:35:35:765;-0.05746084;9.940725;0.63206923
09:35:35:765;-0.05746084;9.940725;0.63206923
09:35:35:765;-0.05746084;9.940725;0.63206923
09:35:35:765;-0.05746084;9.940725;0.63206923
09:35:35:884;-0.30645782;9.959879;0.7278373
09:35:35:884;-0.30645782;9.959879;0.7278373
09:35:35:884;-0.30645782;9.959879;0.7278373
09:35:35:884;-0.30645782;9.959879;0.7278373
09:35:35:884;-0.30645782;9.959879;0.7278373
09:35:35:884;-0.30645782;9.959879;0.7278373
09:35:35:884;-0.30645782;9.959879;0.7278373
09:35:35:884;-0.30645782;9.959879;0.7278373
09:35:35:884;-0.30645782;9.959879;0.7278373
09:35:35:884;-0.30645782;9.959879;0.7278373
09:35:35:884;-0.30645782;9.959879;0.7278373
09:35:35:884;-0.30645782;9.959879;0.7278373
09:35:35:884;-0.30645782;9.959879;0.7278373
09:35:35:884;-0.30645782;9.959879;0.7278373
09:35:35:999;-0.2873042;9.864111;0.59376204
09:35:35:999;-0.2873042;9.864111;0.59376204
09:35:35:999;-0.2873042;9.864111;0.59376204
09:35:35:999;-0.2873042;9.864111;0.59376204
09:35:35:999;-0.2873042;9.864111;0.59376204
09:35:35:999;-0.2873042;9.864111;0.59376204
09:35:35:999;-0.2873042;9.864111;0.59376204
09:35:35:999;-0.2873042;9.864111;0.59376204
09:35:35:999;-0.2873042;9.864111;0.59376204
09:35:35:999;-0.2873042;9.864111;0.59376204
09:35:35:999;-0.2873042;9.864111;0.59376204
09:35:35:999;-0.2873042;9.864111;0.59376204
09:35:35:999;-0.2873042;9.864111;0.59376204
09:35:35:999;-0.2873042;9.864111;0.59376204
09:35:35:999;-0.2873042;9.864111;0.59376204
09:35:36:117;-0.22984336;10.055647;0.7086837
09:35:36:117;-0.22984336;10.055647;0.7086837
09:35:36:117;-0.22984336;10.055647;0.7086837
09:35:36:117;-0.22984336;10.055647;0.7086837
09:35:36:117;-0.22984336;10.055647;0.7086837
09:35:36:117;-0.22984336;10.055647;0.7086837
09:35:36:117;-0.22984336;10.055647;0.7086837
09:35:36:117;-0.22984336;10.055647;0.7086837
09:35:36:117;-0.22984336;10.055647;0.7086837
09:35:36:117;-0.22984336;10.055647;0.7086837
09:35:36:117;-0.22984336;10.055647;0.7086837
09:35:36:117;-0.22984336;10.055647;0.7086837
09:35:36:117;-0.22984336;10.055647;0.7086837
09:35:36:117;-0.22984336;10.055647;0.7086837
09:35:36:220;-0.05746084;9.902418;0.6895301
09:35:36:220;-0.05746084;9.902418;0.6895301
09:35:36:220;-0.05746084;9.902418;0.6895301
09:35:36:220;-0.05746084;9.902418;0.6895301
09:35:36:220;-0.05746084;9.902418;0.6895301
09:35:36:220;-0.05746084;9.902418;0.6895301
09:35:36:220;-0.05746084;9.902418;0.6895301
09:35:36:220;-0.05746084;9.902418;0.6895301
09:35:36:220;-0.05746084;9.902418;0.6895301
09:35:36:220;-0.05746084;9.902418;0.6895301
09:35:36:220;-0.05746084;9.902418;0.6895301
09:35:36:220;-0.05746084;9.902418;0.6895301
09:35:36:220;-0.05746084;9.902418;0.6895301
09:35:36:220;-0.05746084;9.902418;0.6895301
09:35:36:220;-0.05746084;9.902418;0.6895301
09:35:36:339;-0.22984336;9.787497;0.842759
09:35:36:339;-0.22984336;9.787497;0.842759
09:35:36:339;-0.22984336;9.787497;0.842759
09:35:36:339;-0.22984336;9.787497;0.842759
09:35:36:339;-0.22984336;9.787497;0.842759
09:35:36:339;-0.22984336;9.787497;0.842759
09:35:36:339;-0.22984336;9.787497;0.842759
09:35:36:339;-0.22984336;9.787497;0.842759
09:35:36:339;-0.22984336;9.787497;0.842759
09:35:36:339;-0.22984336;9.787497;0.842759
09:35:36:339;-0.22984336;9.787497;0.842759
09:35:36:339;-0.22984336;9.787497;0.842759
09:35:36:339;-0.22984336;9.787497;0.842759
09:35:36:339;-0.22984336;9.787497;0.842759
09:35:36:339;-0.22984336;9.787497;0.842759
09:35:36:458;-0.19153613;9.825804;0.59376204
09:35:36:458;-0.19153613;9.825804;0.59376204
09:35:36:458;-0.19153613;9.825804;0.59376204
09:35:36:458;-0.19153613;9.825804;0.59376204
09:35:36:458;-0.19153613;9.825804;0.59376204
09:35:36:458;-0.19153613;9.825804;0.59376204
09:35:36:458;-0.19153613;9.825804;0.59376204
09:35:36:458;-0.19153613;9.825804;0.59376204
09:35:36:458;-0.19153613;9.825804;0.59376204
09:35:36:458;-0.19153613;9.825804;0.59376204
09:35:36:458;-0.19153613;9.825804;0.59376204
09:35:36:458;-0.19153613;9.825804;0.59376204
09:35:36:458;-0.19153613;9.825804;0.59376204
09:35:36:458;-0.19153613;9.825804;0.59376204
09:35:36:458;-0.19153613;9.825804;0.59376204
09:35:36:574;-0.076614454;10.01734;0.5554548
09:35:36:574;-0.076614454;10.01734;0.5554548
09:35:36:574;-0.076614454;10.01734;0.5554548
09:35:36:574;-0.076614454;10.01734;0.5554548
09:35:36:574;-0.076614454;10.01734;0.5554548
09:35:36:574;-0.076614454;10.01734;0.5554548
09:35:36:574;-0.076614454;10.01734;0.5554548
09:35:36:574;-0.076614454;10.01734;0.5554548
09:35:36:574;-0.076614454;10.01734;0.5554548
09:35:36:574;-0.076614454;10.01734;0.5554548
09:35:36:574;-0.076614454;10.01734;0.5554548
09:35:36:574;-0.076614454;10.01734;0.5554548
09:35:36:574;-0.076614454;10.01734;0.5554548
09:35:36:574;-0.076614454;10.01734;0.5554548
09:35:36:574;-0.076614454;10.01734;0.5554548
09:35:36:693;0.038307227;9.998186;0.7086837
09:35:36:693;0.038307227;9.998186;0.7086837
09:35:36:693;0.038307227;9.998186;0.7086837
09:35:36:693;0.038307227;9.998186;0.7086837
09:35:36:693;0.038307227;9.998186;0.7086837
09:35:36:693;0.038307227;9.998186;0.7086837
09:35:36:693;0.038307227;9.998186;0.7086837
09:35:36:693;0.038307227;9.998186;0.7086837
09:35:36:693;0.038307227;9.998186;0.7086837
09:35:36:693;0.038307227;9.998186;0.7086837
09:35:36:693;0.038307227;9.998186;0.7086837
09:35:36:693;0.038307227;9.998186;0.7086837
09:35:36:693;0.038307227;9.998186;0.7086837
09:35:36:693;0.038307227;9.998186;0.7086837
09:35:36:693;0.038307227;9.998186;0.7086837
09:35:36:812;-0.11492168;10.0748005;0.7469909
09:35:36:812;-0.11492168;10.0748005;0.7469909
09:35:36:812;-0.11492168;10.0748005;0.7469909
09:35:36:812;-0.11492168;10.0748005;0.7469909
09:35:36:812;-0.11492168;10.0748005;0.7469909
09:35:36:812;-0.11492168;10.0748005;0.7469909
09:35:36:812;-0.11492168;10.0748005;0.7469909
09:35:36:812;-0.11492168;10.0748005;0.7469909
09:35:36:812;-0.11492168;10.0748005;0.7469909
09:35:36:812;-0.11492168;10.0748005;0.7469909
09:35:36:812;-0.11492168;10.0748005;0.7469909
09:35:36:812;-0.11492168;10.0748005;0.7469909
09:35:36:812;-0.11492168;10.0748005;0.7469909
09:35:36:812;-0.11492168;10.0748005;0.7469909
09:35:36:812;-0.11492168;10.0748005;0.7469909
09:35:36:929;-0.076614454;10.055647;0.51714754
09:35:36:929;-0.076614454;10.055647;0.51714754
09:35:36:929;-0.076614454;10.055647;0.51714754
09:35:36:929;-0.076614454;10.055647;0.51714754
09:35:36:929;-0.076614454;10.055647;0.51714754
09:35:36:929;-0.076614454;10.055647;0.51714754
09:35:36:929;-0.076614454;10.055647;0.51714754
09:35:36:929;-0.076614454;10.055647;0.51714754
09:35:36:929;-0.076614454;10.055647;0.51714754
09:35:36:929;-0.076614454;10.055647;0.51714754
09:35:36:929;-0.076614454;10.055647;0.51714754
09:35:36:929;-0.076614454;10.055647;0.51714754
09:35:36:929;-0.076614454;10.055647;0.51714754
09:35:36:929;-0.076614454;10.055647;0.51714754
09:35:36:929;-0.076614454;10.055647;0.51714754
09:35:37:040;-0.038307227;9.883265;0.7278373
09:35:37:040;-0.038307227;9.883265;0.7278373
09:35:37:040;-0.038307227;9.883265;0.7278373
09:35:37:040;-0.038307227;9.883265;0.7278373
09:35:37:040;-0.038307227;9.883265;0.7278373
09:35:37:040;-0.038307227;9.883265;0.7278373
09:35:37:040;-0.038307227;9.883265;0.7278373
09:35:37:040;-0.038307227;9.883265;0.7278373
09:35:37:040;-0.038307227;9.883265;0.7278373
09:35:37:040;-0.038307227;9.883265;0.7278373
09:35:37:040;-0.038307227;9.883265;0.7278373
09:35:37:040;-0.038307227;9.883265;0.7278373
09:35:37:040;-0.038307227;9.883265;0.7278373
09:35:37:040;-0.038307227;9.883265;0.7278373
09:35:37:152;-0.095768064;9.864111;0.63206923
09:35:37:152;-0.095768064;9.864111;0.63206923
09:35:37:152;-0.095768064;9.864111;0.63206923
09:35:37:152;-0.095768064;9.864111;0.63206923
09:35:37:152;-0.095768064;9.864111;0.63206923
09:35:37:152;-0.095768064;9.864111;0.63206923
09:35:37:152;-0.095768064;9.864111;0.63206923
09:35:37:152;-0.095768064;9.864111;0.63206923
09:35:37:152;-0.095768064;9.864111;0.63206923
09:35:37:152;-0.095768064;9.864111;0.63206923
09:35:37:152;-0.095768064;9.864111;0.63206923
09:35:37:152;-0.095768064;9.864111;0.63206923
09:35:37:152;-0.095768064;9.864111;0.63206923
09:35:37:257;-0.19153613;10.036493;0.63206923
09:35:37:257;-0.19153613;10.036493;0.63206923
09:35:37:257;-0.19153613;10.036493;0.63206923
09:35:37:257;-0.19153613;10.036493;0.63206923
09:35:37:257;-0.19153613;10.036493;0.63206923
09:35:37:257;-0.19153613;10.036493;0.63206923
09:35:37:257;-0.19153613;10.036493;0.63206923
09:35:37:257;-0.19153613;10.036493;0.63206923
09:35:37:257;-0.19153613;10.036493;0.63206923
09:35:37:257;-0.19153613;10.036493;0.63206923
09:35:37:257;-0.19153613;10.036493;0.63206923
09:35:37:257;-0.19153613;10.036493;0.63206923
09:35:37:257;-0.19153613;10.036493;0.63206923
09:35:37:358;-0.076614454;9.9790325;0.63206923
09:35:37:358;-0.076614454;9.9790325;0.63206923
09:35:37:358;-0.076614454;9.9790325;0.63206923
09:35:37:358;-0.076614454;9.9790325;0.63206923
09:35:37:358;-0.076614454;9.9790325;0.63206923
09:35:37:358;-0.076614454;9.9790325;0.63206923
09:35:37:358;-0.076614454;9.9790325;0.63206923
09:35:37:358;-0.076614454;9.9790325;0.63206923
09:35:37:358;-0.076614454;9.9790325;0.63206923
09:35:37:358;-0.076614454;9.9790325;0.63206923
09:35:37:358;-0.076614454;9.9790325;0.63206923
09:35:37:358;-0.076614454;9.9790325;0.63206923
09:35:37:358;-0.076614454;9.9790325;0.63206923
09:35:37:358;-0.076614454;9.9790325;0.63206923
09:35:37:358;-0.076614454;9.9790325;0.63206923
09:35:37:358;-0.076614454;9.9790325;0.63206923
09:35:37:358;-0.076614454;9.9790325;0.63206923
09:35:37:358;-0.076614454;9.9790325;0.63206923
09:35:37:358;-0.076614454;9.9790325;0.63206923
09:35:37:358;-0.076614454;9.9790325;0.63206923
09:35:37:508;-0.11492168;9.80665;0.5363012
09:35:37:508;-0.11492168;9.80665;0.5363012
09:35:37:508;-0.11492168;9.80665;0.5363012
09:35:37:508;-0.11492168;9.80665;0.5363012
09:35:37:508;-0.11492168;9.80665;0.5363012
09:35:37:508;-0.11492168;9.80665;0.5363012
09:35:37:508;-0.11492168;9.80665;0.5363012
09:35:37:508;-0.11492168;9.80665;0.5363012
09:35:37:508;-0.11492168;9.80665;0.5363012
09:35:37:508;-0.11492168;9.80665;0.5363012
09:35:37:508;-0.11492168;9.80665;0.5363012
09:35:37:508;-0.11492168;9.80665;0.5363012
09:35:37:508;-0.11492168;9.80665;0.5363012
09:35:37:616;-0.076614454;10.036493;0.7086837
09:35:37:616;-0.076614454;10.036493;0.7086837
09:35:37:616;-0.076614454;10.036493;0.7086837
09:35:37:616;-0.076614454;10.036493;0.7086837
09:35:37:616;-0.076614454;10.036493;0.7086837
09:35:37:616;-0.076614454;10.036493;0.7086837
09:35:37:616;-0.076614454;10.036493;0.7086837
09:35:37:616;-0.076614454;10.036493;0.7086837
09:35:37:616;-0.076614454;10.036493;0.7086837
09:35:37:616;-0.076614454;10.036493;0.7086837
09:35:37:616;-0.076614454;10.036493;0.7086837
09:35:37:616;-0.076614454;10.036493;0.7086837
09:35:37:616;-0.076614454;10.036493;0.7086837
09:35:37:616;-0.076614454;10.036493;0.7086837
09:35:37:616;-0.076614454;10.036493;0.7086837
09:35:37:734;-0.05746084;9.998186;0.59376204
09:35:37:734;-0.05746084;9.998186;0.59376204
09:35:37:734;-0.05746084;9.998186;0.59376204
09:35:37:734;-0.05746084;9.998186;0.59376204
09:35:37:734;-0.05746084;9.998186;0.59376204
09:35:37:734;-0.05746084;9.998186;0.59376204
09:35:37:734;-0.05746084;9.998186;0.59376204
09:35:37:734;-0.05746084;9.998186;0.59376204
09:35:37:734;-0.05746084;9.998186;0.59376204
09:35:37:734;-0.05746084;9.998186;0.59376204
09:35:37:734;-0.05746084;9.998186;0.59376204
09:35:37:734;-0.05746084;9.998186;0.59376204
09:35:37:734;-0.05746084;9.998186;0.59376204
09:35:37:734;-0.05746084;9.998186;0.59376204
09:35:37:840;-0.17238252;9.921572;0.7278373
09:35:37:840;-0.17238252;9.921572;0.7278373
09:35:37:840;-0.17238252;9.921572;0.7278373
09:35:37:840;-0.17238252;9.921572;0.7278373
09:35:37:840;-0.17238252;9.921572;0.7278373
09:35:37:840;-0.17238252;9.921572;0.7278373
09:35:37:840;-0.17238252;9.921572;0.7278373
09:35:37:840;-0.17238252;9.921572;0.7278373
09:35:37:840;-0.17238252;9.921572;0.7278373
09:35:37:840;-0.17238252;9.921572;0.7278373
09:35:37:840;-0.17238252;9.921572;0.7278373
09:35:37:840;-0.17238252;9.921572;0.7278373
09:35:37:840;-0.17238252;9.921572;0.7278373
09:35:37:840;-0.17238252;9.921572;0.7278373
09:35:37:952;-0.15322891;10.055647;0.6512229
09:35:37:952;-0.15322891;10.055647;0.6512229
09:35:37:952;-0.15322891;10.055647;0.6512229
09:35:37:952;-0.15322891;10.055647;0.6512229
09:35:37:952;-0.15322891;10.055647;0.6512229
09:35:37:952;-0.15322891;10.055647;0.6512229
09:35:37:952;-0.15322891;10.055647;0.6512229
09:35:37:952;-0.15322891;10.055647;0.6512229
09:35:37:952;-0.15322891;10.055647;0.6512229
09:35:37:952;-0.15322891;10.055647;0.6512229
09:35:37:952;-0.15322891;10.055647;0.6512229
09:35:37:952;-0.15322891;10.055647;0.6512229
09:35:37:952;-0.15322891;10.055647;0.6512229
09:35:37:952;-0.15322891;10.055647;0.6512229
09:35:37:952;-0.15322891;10.055647;0.6512229
09:35:37:952;-0.15322891;10.055647;0.6512229
09:35:37:952;-0.15322891;10.055647;0.6512229
09:35:37:952;-0.15322891;10.055647;0.6512229
09:35:38:093;-0.11492168;9.902418;0.6895301
09:35:38:093;-0.11492168;9.902418;0.6895301
09:35:38:093;-0.11492168;9.902418;0.6895301
09:35:38:093;-0.11492168;9.902418;0.6895301
09:35:38:093;-0.11492168;9.902418;0.6895301
09:35:38:093;-0.11492168;9.902418;0.6895301
09:35:38:093;-0.11492168;9.902418;0.6895301
09:35:38:093;-0.11492168;9.902418;0.6895301
09:35:38:093;-0.11492168;9.902418;0.6895301
09:35:38:093;-0.11492168;9.902418;0.6895301
09:35:38:093;-0.11492168;9.902418;0.6895301
09:35:38:093;-0.11492168;9.902418;0.6895301
09:35:38:093;-0.11492168;9.902418;0.6895301
09:35:38:093;-0.11492168;9.902418;0.6895301
09:35:38:202;-0.05746084;9.921572;0.6512229
09:35:38:202;-0.05746084;9.921572;0.6512229
09:35:38:202;-0.05746084;9.921572;0.6512229
09:35:38:202;-0.05746084;9.921572;0.6512229
09:35:38:202;-0.05746084;9.921572;0.6512229
09:35:38:202;-0.05746084;9.921572;0.6512229
09:35:38:202;-0.05746084;9.921572;0.6512229
09:35:38:202;-0.05746084;9.921572;0.6512229
09:35:38:202;-0.05746084;9.921572;0.6512229
09:35:38:202;-0.05746084;9.921572;0.6512229
09:35:38:202;-0.05746084;9.921572;0.6512229
09:35:38:202;-0.05746084;9.921572;0.6512229
09:35:38:202;-0.05746084;9.921572;0.6512229
09:35:38:202;-0.05746084;9.921572;0.6512229
09:35:38:202;-0.05746084;9.921572;0.6512229
09:35:38:317;-0.1340753;9.940725;0.5554548
09:35:38:317;-0.1340753;9.940725;0.5554548
09:35:38:317;-0.1340753;9.940725;0.5554548
09:35:38:317;-0.1340753;9.940725;0.5554548
09:35:38:317;-0.1340753;9.940725;0.5554548
09:35:38:317;-0.1340753;9.940725;0.5554548
09:35:38:317;-0.1340753;9.940725;0.5554548
09:35:38:317;-0.1340753;9.940725;0.5554548
09:35:38:317;-0.1340753;9.940725;0.5554548
09:35:38:317;-0.1340753;9.940725;0.5554548
09:35:38:317;-0.1340753;9.940725;0.5554548
09:35:38:317;-0.1340753;9.940725;0.5554548
09:35:38:317;-0.1340753;9.940725;0.5554548
09:35:38:419;0.019153614;9.959879;0.59376204
09:35:38:419;0.019153614;9.959879;0.59376204
09:35:38:419;0.019153614;9.959879;0.59376204
09:35:38:419;0.019153614;9.959879;0.59376204
09:35:38:419;0.019153614;9.959879;0.59376204
09:35:38:419;0.019153614;9.959879;0.59376204
09:35:38:419;0.019153614;9.959879;0.59376204
09:35:38:419;0.019153614;9.959879;0.59376204
09:35:38:419;0.019153614;9.959879;0.59376204
09:35:38:419;0.019153614;9.959879;0.59376204
09:35:38:419;0.019153614;9.959879;0.59376204
09:35:38:419;0.019153614;9.959879;0.59376204
09:35:38:419;0.019153614;9.959879;0.59376204
09:35:38:419;0.019153614;9.959879;0.59376204
09:35:38:419;0.019153614;9.959879;0.59376204
09:35:38:419;0.019153614;9.959879;0.59376204
09:35:38:419;0.019153614;9.959879;0.59376204
09:35:38:419;0.019153614;9.959879;0.59376204
09:35:38:419;0.019153614;9.959879;0.59376204
09:35:38:419;0.019153614;9.959879;0.59376204
09:35:38:419;0.019153614;9.959879;0.59376204
09:35:38:419;0.019153614;9.959879;0.59376204
09:35:38:419;0.019153614;9.959879;0.59376204
09:35:38:598;-0.095768064;9.883265;0.61291564
09:35:38:598;-0.095768064;9.883265;0.61291564
09:35:38:598;-0.095768064;9.883265;0.61291564
09:35:38:598;-0.095768064;9.883265;0.61291564
09:35:38:598;-0.095768064;9.883265;0.61291564
09:35:38:598;-0.095768064;9.883265;0.61291564
09:35:38:598;-0.095768064;9.883265;0.61291564
09:35:38:598;-0.095768064;9.883265;0.61291564
09:35:38:598;-0.095768064;9.883265;0.61291564
09:35:38:598;-0.095768064;9.883265;0.61291564
09:35:38:598;-0.095768064;9.883265;0.61291564
09:35:38:598;-0.095768064;9.883265;0.61291564
09:35:38:598;-0.095768064;9.883265;0.61291564
09:35:38:598;-0.095768064;9.883265;0.61291564
09:35:38:598;-0.095768064;9.883265;0.61291564
09:35:38:717;-0.22984336;10.01734;0.7661445
09:35:38:717;-0.22984336;10.01734;0.7661445
09:35:38:717;-0.22984336;10.01734;0.7661445
09:35:38:717;-0.22984336;10.01734;0.7661445
09:35:38:717;-0.22984336;10.01734;0.7661445
09:35:38:717;-0.22984336;10.01734;0.7661445
09:35:38:717;-0.22984336;10.01734;0.7661445
09:35:38:717;-0.22984336;10.01734;0.7661445
09:35:38:717;-0.22984336;10.01734;0.7661445
09:35:38:717;-0.22984336;10.01734;0.7661445
09:35:38:717;-0.22984336;10.01734;0.7661445
09:35:38:717;-0.22984336;10.01734;0.7661445
09:35:38:717;-0.22984336;10.01734;0.7661445
09:35:38:717;-0.22984336;10.01734;0.7661445
09:35:38:717;-0.22984336;10.01734;0.7661445
09:35:38:833;-0.05746084;9.864111;0.82360536
09:35:38:833;-0.05746084;9.864111;0.82360536
09:35:38:833;-0.05746084;9.864111;0.82360536
09:35:38:833;-0.05746084;9.864111;0.82360536
09:35:38:833;-0.05746084;9.864111;0.82360536
09:35:38:833;-0.05746084;9.864111;0.82360536
09:35:38:833;-0.05746084;9.864111;0.82360536
09:35:38:833;-0.05746084;9.864111;0.82360536
09:35:38:833;-0.05746084;9.864111;0.82360536
09:35:38:833;-0.05746084;9.864111;0.82360536
09:35:38:833;-0.05746084;9.864111;0.82360536
09:35:38:833;-0.05746084;9.864111;0.82360536
09:35:38:833;-0.05746084;9.864111;0.82360536
09:35:38:937;-0.095768064;9.864111;0.6895301
09:35:38:937;-0.095768064;9.864111;0.6895301
09:35:38:937;-0.095768064;9.864111;0.6895301
09:35:38:937;-0.095768064;9.864111;0.6895301
09:35:38:937;-0.095768064;9.864111;0.6895301
09:35:38:937;-0.095768064;9.864111;0.6895301
09:35:38:937;-0.095768064;9.864111;0.6895301
09:35:38:937;-0.095768064;9.864111;0.6895301
09:35:38:937;-0.095768064;9.864111;0.6895301
09:35:38:937;-0.095768064;9.864111;0.6895301
09:35:38:937;-0.095768064;9.864111;0.6895301
09:35:38:937;-0.095768064;9.864111;0.6895301
09:35:38:937;-0.095768064;9.864111;0.6895301
09:35:38:937;-0.095768064;9.864111;0.6895301
09:35:38:937;-0.095768064;9.864111;0.6895301
09:35:38:937;-0.095768064;9.864111;0.6895301
09:35:39:056;-0.15322891;10.055647;0.6703765
09:35:39:056;-0.15322891;10.055647;0.6703765
09:35:39:056;-0.15322891;10.055647;0.6703765
09:35:39:056;-0.15322891;10.055647;0.6703765
09:35:39:056;-0.15322891;10.055647;0.6703765
09:35:39:056;-0.15322891;10.055647;0.6703765
09:35:39:056;-0.15322891;10.055647;0.6703765
09:35:39:056;-0.15322891;10.055647;0.6703765
09:35:39:056;-0.15322891;10.055647;0.6703765
09:35:39:056;-0.15322891;10.055647;0.6703765
09:35:39:056;-0.15322891;10.055647;0.6703765
09:35:39:056;-0.15322891;10.055647;0.6703765
09:35:39:056;-0.15322891;10.055647;0.6703765
09:35:39:056;-0.15322891;10.055647;0.6703765
09:35:39:056;-0.15322891;10.055647;0.6703765
09:35:39:173;-0.076614454;9.921572;0.7278373
09:35:39:173;-0.076614454;9.921572;0.7278373
09:35:39:173;-0.076614454;9.921572;0.7278373
09:35:39:173;-0.076614454;9.921572;0.7278373
09:35:39:173;-0.076614454;9.921572;0.7278373
09:35:39:173;-0.076614454;9.921572;0.7278373
09:35:39:173;-0.076614454;9.921572;0.7278373
09:35:39:173;-0.076614454;9.921572;0.7278373
09:35:39:173;-0.076614454;9.921572;0.7278373
09:35:39:173;-0.076614454;9.921572;0.7278373
09:35:39:173;-0.076614454;9.921572;0.7278373
09:35:39:173;-0.076614454;9.921572;0.7278373
09:35:39:173;-0.076614454;9.921572;0.7278373
09:35:39:173;-0.076614454;9.921572;0.7278373
09:35:39:283;-0.076614454;9.921572;0.7086837
09:35:39:283;-0.076614454;9.921572;0.7086837
09:35:39:283;-0.076614454;9.921572;0.7086837
09:35:39:283;-0.076614454;9.921572;0.7086837
09:35:39:283;-0.076614454;9.921572;0.7086837
09:35:39:283;-0.076614454;9.921572;0.7086837
09:35:39:283;-0.076614454;9.921572;0.7086837
09:35:39:283;-0.076614454;9.921572;0.7086837
09:35:39:283;-0.076614454;9.921572;0.7086837
09:35:39:283;-0.076614454;9.921572;0.7086837
09:35:39:283;-0.076614454;9.921572;0.7086837
09:35:39:283;-0.076614454;9.921572;0.7086837
09:35:39:283;-0.076614454;9.921572;0.7086837
09:35:39:283;-0.076614454;9.921572;0.7086837
09:35:39:283;-0.076614454;9.921572;0.7086837
09:35:39:406;-0.095768064;9.940725;0.59376204
09:35:39:406;-0.095768064;9.940725;0.59376204
09:35:39:406;-0.095768064;9.940725;0.59376204
09:35:39:406;-0.095768064;9.940725;0.59376204
09:35:39:406;-0.095768064;9.940725;0.59376204
09:35:39:406;-0.095768064;9.940725;0.59376204
09:35:39:406;-0.095768064;9.940725;0.59376204
09:35:39:406;-0.095768064;9.940725;0.59376204
09:35:39:406;-0.095768064;9.940725;0.59376204
09:35:39:406;-0.095768064;9.940725;0.59376204
09:35:39:406;-0.095768064;9.940725;0.59376204
09:35:39:406;-0.095768064;9.940725;0.59376204
09:35:39:406;-0.095768064;9.940725;0.59376204
09:35:39:406;-0.095768064;9.940725;0.59376204
09:35:39:406;-0.095768064;9.940725;0.59376204
09:35:39:523;-0.11492168;9.883265;0.6895301
09:35:39:523;-0.11492168;9.883265;0.6895301
09:35:39:523;-0.11492168;9.883265;0.6895301
09:35:39:523;-0.11492168;9.883265;0.6895301
09:35:39:523;-0.11492168;9.883265;0.6895301
09:35:39:523;-0.11492168;9.883265;0.6895301
09:35:39:523;-0.11492168;9.883265;0.6895301
09:35:39:523;-0.11492168;9.883265;0.6895301
09:35:39:523;-0.11492168;9.883265;0.6895301
09:35:39:523;-0.11492168;9.883265;0.6895301
09:35:39:523;-0.11492168;9.883265;0.6895301
09:35:39:523;-0.11492168;9.883265;0.6895301
09:35:39:523;-0.11492168;9.883265;0.6895301
09:35:39:523;-0.11492168;9.883265;0.6895301
09:35:39:523;-0.11492168;9.883265;0.6895301
09:35:39:523;-0.11492168;9.883265;0.6895301
09:35:39:641;-0.2681506;9.998186;0.6512229
09:35:39:641;-0.2681506;9.998186;0.6512229
09:35:39:641;-0.2681506;9.998186;0.6512229
09:35:39:641;-0.2681506;9.998186;0.6512229
09:35:39:641;-0.2681506;9.998186;0.6512229
09:35:39:641;-0.2681506;9.998186;0.6512229
09:35:39:641;-0.2681506;9.998186;0.6512229
09:35:39:641;-0.2681506;9.998186;0.6512229
09:35:39:641;-0.2681506;9.998186;0.6512229
09:35:39:641;-0.2681506;9.998186;0.6512229
09:35:39:641;-0.2681506;9.998186;0.6512229
09:35:39:641;-0.2681506;9.998186;0.6512229
09:35:39:641;-0.2681506;9.998186;0.6512229
09:35:39:750;-0.19153613;9.864111;0.6703765
09:35:39:750;-0.19153613;9.864111;0.6703765
09:35:39:750;-0.19153613;9.864111;0.6703765
09:35:39:750;-0.19153613;9.864111;0.6703765
09:35:39:750;-0.19153613;9.864111;0.6703765
09:35:39:750;-0.19153613;9.864111;0.6703765
09:35:39:750;-0.19153613;9.864111;0.6703765
09:35:39:750;-0.19153613;9.864111;0.6703765
09:35:39:750;-0.19153613;9.864111;0.6703765
09:35:39:750;-0.19153613;9.864111;0.6703765
09:35:39:750;-0.19153613;9.864111;0.6703765
09:35:39:750;-0.19153613;9.864111;0.6703765
09:35:39:750;-0.19153613;9.864111;0.6703765
09:35:39:750;-0.19153613;9.864111;0.6703765
09:35:39:852;-0.19153613;9.998186;0.63206923
09:35:39:852;-0.19153613;9.998186;0.63206923
09:35:39:852;-0.19153613;9.998186;0.63206923
09:35:39:852;-0.19153613;9.998186;0.63206923
09:35:39:852;-0.19153613;9.998186;0.63206923
09:35:39:852;-0.19153613;9.998186;0.63206923
09:35:39:852;-0.19153613;9.998186;0.63206923
09:35:39:852;-0.19153613;9.998186;0.63206923
09:35:39:852;-0.19153613;9.998186;0.63206923
09:35:39:852;-0.19153613;9.998186;0.63206923
09:35:39:852;-0.19153613;9.998186;0.63206923
09:35:39:852;-0.19153613;9.998186;0.63206923
09:35:39:852;-0.19153613;9.998186;0.63206923
09:35:39:852;-0.19153613;9.998186;0.63206923
09:35:39:852;-0.19153613;9.998186;0.63206923
09:35:39:852;-0.19153613;9.998186;0.63206923
09:35:39:852;-0.19153613;9.998186;0.63206923
09:35:39:852;-0.19153613;9.998186;0.63206923
09:35:39:852;-0.19153613;9.998186;0.63206923
09:35:40:005;-0.17238252;9.959879;0.80445176
09:35:40:005;-0.17238252;9.959879;0.80445176
09:35:40:005;-0.17238252;9.959879;0.80445176
09:35:40:005;-0.17238252;9.959879;0.80445176
09:35:40:005;-0.17238252;9.959879;0.80445176
09:35:40:005;-0.17238252;9.959879;0.80445176
09:35:40:005;-0.17238252;9.959879;0.80445176
09:35:40:005;-0.17238252;9.959879;0.80445176
09:35:40:005;-0.17238252;9.959879;0.80445176
09:35:40:005;-0.17238252;9.959879;0.80445176
09:35:40:005;-0.17238252;9.959879;0.80445176
09:35:40:005;-0.17238252;9.959879;0.80445176
09:35:40:005;-0.17238252;9.959879;0.80445176
09:35:40:005;-0.17238252;9.959879;0.80445176
09:35:40:005;-0.17238252;9.959879;0.80445176
09:35:40:125;-0.095768064;10.0748005;0.59376204
09:35:40:125;-0.095768064;10.0748005;0.59376204
09:35:40:125;-0.095768064;10.0748005;0.59376204
09:35:40:125;-0.095768064;10.0748005;0.59376204
09:35:40:125;-0.095768064;10.0748005;0.59376204
09:35:40:125;-0.095768064;10.0748005;0.59376204
09:35:40:125;-0.095768064;10.0748005;0.59376204
09:35:40:125;-0.095768064;10.0748005;0.59376204
09:35:40:125;-0.095768064;10.0748005;0.59376204
09:35:40:125;-0.095768064;10.0748005;0.59376204
09:35:40:125;-0.095768064;10.0748005;0.59376204
09:35:40:125;-0.095768064;10.0748005;0.59376204
09:35:40:125;-0.095768064;10.0748005;0.59376204
09:35:40:125;-0.095768064;10.0748005;0.59376204
09:35:40:230;-0.2873042;10.113108;0.61291564
09:35:40:230;-0.2873042;10.113108;0.61291564
09:35:40:230;-0.2873042;10.113108;0.61291564
09:35:40:230;-0.2873042;10.113108;0.61291564
09:35:40:230;-0.2873042;10.113108;0.61291564
09:35:40:230;-0.2873042;10.113108;0.61291564
09:35:40:230;-0.2873042;10.113108;0.61291564
09:35:40:230;-0.2873042;10.113108;0.61291564
09:35:40:230;-0.2873042;10.113108;0.61291564
09:35:40:230;-0.2873042;10.113108;0.61291564
09:35:40:230;-0.2873042;10.113108;0.61291564
09:35:40:230;-0.2873042;10.113108;0.61291564
09:35:40:230;-0.2873042;10.113108;0.61291564
09:35:40:230;-0.2873042;10.113108;0.61291564
09:35:40:230;-0.2873042;10.113108;0.61291564
09:35:40:351;0.1340753;9.883265;0.6703765
09:35:40:351;0.1340753;9.883265;0.6703765
09:35:40:351;0.1340753;9.883265;0.6703765
09:35:40:351;0.1340753;9.883265;0.6703765
09:35:40:351;0.1340753;9.883265;0.6703765
09:35:40:351;0.1340753;9.883265;0.6703765
09:35:40:351;0.1340753;9.883265;0.6703765
09:35:40:351;0.1340753;9.883265;0.6703765
09:35:40:351;0.1340753;9.883265;0.6703765
09:35:40:351;0.1340753;9.883265;0.6703765
09:35:40:351;0.1340753;9.883265;0.6703765
09:35:40:351;0.1340753;9.883265;0.6703765
09:35:40:351;0.1340753;9.883265;0.6703765
09:35:40:351;0.1340753;9.883265;0.6703765
09:35:40:351;0.1340753;9.883265;0.6703765
09:35:40:465;-0.17238252;9.921572;0.6895301
09:35:40:465;-0.17238252;9.921572;0.6895301
09:35:40:465;-0.17238252;9.921572;0.6895301
09:35:40:465;-0.17238252;9.921572;0.6895301
09:35:40:465;-0.17238252;9.921572;0.6895301
09:35:40:465;-0.17238252;9.921572;0.6895301
09:35:40:465;-0.17238252;9.921572;0.6895301
09:35:40:465;-0.17238252;9.921572;0.6895301
09:35:40:465;-0.17238252;9.921572;0.6895301
09:35:40:465;-0.17238252;9.921572;0.6895301
09:35:40:465;-0.17238252;9.921572;0.6895301
09:35:40:465;-0.17238252;9.921572;0.6895301
09:35:40:465;-0.17238252;9.921572;0.6895301
09:35:40:465;-0.17238252;9.921572;0.6895301
09:35:40:578;-0.30645782;9.921572;0.5363012
09:35:40:578;-0.30645782;9.921572;0.5363012
09:35:40:578;-0.30645782;9.921572;0.5363012
09:35:40:578;-0.30645782;9.921572;0.5363012
09:35:40:578;-0.30645782;9.921572;0.5363012
09:35:40:578;-0.30645782;9.921572;0.5363012
09:35:40:578;-0.30645782;9.921572;0.5363012
09:35:40:578;-0.30645782;9.921572;0.5363012
09:35:40:578;-0.30645782;9.921572;0.5363012
09:35:40:578;-0.30645782;9.921572;0.5363012
09:35:40:578;-0.30645782;9.921572;0.5363012
09:35:40:578;-0.30645782;9.921572;0.5363012
09:35:40:578;-0.30645782;9.921572;0.5363012
09:35:40:578;-0.30645782;9.921572;0.5363012
09:35:40:578;-0.30645782;9.921572;0.5363012
09:35:40:689;-0.19153613;9.9790325;0.63206923
09:35:40:689;-0.19153613;9.9790325;0.63206923
09:35:40:689;-0.19153613;9.9790325;0.63206923
09:35:40:689;-0.19153613;9.9790325;0.63206923
09:35:40:689;-0.19153613;9.9790325;0.63206923
09:35:40:689;-0.19153613;9.9790325;0.63206923
09:35:40:689;-0.19153613;9.9790325;0.63206923
09:35:40:689;-0.19153613;9.9790325;0.63206923
09:35:40:689;-0.19153613;9.9790325;0.63206923
09:35:40:689;-0.19153613;9.9790325;0.63206923
09:35:40:689;-0.19153613;9.9790325;0.63206923
09:35:40:689;-0.19153613;9.9790325;0.63206923
09:35:40:689;-0.19153613;9.9790325;0.63206923
09:35:40:790;-0.076614454;9.844957;0.7661445
09:35:40:790;-0.076614454;9.844957;0.7661445
09:35:40:790;-0.076614454;9.844957;0.7661445
09:35:40:790;-0.076614454;9.844957;0.7661445
09:35:40:790;-0.076614454;9.844957;0.7661445
09:35:40:790;-0.076614454;9.844957;0.7661445
09:35:40:790;-0.076614454;9.844957;0.7661445
09:35:40:790;-0.076614454;9.844957;0.7661445
09:35:40:790;-0.076614454;9.844957;0.7661445
09:35:40:790;-0.076614454;9.844957;0.7661445
09:35:40:790;-0.076614454;9.844957;0.7661445
09:35:40:790;-0.076614454;9.844957;0.7661445
09:35:40:790;-0.076614454;9.844957;0.7661445
09:35:40:790;-0.076614454;9.844957;0.7661445
09:35:40:903;-0.17238252;9.844957;0.5746084
09:35:40:903;-0.17238252;9.844957;0.5746084
09:35:40:903;-0.17238252;9.844957;0.5746084
09:35:40:903;-0.17238252;9.844957;0.5746084
09:35:40:903;-0.17238252;9.844957;0.5746084
09:35:40:903;-0.17238252;9.844957;0.5746084
09:35:40:903;-0.17238252;9.844957;0.5746084
09:35:40:903;-0.17238252;9.844957;0.5746084
09:35:40:903;-0.17238252;9.844957;0.5746084
09:35:40:903;-0.17238252;9.844957;0.5746084
09:35:40:903;-0.17238252;9.844957;0.5746084
09:35:40:903;-0.17238252;9.844957;0.5746084
09:35:40:903;-0.17238252;9.844957;0.5746084
09:35:40:903;-0.17238252;9.844957;0.5746084
09:35:40:903;-0.17238252;9.844957;0.5746084
09:35:40:903;-0.17238252;9.844957;0.5746084
09:35:41:025;-0.24899697;9.883265;0.7278373
09:35:41:025;-0.24899697;9.883265;0.7278373
09:35:41:025;-0.24899697;9.883265;0.7278373
09:35:41:025;-0.24899697;9.883265;0.7278373
09:35:41:025;-0.24899697;9.883265;0.7278373
09:35:41:025;-0.24899697;9.883265;0.7278373
09:35:41:025;-0.24899697;9.883265;0.7278373
09:35:41:025;-0.24899697;9.883265;0.7278373
09:35:41:025;-0.24899697;9.883265;0.7278373
09:35:41:025;-0.24899697;9.883265;0.7278373
09:35:41:025;-0.24899697;9.883265;0.7278373
09:35:41:025;-0.24899697;9.883265;0.7278373
09:35:41:025;-0.24899697;9.883265;0.7278373
09:35:41:128;-0.19153613;9.959879;0.6703765
09:35:41:128;-0.19153613;9.959879;0.6703765
09:35:41:128;-0.19153613;9.959879;0.6703765
09:35:41:128;-0.19153613;9.959879;0.6703765
09:35:41:128;-0.19153613;9.959879;0.6703765
09:35:41:128;-0.19153613;9.959879;0.6703765
09:35:41:128;-0.19153613;9.959879;0.6703765
09:35:41:128;-0.19153613;9.959879;0.6703765
09:35:41:128;-0.19153613;9.959879;0.6703765
09:35:41:128;-0.19153613;9.959879;0.6703765
09:35:41:128;-0.19153613;9.959879;0.6703765
09:35:41:128;-0.19153613;9.959879;0.6703765
09:35:41:128;-0.19153613;9.959879;0.6703765
09:35:41:231;-0.17238252;9.998186;0.78529817
09:35:41:231;-0.17238252;9.998186;0.78529817
09:35:41:231;-0.17238252;9.998186;0.78529817
09:35:41:231;-0.17238252;9.998186;0.78529817
09:35:41:231;-0.17238252;9.998186;0.78529817
09:35:41:231;-0.17238252;9.998186;0.78529817
09:35:41:231;-0.17238252;9.998186;0.78529817
09:35:41:231;-0.17238252;9.998186;0.78529817
09:35:41:231;-0.17238252;9.998186;0.78529817
09:35:41:231;-0.17238252;9.998186;0.78529817
09:35:41:231;-0.17238252;9.998186;0.78529817
09:35:41:231;-0.17238252;9.998186;0.78529817
09:35:41:231;-0.17238252;9.998186;0.78529817
09:35:41:231;-0.17238252;9.998186;0.78529817
09:35:41:231;-0.17238252;9.998186;0.78529817
09:35:41:349;-0.22984336;10.113108;0.5363012
09:35:41:349;-0.22984336;10.113108;0.5363012
09:35:41:349;-0.22984336;10.113108;0.5363012
09:35:41:349;-0.22984336;10.113108;0.5363012
09:35:41:349;-0.22984336;10.113108;0.5363012
09:35:41:349;-0.22984336;10.113108;0.5363012
09:35:41:349;-0.22984336;10.113108;0.5363012
09:35:41:349;-0.22984336;10.113108;0.5363012
09:35:41:349;-0.22984336;10.113108;0.5363012
09:35:41:349;-0.22984336;10.113108;0.5363012
09:35:41:349;-0.22984336;10.113108;0.5363012
09:35:41:349;-0.22984336;10.113108;0.5363012
09:35:41:349;-0.22984336;10.113108;0.5363012
09:35:41:349;-0.22984336;10.113108;0.5363012
09:35:41:349;-0.22984336;10.113108;0.5363012
09:35:41:464;-0.095768064;9.864111;0.7086837
09:35:41:464;-0.095768064;9.864111;0.7086837
09:35:41:464;-0.095768064;9.864111;0.7086837
09:35:41:464;-0.095768064;9.864111;0.7086837
09:35:41:464;-0.095768064;9.864111;0.7086837
09:35:41:464;-0.095768064;9.864111;0.7086837
09:35:41:464;-0.095768064;9.864111;0.7086837
09:35:41:464;-0.095768064;9.864111;0.7086837
09:35:41:464;-0.095768064;9.864111;0.7086837
09:35:41:464;-0.095768064;9.864111;0.7086837
09:35:41:464;-0.095768064;9.864111;0.7086837
09:35:41:464;-0.095768064;9.864111;0.7086837
09:35:41:464;-0.095768064;9.864111;0.7086837
09:35:41:568;-0.1340753;9.959879;0.80445176
09:35:41:568;-0.1340753;9.959879;0.80445176
09:35:41:568;-0.1340753;9.959879;0.80445176
09:35:41:568;-0.1340753;9.959879;0.80445176
09:35:41:568;-0.1340753;9.959879;0.80445176
09:35:41:568;-0.1340753;9.959879;0.80445176
09:35:41:568;-0.1340753;9.959879;0.80445176
09:35:41:568;-0.1340753;9.959879;0.80445176
09:35:41:568;-0.1340753;9.959879;0.80445176
09:35:41:568;-0.1340753;9.959879;0.80445176
09:35:41:568;-0.1340753;9.959879;0.80445176
09:35:41:568;-0.1340753;9.959879;0.80445176
09:35:41:568;-0.1340753;9.959879;0.80445176
09:35:41:669;-0.1340753;9.998186;0.6512229
09:35:41:669;-0.1340753;9.998186;0.6512229
09:35:41:669;-0.1340753;9.998186;0.6512229
09:35:41:669;-0.1340753;9.998186;0.6512229
09:35:41:669;-0.1340753;9.998186;0.6512229
09:35:41:669;-0.1340753;9.998186;0.6512229
09:35:41:669;-0.1340753;9.998186;0.6512229
09:35:41:669;-0.1340753;9.998186;0.6512229
09:35:41:669;-0.1340753;9.998186;0.6512229
09:35:41:669;-0.1340753;9.998186;0.6512229
09:35:41:669;-0.1340753;9.998186;0.6512229
09:35:41:669;-0.1340753;9.998186;0.6512229
09:35:41:669;-0.1340753;9.998186;0.6512229
09:35:41:669;-0.1340753;9.998186;0.6512229
09:35:41:669;-0.1340753;9.998186;0.6512229
09:35:41:788;-0.24899697;9.864111;0.7278373
09:35:41:788;-0.24899697;9.864111;0.7278373
09:35:41:788;-0.24899697;9.864111;0.7278373
09:35:41:788;-0.24899697;9.864111;0.7278373
09:35:41:788;-0.24899697;9.864111;0.7278373
09:35:41:788;-0.24899697;9.864111;0.7278373
09:35:41:788;-0.24899697;9.864111;0.7278373
09:35:41:788;-0.24899697;9.864111;0.7278373
09:35:41:788;-0.24899697;9.864111;0.7278373
09:35:41:788;-0.24899697;9.864111;0.7278373
09:35:41:788;-0.24899697;9.864111;0.7278373
09:35:41:788;-0.24899697;9.864111;0.7278373
09:35:41:788;-0.24899697;9.864111;0.7278373
09:35:41:788;-0.24899697;9.864111;0.7278373
09:35:41:788;-0.24899697;9.864111;0.7278373
09:35:41:903;-0.21068975;9.902418;0.5746084
09:35:41:903;-0.21068975;9.902418;0.5746084
09:35:41:903;-0.21068975;9.902418;0.5746084
09:35:41:903;-0.21068975;9.902418;0.5746084
09:35:41:903;-0.21068975;9.902418;0.5746084
09:35:41:903;-0.21068975;9.902418;0.5746084
09:35:41:903;-0.21068975;9.902418;0.5746084
09:35:41:903;-0.21068975;9.902418;0.5746084
09:35:41:903;-0.21068975;9.902418;0.5746084
09:35:41:903;-0.21068975;9.902418;0.5746084
09:35:41:903;-0.21068975;9.902418;0.5746084
09:35:41:903;-0.21068975;9.902418;0.5746084
09:35:41:903;-0.21068975;9.902418;0.5746084
09:35:41:903;-0.21068975;9.902418;0.5746084
09:35:41:903;-0.21068975;9.902418;0.5746084
09:35:41:903;-0.21068975;9.902418;0.5746084
09:35:41:903;-0.21068975;9.902418;0.5746084
09:35:41:903;-0.21068975;9.902418;0.5746084
09:35:41:903;-0.21068975;9.902418;0.5746084
09:35:41:903;-0.21068975;9.902418;0.5746084
09:35:41:903;-0.21068975;9.902418;0.5746084
09:35:41:903;-0.21068975;9.902418;0.5746084
09:35:41:903;-0.21068975;9.902418;0.5746084
09:35:41:903;-0.21068975;9.902418;0.5746084
09:35:42:088;-0.22984336;10.01734;0.7086837
09:35:42:088;-0.22984336;10.01734;0.7086837
09:35:42:088;-0.22984336;10.01734;0.7086837
09:35:42:088;-0.22984336;10.01734;0.7086837
09:35:42:088;-0.22984336;10.01734;0.7086837
09:35:42:088;-0.22984336;10.01734;0.7086837
09:35:42:088;-0.22984336;10.01734;0.7086837
09:35:42:088;-0.22984336;10.01734;0.7086837
09:35:42:088;-0.22984336;10.01734;0.7086837
09:35:42:088;-0.22984336;10.01734;0.7086837
09:35:42:088;-0.22984336;10.01734;0.7086837
09:35:42:088;-0.22984336;10.01734;0.7086837
09:35:42:088;-0.22984336;10.01734;0.7086837
09:35:42:088;-0.22984336;10.01734;0.7086837
09:35:42:202;-0.15322891;9.9790325;0.7278373
09:35:42:202;-0.15322891;9.9790325;0.7278373
09:35:42:202;-0.15322891;9.9790325;0.7278373
09:35:42:202;-0.15322891;9.9790325;0.7278373
09:35:42:202;-0.15322891;9.9790325;0.7278373
09:35:42:202;-0.15322891;9.9790325;0.7278373
09:35:42:202;-0.15322891;9.9790325;0.7278373
09:35:42:202;-0.15322891;9.9790325;0.7278373
09:35:42:202;-0.15322891;9.9790325;0.7278373
09:35:42:202;-0.15322891;9.9790325;0.7278373
09:35:42:202;-0.15322891;9.9790325;0.7278373
09:35:42:202;-0.15322891;9.9790325;0.7278373
09:35:42:202;-0.15322891;9.9790325;0.7278373
09:35:42:202;-0.15322891;9.9790325;0.7278373
09:35:42:202;-0.15322891;9.9790325;0.7278373
09:35:42:320;-0.15322891;9.883265;0.61291564
09:35:42:320;-0.15322891;9.883265;0.61291564
09:35:42:320;-0.15322891;9.883265;0.61291564
09:35:42:320;-0.15322891;9.883265;0.61291564
09:35:42:320;-0.15322891;9.883265;0.61291564
09:35:42:320;-0.15322891;9.883265;0.61291564
09:35:42:320;-0.15322891;9.883265;0.61291564
09:35:42:320;-0.15322891;9.883265;0.61291564
09:35:42:320;-0.15322891;9.883265;0.61291564
09:35:42:320;-0.15322891;9.883265;0.61291564
09:35:42:320;-0.15322891;9.883265;0.61291564
09:35:42:320;-0.15322891;9.883265;0.61291564
09:35:42:320;-0.15322891;9.883265;0.61291564
09:35:42:320;-0.15322891;9.883265;0.61291564
09:35:42:320;-0.15322891;9.883265;0.61291564
09:35:42:320;-0.15322891;9.883265;0.61291564
09:35:42:440;-0.21068975;9.921572;0.5554548
09:35:42:440;-0.21068975;9.921572;0.5554548
09:35:42:440;-0.21068975;9.921572;0.5554548
09:35:42:440;-0.21068975;9.921572;0.5554548
09:35:42:440;-0.21068975;9.921572;0.5554548
09:35:42:440;-0.21068975;9.921572;0.5554548
09:35:42:440;-0.21068975;9.921572;0.5554548
09:35:42:440;-0.21068975;9.921572;0.5554548
09:35:42:440;-0.21068975;9.921572;0.5554548
09:35:42:440;-0.21068975;9.921572;0.5554548
09:35:42:440;-0.21068975;9.921572;0.5554548
09:35:42:440;-0.21068975;9.921572;0.5554548
09:35:42:440;-0.21068975;9.921572;0.5554548
09:35:42:440;-0.21068975;9.921572;0.5554548
09:35:42:440;-0.21068975;9.921572;0.5554548
09:35:42:557;-0.1340753;10.055647;0.78529817
09:35:42:557;-0.1340753;10.055647;0.78529817
09:35:42:557;-0.1340753;10.055647;0.78529817
09:35:42:557;-0.1340753;10.055647;0.78529817
09:35:42:557;-0.1340753;10.055647;0.78529817
09:35:42:557;-0.1340753;10.055647;0.78529817
09:35:42:557;-0.1340753;10.055647;0.78529817
09:35:42:557;-0.1340753;10.055647;0.78529817
09:35:42:557;-0.1340753;10.055647;0.78529817
09:35:42:557;-0.1340753;10.055647;0.78529817
09:35:42:557;-0.1340753;10.055647;0.78529817
09:35:42:557;-0.1340753;10.055647;0.78529817
09:35:42:557;-0.1340753;10.055647;0.78529817
09:35:42:663;-0.30645782;10.01734;0.5746084
09:35:42:663;-0.30645782;10.01734;0.5746084
09:35:42:663;-0.30645782;10.01734;0.5746084
09:35:42:663;-0.30645782;10.01734;0.5746084
09:35:42:663;-0.30645782;10.01734;0.5746084
09:35:42:663;-0.30645782;10.01734;0.5746084
09:35:42:663;-0.30645782;10.01734;0.5746084
09:35:42:663;-0.30645782;10.01734;0.5746084
09:35:42:663;-0.30645782;10.01734;0.5746084
09:35:42:663;-0.30645782;10.01734;0.5746084
09:35:42:663;-0.30645782;10.01734;0.5746084
09:35:42:663;-0.30645782;10.01734;0.5746084
09:35:42:663;-0.30645782;10.01734;0.5746084
09:35:42:663;-0.30645782;10.01734;0.5746084
09:35:42:663;-0.30645782;10.01734;0.5746084
09:35:42:663;-0.30645782;10.01734;0.5746084
09:35:42:663;-0.30645782;10.01734;0.5746084
09:35:42:793;-0.095768064;9.940725;0.80445176
09:35:42:793;-0.095768064;9.940725;0.80445176
09:35:42:793;-0.095768064;9.940725;0.80445176
09:35:42:793;-0.095768064;9.940725;0.80445176
09:35:42:793;-0.095768064;9.940725;0.80445176
09:35:42:793;-0.095768064;9.940725;0.80445176
09:35:42:793;-0.095768064;9.940725;0.80445176
09:35:42:793;-0.095768064;9.940725;0.80445176
09:35:42:793;-0.095768064;9.940725;0.80445176
09:35:42:793;-0.095768064;9.940725;0.80445176
09:35:42:793;-0.095768064;9.940725;0.80445176
09:35:42:793;-0.095768064;9.940725;0.80445176
09:35:42:793;-0.095768064;9.940725;0.80445176
09:35:42:793;-0.095768064;9.940725;0.80445176
09:35:42:900;-0.17238252;9.9790325;0.6512229
09:35:42:900;-0.17238252;9.9790325;0.6512229
09:35:42:900;-0.17238252;9.9790325;0.6512229
09:35:42:900;-0.17238252;9.9790325;0.6512229
09:35:42:900;-0.17238252;9.9790325;0.6512229
09:35:42:900;-0.17238252;9.9790325;0.6512229
09:35:42:900;-0.17238252;9.9790325;0.6512229
09:35:42:900;-0.17238252;9.9790325;0.6512229
09:35:42:900;-0.17238252;9.9790325;0.6512229
09:35:42:900;-0.17238252;9.9790325;0.6512229
09:35:42:900;-0.17238252;9.9790325;0.6512229
09:35:42:900;-0.17238252;9.9790325;0.6512229
09:35:42:900;-0.17238252;9.9790325;0.6512229
09:35:42:900;-0.17238252;9.9790325;0.6512229
09:35:42:900;-0.17238252;9.9790325;0.6512229
09:35:43:017;-0.1340753;10.036493;0.80445176
09:35:43:017;-0.1340753;10.036493;0.80445176
09:35:43:017;-0.1340753;10.036493;0.80445176
09:35:43:017;-0.1340753;10.036493;0.80445176
09:35:43:017;-0.1340753;10.036493;0.80445176
09:35:43:017;-0.1340753;10.036493;0.80445176
09:35:43:017;-0.1340753;10.036493;0.80445176
09:35:43:017;-0.1340753;10.036493;0.80445176
09:35:43:017;-0.1340753;10.036493;0.80445176
09:35:43:017;-0.1340753;10.036493;0.80445176
09:35:43:017;-0.1340753;10.036493;0.80445176
09:35:43:017;-0.1340753;10.036493;0.80445176
09:35:43:017;-0.1340753;10.036493;0.80445176
09:35:43:017;-0.1340753;10.036493;0.80445176
09:35:43:017;-0.1340753;10.036493;0.80445176
09:35:43:017;-0.1340753;10.036493;0.80445176
09:35:43:017;-0.1340753;10.036493;0.80445176
09:35:43:152;-0.1340753;9.902418;0.5554548
09:35:43:152;-0.1340753;9.902418;0.5554548
09:35:43:152;-0.1340753;9.902418;0.5554548
09:35:43:152;-0.1340753;9.902418;0.5554548
09:35:43:152;-0.1340753;9.902418;0.5554548
09:35:43:152;-0.1340753;9.902418;0.5554548
09:35:43:152;-0.1340753;9.902418;0.5554548
09:35:43:152;-0.1340753;9.902418;0.5554548
09:35:43:152;-0.1340753;9.902418;0.5554548
09:35:43:152;-0.1340753;9.902418;0.5554548
09:35:43:152;-0.1340753;9.902418;0.5554548
09:35:43:152;-0.1340753;9.902418;0.5554548
09:35:43:152;-0.1340753;9.902418;0.5554548
09:35:43:152;-0.1340753;9.902418;0.5554548
09:35:43:264;-0.24899697;9.902418;0.82360536
09:35:43:264;-0.24899697;9.902418;0.82360536
09:35:43:264;-0.24899697;9.902418;0.82360536
09:35:43:264;-0.24899697;9.902418;0.82360536
09:35:43:264;-0.24899697;9.902418;0.82360536
09:35:43:264;-0.24899697;9.902418;0.82360536
09:35:43:264;-0.24899697;9.902418;0.82360536
09:35:43:264;-0.24899697;9.902418;0.82360536
09:35:43:264;-0.24899697;9.902418;0.82360536
09:35:43:264;-0.24899697;9.902418;0.82360536
09:35:43:264;-0.24899697;9.902418;0.82360536
09:35:43:264;-0.24899697;9.902418;0.82360536
09:35:43:264;-0.24899697;9.902418;0.82360536
09:35:43:264;-0.24899697;9.902418;0.82360536
09:35:43:372;-0.15322891;9.940725;0.7661445
09:35:43:372;-0.15322891;9.940725;0.7661445
09:35:43:372;-0.15322891;9.940725;0.7661445
09:35:43:372;-0.15322891;9.940725;0.7661445
09:35:43:372;-0.15322891;9.940725;0.7661445
09:35:43:372;-0.15322891;9.940725;0.7661445
09:35:43:372;-0.15322891;9.940725;0.7661445
09:35:43:372;-0.15322891;9.940725;0.7661445
09:35:43:372;-0.15322891;9.940725;0.7661445
09:35:43:372;-0.15322891;9.940725;0.7661445
09:35:43:372;-0.15322891;9.940725;0.7661445
09:35:43:372;-0.15322891;9.940725;0.7661445
09:35:43:372;-0.15322891;9.940725;0.7661445
09:35:43:372;-0.15322891;9.940725;0.7661445
09:35:43:479;-0.11492168;9.940725;0.7661445
09:35:43:479;-0.11492168;9.940725;0.7661445
09:35:43:479;-0.11492168;9.940725;0.7661445
09:35:43:479;-0.11492168;9.940725;0.7661445
09:35:43:479;-0.11492168;9.940725;0.7661445
09:35:43:479;-0.11492168;9.940725;0.7661445
09:35:43:479;-0.11492168;9.940725;0.7661445
09:35:43:479;-0.11492168;9.940725;0.7661445
09:35:43:479;-0.11492168;9.940725;0.7661445
09:35:43:479;-0.11492168;9.940725;0.7661445
09:35:43:479;-0.11492168;9.940725;0.7661445
09:35:43:479;-0.11492168;9.940725;0.7661445
09:35:43:479;-0.11492168;9.940725;0.7661445
09:35:43:479;-0.11492168;9.940725;0.7661445
09:35:43:590;-0.15322891;9.864111;0.63206923
09:35:43:590;-0.15322891;9.864111;0.63206923
09:35:43:590;-0.15322891;9.864111;0.63206923
09:35:43:590;-0.15322891;9.864111;0.63206923
09:35:43:590;-0.15322891;9.864111;0.63206923
09:35:43:590;-0.15322891;9.864111;0.63206923
09:35:43:590;-0.15322891;9.864111;0.63206923
09:35:43:590;-0.15322891;9.864111;0.63206923
09:35:43:590;-0.15322891;9.864111;0.63206923
09:35:43:590;-0.15322891;9.864111;0.63206923
09:35:43:590;-0.15322891;9.864111;0.63206923
09:35:43:590;-0.15322891;9.864111;0.63206923
09:35:43:590;-0.15322891;9.864111;0.63206923
09:35:43:590;-0.15322891;9.864111;0.63206923
09:35:43:590;-0.15322891;9.864111;0.63206923
09:35:43:707;-0.22984336;9.9790325;0.7086837
09:35:43:707;-0.22984336;9.9790325;0.7086837
09:35:43:707;-0.22984336;9.9790325;0.7086837
09:35:43:707;-0.22984336;9.9790325;0.7086837
09:35:43:707;-0.22984336;9.9790325;0.7086837
09:35:43:707;-0.22984336;9.9790325;0.7086837
09:35:43:707;-0.22984336;9.9790325;0.7086837
09:35:43:707;-0.22984336;9.9790325;0.7086837
09:35:43:707;-0.22984336;9.9790325;0.7086837
09:35:43:707;-0.22984336;9.9790325;0.7086837
09:35:43:707;-0.22984336;9.9790325;0.7086837
09:35:43:707;-0.22984336;9.9790325;0.7086837
09:35:43:707;-0.22984336;9.9790325;0.7086837
09:35:43:812;-0.11492168;10.036493;0.7278373
09:35:43:812;-0.11492168;10.036493;0.7278373
09:35:43:812;-0.11492168;10.036493;0.7278373
09:35:43:812;-0.11492168;10.036493;0.7278373
09:35:43:812;-0.11492168;10.036493;0.7278373
09:35:43:812;-0.11492168;10.036493;0.7278373
09:35:43:812;-0.11492168;10.036493;0.7278373
09:35:43:812;-0.11492168;10.036493;0.7278373
09:35:43:812;-0.11492168;10.036493;0.7278373
09:35:43:812;-0.11492168;10.036493;0.7278373
09:35:43:812;-0.11492168;10.036493;0.7278373
09:35:43:812;-0.11492168;10.036493;0.7278373
09:35:43:812;-0.11492168;10.036493;0.7278373
09:35:43:812;-0.11492168;10.036493;0.7278373
09:35:43:812;-0.11492168;10.036493;0.7278373
09:35:43:812;-0.11492168;10.036493;0.7278373
09:35:43:933;0.019153614;9.902418;0.63206923
09:35:43:933;0.019153614;9.902418;0.63206923
09:35:43:933;0.019153614;9.902418;0.63206923
09:35:43:933;0.019153614;9.902418;0.63206923
09:35:43:933;0.019153614;9.902418;0.63206923
09:35:43:933;0.019153614;9.902418;0.63206923
09:35:43:933;0.019153614;9.902418;0.63206923
09:35:43:933;0.019153614;9.902418;0.63206923
09:35:43:933;0.019153614;9.902418;0.63206923
09:35:43:933;0.019153614;9.902418;0.63206923
09:35:43:933;0.019153614;9.902418;0.63206923
09:35:43:933;0.019153614;9.902418;0.63206923
09:35:43:933;0.019153614;9.902418;0.63206923
09:35:43:933;0.019153614;9.902418;0.63206923
09:35:43:933;0.019153614;9.902418;0.63206923
09:35:44:050;-0.11492168;9.902418;0.6512229
09:35:44:050;-0.11492168;9.902418;0.6512229
09:35:44:050;-0.11492168;9.902418;0.6512229
09:35:44:050;-0.11492168;9.902418;0.6512229
09:35:44:050;-0.11492168;9.902418;0.6512229
09:35:44:050;-0.11492168;9.902418;0.6512229
09:35:44:050;-0.11492168;9.902418;0.6512229
09:35:44:050;-0.11492168;9.902418;0.6512229
09:35:44:050;-0.11492168;9.902418;0.6512229
09:35:44:050;-0.11492168;9.902418;0.6512229
09:35:44:050;-0.11492168;9.902418;0.6512229
09:35:44:050;-0.11492168;9.902418;0.6512229
09:35:44:050;-0.11492168;9.902418;0.6512229
09:35:44:152;-0.11492168;10.093954;0.5746084
09:35:44:152;-0.11492168;10.093954;0.5746084
09:35:44:152;-0.11492168;10.093954;0.5746084
09:35:44:152;-0.11492168;10.093954;0.5746084
09:35:44:152;-0.11492168;10.093954;0.5746084
09:35:44:152;-0.11492168;10.093954;0.5746084
09:35:44:152;-0.11492168;10.093954;0.5746084
09:35:44:152;-0.11492168;10.093954;0.5746084
09:35:44:152;-0.11492168;10.093954;0.5746084
09:35:44:152;-0.11492168;10.093954;0.5746084
09:35:44:152;-0.11492168;10.093954;0.5746084
09:35:44:152;-0.11492168;10.093954;0.5746084
09:35:44:152;-0.11492168;10.093954;0.5746084
09:35:44:257;-0.21068975;10.036493;0.7661445
09:35:44:257;-0.21068975;10.036493;0.7661445
09:35:44:257;-0.21068975;10.036493;0.7661445
09:35:44:257;-0.21068975;10.036493;0.7661445
09:35:44:257;-0.21068975;10.036493;0.7661445
09:35:44:257;-0.21068975;10.036493;0.7661445
09:35:44:257;-0.21068975;10.036493;0.7661445
09:35:44:257;-0.21068975;10.036493;0.7661445
09:35:44:257;-0.21068975;10.036493;0.7661445
09:35:44:257;-0.21068975;10.036493;0.7661445
09:35:44:257;-0.21068975;10.036493;0.7661445
09:35:44:257;-0.21068975;10.036493;0.7661445
09:35:44:257;-0.21068975;10.036493;0.7661445
09:35:44:358;-0.05746084;9.921572;0.8619126
09:35:44:358;-0.05746084;9.921572;0.8619126
09:35:44:358;-0.05746084;9.921572;0.8619126
09:35:44:358;-0.05746084;9.921572;0.8619126
09:35:44:358;-0.05746084;9.921572;0.8619126
09:35:44:358;-0.05746084;9.921572;0.8619126
09:35:44:358;-0.05746084;9.921572;0.8619126
09:35:44:358;-0.05746084;9.921572;0.8619126
09:35:44:358;-0.05746084;9.921572;0.8619126
09:35:44:358;-0.05746084;9.921572;0.8619126
09:35:44:358;-0.05746084;9.921572;0.8619126
09:35:44:358;-0.05746084;9.921572;0.8619126
09:35:44:358;-0.05746084;9.921572;0.8619126
09:35:44:460;-0.21068975;9.9790325;0.80445176
09:35:44:460;-0.21068975;9.9790325;0.80445176
09:35:44:460;-0.21068975;9.9790325;0.80445176
09:35:44:460;-0.21068975;9.9790325;0.80445176
09:35:44:460;-0.21068975;9.9790325;0.80445176
09:35:44:460;-0.21068975;9.9790325;0.80445176
09:35:44:460;-0.21068975;9.9790325;0.80445176
09:35:44:460;-0.21068975;9.9790325;0.80445176
09:35:44:460;-0.21068975;9.9790325;0.80445176
09:35:44:460;-0.21068975;9.9790325;0.80445176
09:35:44:460;-0.21068975;9.9790325;0.80445176
09:35:44:460;-0.21068975;9.9790325;0.80445176
09:35:44:460;-0.21068975;9.9790325;0.80445176
09:35:44:460;-0.21068975;9.9790325;0.80445176
09:35:44:460;-0.21068975;9.9790325;0.80445176
09:35:44:460;-0.21068975;9.9790325;0.80445176
09:35:44:460;-0.21068975;9.9790325;0.80445176
09:35:44:460;-0.21068975;9.9790325;0.80445176
09:35:44:597;-0.21068975;9.844957;0.80445176
09:35:44:597;-0.21068975;9.844957;0.80445176
09:35:44:597;-0.21068975;9.844957;0.80445176
09:35:44:597;-0.21068975;9.844957;0.80445176
09:35:44:597;-0.21068975;9.844957;0.80445176
09:35:44:597;-0.21068975;9.844957;0.80445176
09:35:44:597;-0.21068975;9.844957;0.80445176
09:35:44:597;-0.21068975;9.844957;0.80445176
09:35:44:597;-0.21068975;9.844957;0.80445176
09:35:44:597;-0.21068975;9.844957;0.80445176
09:35:44:597;-0.21068975;9.844957;0.80445176
09:35:44:597;-0.21068975;9.844957;0.80445176
09:35:44:597;-0.21068975;9.844957;0.80445176
09:35:44:597;-0.21068975;9.844957;0.80445176
09:35:44:710;-0.15322891;9.921572;0.7469909
09:35:44:710;-0.15322891;9.921572;0.7469909
09:35:44:710;-0.15322891;9.921572;0.7469909
09:35:44:710;-0.15322891;9.921572;0.7469909
09:35:44:710;-0.15322891;9.921572;0.7469909
09:35:44:710;-0.15322891;9.921572;0.7469909
09:35:44:710;-0.15322891;9.921572;0.7469909
09:35:44:710;-0.15322891;9.921572;0.7469909
09:35:44:710;-0.15322891;9.921572;0.7469909
09:35:44:710;-0.15322891;9.921572;0.7469909
09:35:44:710;-0.15322891;9.921572;0.7469909
09:35:44:710;-0.15322891;9.921572;0.7469909
09:35:44:710;-0.15322891;9.921572;0.7469909
09:35:44:710;-0.15322891;9.921572;0.7469909
09:35:44:710;-0.15322891;9.921572;0.7469909
09:35:44:828;-0.11492168;9.902418;0.6512229
09:35:44:828;-0.11492168;9.902418;0.6512229
09:35:44:828;-0.11492168;9.902418;0.6512229
09:35:44:828;-0.11492168;9.902418;0.6512229
09:35:44:828;-0.11492168;9.902418;0.6512229
09:35:44:828;-0.11492168;9.902418;0.6512229
09:35:44:828;-0.11492168;9.902418;0.6512229
09:35:44:828;-0.11492168;9.902418;0.6512229
09:35:44:828;-0.11492168;9.902418;0.6512229
09:35:44:828;-0.11492168;9.902418;0.6512229
09:35:44:828;-0.11492168;9.902418;0.6512229
09:35:44:828;-0.11492168;9.902418;0.6512229
09:35:44:828;-0.11492168;9.902418;0.6512229
09:35:44:929;-0.095768064;9.9790325;0.59376204
09:35:44:929;-0.095768064;9.9790325;0.59376204
09:35:44:929;-0.095768064;9.9790325;0.59376204
09:35:44:929;-0.095768064;9.9790325;0.59376204
09:35:44:929;-0.095768064;9.9790325;0.59376204
09:35:44:929;-0.095768064;9.9790325;0.59376204
09:35:44:929;-0.095768064;9.9790325;0.59376204
09:35:44:929;-0.095768064;9.9790325;0.59376204
09:35:44:929;-0.095768064;9.9790325;0.59376204
09:35:44:929;-0.095768064;9.9790325;0.59376204
09:35:44:929;-0.095768064;9.9790325;0.59376204
09:35:44:929;-0.095768064;9.9790325;0.59376204
09:35:44:929;-0.095768064;9.9790325;0.59376204
09:35:44:929;-0.095768064;9.9790325;0.59376204
09:35:44:929;-0.095768064;9.9790325;0.59376204
09:35:45:046;-0.15322891;9.9790325;0.7469909
09:35:45:046;-0.15322891;9.9790325;0.7469909
09:35:45:046;-0.15322891;9.9790325;0.7469909
09:35:45:046;-0.15322891;9.9790325;0.7469909
09:35:45:046;-0.15322891;9.9790325;0.7469909
09:35:45:046;-0.15322891;9.9790325;0.7469909
09:35:45:046;-0.15322891;9.9790325;0.7469909
09:35:45:046;-0.15322891;9.9790325;0.7469909
09:35:45:046;-0.15322891;9.9790325;0.7469909
09:35:45:046;-0.15322891;9.9790325;0.7469909
09:35:45:046;-0.15322891;9.9790325;0.7469909
09:35:45:046;-0.15322891;9.9790325;0.7469909
09:35:45:046;-0.15322891;9.9790325;0.7469909
09:35:45:046;-0.15322891;9.9790325;0.7469909
09:35:45:151;-0.038307227;9.940725;0.6895301
09:35:45:151;-0.038307227;9.940725;0.6895301
09:35:45:151;-0.038307227;9.940725;0.6895301
09:35:45:151;-0.038307227;9.940725;0.6895301
09:35:45:151;-0.038307227;9.940725;0.6895301
09:35:45:151;-0.038307227;9.940725;0.6895301
09:35:45:151;-0.038307227;9.940725;0.6895301
09:35:45:151;-0.038307227;9.940725;0.6895301
09:35:45:151;-0.038307227;9.940725;0.6895301
09:35:45:151;-0.038307227;9.940725;0.6895301
09:35:45:151;-0.038307227;9.940725;0.6895301
09:35:45:151;-0.038307227;9.940725;0.6895301
09:35:45:151;-0.038307227;9.940725;0.6895301
09:35:45:256;-0.15322891;9.998186;0.7469909
09:35:45:256;-0.15322891;9.998186;0.7469909
09:35:45:256;-0.15322891;9.998186;0.7469909
09:35:45:256;-0.15322891;9.998186;0.7469909
09:35:45:256;-0.15322891;9.998186;0.7469909
09:35:45:256;-0.15322891;9.998186;0.7469909
09:35:45:256;-0.15322891;9.998186;0.7469909
09:35:45:256;-0.15322891;9.998186;0.7469909
09:35:45:256;-0.15322891;9.998186;0.7469909
09:35:45:256;-0.15322891;9.998186;0.7469909
09:35:45:256;-0.15322891;9.998186;0.7469909
09:35:45:256;-0.15322891;9.998186;0.7469909
09:35:45:256;-0.15322891;9.998186;0.7469909
09:35:45:256;-0.15322891;9.998186;0.7469909
09:35:45:364;-0.21068975;10.01734;0.82360536
09:35:45:364;-0.21068975;10.01734;0.82360536
09:35:45:364;-0.21068975;10.01734;0.82360536
09:35:45:364;-0.21068975;10.01734;0.82360536
09:35:45:364;-0.21068975;10.01734;0.82360536
09:35:45:364;-0.21068975;10.01734;0.82360536
09:35:45:364;-0.21068975;10.01734;0.82360536
09:35:45:364;-0.21068975;10.01734;0.82360536
09:35:45:364;-0.21068975;10.01734;0.82360536
09:35:45:364;-0.21068975;10.01734;0.82360536
09:35:45:364;-0.21068975;10.01734;0.82360536
09:35:45:364;-0.21068975;10.01734;0.82360536
09:35:45:364;-0.21068975;10.01734;0.82360536
09:35:45:364;-0.21068975;10.01734;0.82360536
09:35:45:472;-0.11492168;9.9790325;0.5363012
09:35:45:472;-0.11492168;9.9790325;0.5363012
09:35:45:472;-0.11492168;9.9790325;0.5363012
09:35:45:472;-0.11492168;9.9790325;0.5363012
09:35:45:472;-0.11492168;9.9790325;0.5363012
09:35:45:472;-0.11492168;9.9790325;0.5363012
09:35:45:472;-0.11492168;9.9790325;0.5363012
09:35:45:472;-0.11492168;9.9790325;0.5363012
09:35:45:472;-0.11492168;9.9790325;0.5363012
09:35:45:472;-0.11492168;9.9790325;0.5363012
09:35:45:472;-0.11492168;9.9790325;0.5363012
09:35:45:472;-0.11492168;9.9790325;0.5363012
09:35:45:472;-0.11492168;9.9790325;0.5363012
09:35:45:576;-0.11492168;9.959879;0.6512229
09:35:45:576;-0.11492168;9.959879;0.6512229
09:35:45:576;-0.11492168;9.959879;0.6512229
09:35:45:576;-0.11492168;9.959879;0.6512229
09:35:45:576;-0.11492168;9.959879;0.6512229
09:35:45:576;-0.11492168;9.959879;0.6512229
09:35:45:576;-0.11492168;9.959879;0.6512229
09:35:45:576;-0.11492168;9.959879;0.6512229
09:35:45:576;-0.11492168;9.959879;0.6512229
09:35:45:576;-0.11492168;9.959879;0.6512229
09:35:45:576;-0.11492168;9.959879;0.6512229
09:35:45:576;-0.11492168;9.959879;0.6512229
09:35:45:576;-0.11492168;9.959879;0.6512229
09:35:45:576;-0.11492168;9.959879;0.6512229
09:35:45:576;-0.11492168;9.959879;0.6512229
09:35:45:694;-0.17238252;9.959879;0.6703765
09:35:45:694;-0.17238252;9.959879;0.6703765
09:35:45:694;-0.17238252;9.959879;0.6703765
09:35:45:694;-0.17238252;9.959879;0.6703765
09:35:45:694;-0.17238252;9.959879;0.6703765
09:35:45:694;-0.17238252;9.959879;0.6703765
09:35:45:694;-0.17238252;9.959879;0.6703765
09:35:45:694;-0.17238252;9.959879;0.6703765
09:35:45:694;-0.17238252;9.959879;0.6703765
09:35:45:694;-0.17238252;9.959879;0.6703765
09:35:45:694;-0.17238252;9.959879;0.6703765
09:35:45:694;-0.17238252;9.959879;0.6703765
09:35:45:694;-0.17238252;9.959879;0.6703765
09:35:45:694;-0.17238252;9.959879;0.6703765
09:35:45:799;-0.11492168;9.902418;0.63206923
09:35:45:799;-0.11492168;9.902418;0.63206923
09:35:45:799;-0.11492168;9.902418;0.63206923
09:35:45:799;-0.11492168;9.902418;0.63206923
09:35:45:799;-0.11492168;9.902418;0.63206923
09:35:45:799;-0.11492168;9.902418;0.63206923
09:35:45:799;-0.11492168;9.902418;0.63206923
09:35:45:799;-0.11492168;9.902418;0.63206923
09:35:45:799;-0.11492168;9.902418;0.63206923
09:35:45:799;-0.11492168;9.902418;0.63206923
09:35:45:799;-0.11492168;9.902418;0.63206923
09:35:45:799;-0.11492168;9.902418;0.63206923
09:35:45:799;-0.11492168;9.902418;0.63206923
09:35:45:799;-0.11492168;9.902418;0.63206923
09:35:45:799;-0.11492168;9.902418;0.63206923
09:35:45:799;-0.11492168;9.902418;0.63206923
09:35:45:799;-0.11492168;9.902418;0.63206923
09:35:45:930;-0.15322891;9.998186;0.63206923
09:35:45:930;-0.15322891;9.998186;0.63206923
09:35:45:930;-0.15322891;9.998186;0.63206923
09:35:45:930;-0.15322891;9.998186;0.63206923
09:35:45:930;-0.15322891;9.998186;0.63206923
09:35:45:930;-0.15322891;9.998186;0.63206923
09:35:45:930;-0.15322891;9.998186;0.63206923
09:35:45:930;-0.15322891;9.998186;0.63206923
09:35:45:930;-0.15322891;9.998186;0.63206923
09:35:45:930;-0.15322891;9.998186;0.63206923
09:35:45:930;-0.15322891;9.998186;0.63206923
09:35:45:930;-0.15322891;9.998186;0.63206923
09:35:45:930;-0.15322891;9.998186;0.63206923
09:35:46:034;-0.15322891;9.921572;0.82360536
09:35:46:034;-0.15322891;9.921572;0.82360536
09:35:46:034;-0.15322891;9.921572;0.82360536
09:35:46:034;-0.15322891;9.921572;0.82360536
09:35:46:034;-0.15322891;9.921572;0.82360536
09:35:46:034;-0.15322891;9.921572;0.82360536
09:35:46:034;-0.15322891;9.921572;0.82360536
09:35:46:034;-0.15322891;9.921572;0.82360536
09:35:46:034;-0.15322891;9.921572;0.82360536
09:35:46:034;-0.15322891;9.921572;0.82360536
09:35:46:034;-0.15322891;9.921572;0.82360536
09:35:46:034;-0.15322891;9.921572;0.82360536
09:35:46:034;-0.15322891;9.921572;0.82360536
09:35:46:138;-0.095768064;9.921572;0.78529817
09:35:46:138;-0.095768064;9.921572;0.78529817
09:35:46:138;-0.095768064;9.921572;0.78529817
09:35:46:138;-0.095768064;9.921572;0.78529817
09:35:46:138;-0.095768064;9.921572;0.78529817
09:35:46:138;-0.095768064;9.921572;0.78529817
09:35:46:138;-0.095768064;9.921572;0.78529817
09:35:46:138;-0.095768064;9.921572;0.78529817
09:35:46:138;-0.095768064;9.921572;0.78529817
09:35:46:138;-0.095768064;9.921572;0.78529817
09:35:46:138;-0.095768064;9.921572;0.78529817
09:35:46:138;-0.095768064;9.921572;0.78529817
09:35:46:138;-0.095768064;9.921572;0.78529817
09:35:46:242;0.019153614;9.902418;0.5554548
09:35:46:242;0.019153614;9.902418;0.5554548
09:35:46:242;0.019153614;9.902418;0.5554548
09:35:46:242;0.019153614;9.902418;0.5554548
09:35:46:242;0.019153614;9.902418;0.5554548
09:35:46:242;0.019153614;9.902418;0.5554548
09:35:46:242;0.019153614;9.902418;0.5554548
09:35:46:242;0.019153614;9.902418;0.5554548
09:35:46:242;0.019153614;9.902418;0.5554548
09:35:46:242;0.019153614;9.902418;0.5554548
09:35:46:242;0.019153614;9.902418;0.5554548
09:35:46:242;0.019153614;9.902418;0.5554548
09:35:46:242;0.019153614;9.902418;0.5554548
09:35:46:242;0.019153614;9.902418;0.5554548
09:35:46:242;0.019153614;9.902418;0.5554548
09:35:46:242;0.019153614;9.902418;0.5554548
09:35:46:242;0.019153614;9.902418;0.5554548
09:35:46:370;-0.11492168;10.01734;0.59376204
09:35:46:370;-0.11492168;10.01734;0.59376204
09:35:46:370;-0.11492168;10.01734;0.59376204
09:35:46:370;-0.11492168;10.01734;0.59376204
09:35:46:370;-0.11492168;10.01734;0.59376204
09:35:46:370;-0.11492168;10.01734;0.59376204
09:35:46:370;-0.11492168;10.01734;0.59376204
09:35:46:370;-0.11492168;10.01734;0.59376204
09:35:46:370;-0.11492168;10.01734;0.59376204
09:35:46:370;-0.11492168;10.01734;0.59376204
09:35:46:370;-0.11492168;10.01734;0.59376204
09:35:46:370;-0.11492168;10.01734;0.59376204
09:35:46:370;-0.11492168;10.01734;0.59376204
09:35:46:370;-0.11492168;10.01734;0.59376204
09:35:46:480;-0.076614454;10.093954;0.80445176
09:35:46:480;-0.076614454;10.093954;0.80445176
09:35:46:480;-0.076614454;10.093954;0.80445176
09:35:46:480;-0.076614454;10.093954;0.80445176
09:35:46:480;-0.076614454;10.093954;0.80445176
09:35:46:480;-0.076614454;10.093954;0.80445176
09:35:46:480;-0.076614454;10.093954;0.80445176
09:35:46:480;-0.076614454;10.093954;0.80445176
09:35:46:480;-0.076614454;10.093954;0.80445176
09:35:46:480;-0.076614454;10.093954;0.80445176
09:35:46:480;-0.076614454;10.093954;0.80445176
09:35:46:480;-0.076614454;10.093954;0.80445176
09:35:46:480;-0.076614454;10.093954;0.80445176
09:35:46:480;-0.076614454;10.093954;0.80445176
09:35:46:480;-0.076614454;10.093954;0.80445176
09:35:46:599;-0.095768064;9.9790325;0.61291564
09:35:46:599;-0.095768064;9.9790325;0.61291564
09:35:46:599;-0.095768064;9.9790325;0.61291564
09:35:46:599;-0.095768064;9.9790325;0.61291564
09:35:46:599;-0.095768064;9.9790325;0.61291564
09:35:46:599;-0.095768064;9.9790325;0.61291564
09:35:46:599;-0.095768064;9.9790325;0.61291564
09:35:46:599;-0.095768064;9.9790325;0.61291564
09:35:46:599;-0.095768064;9.9790325;0.61291564
09:35:46:599;-0.095768064;9.9790325;0.61291564
09:35:46:599;-0.095768064;9.9790325;0.61291564
09:35:46:599;-0.095768064;9.9790325;0.61291564
09:35:46:599;-0.095768064;9.9790325;0.61291564
09:35:46:599;-0.095768064;9.9790325;0.61291564
09:35:46:706;-0.1340753;10.036493;0.6703765
09:35:46:706;-0.1340753;10.036493;0.6703765
09:35:46:706;-0.1340753;10.036493;0.6703765
09:35:46:706;-0.1340753;10.036493;0.6703765
09:35:46:706;-0.1340753;10.036493;0.6703765
09:35:46:706;-0.1340753;10.036493;0.6703765
09:35:46:706;-0.1340753;10.036493;0.6703765
09:35:46:706;-0.1340753;10.036493;0.6703765
09:35:46:706;-0.1340753;10.036493;0.6703765
09:35:46:706;-0.1340753;10.036493;0.6703765
09:35:46:706;-0.1340753;10.036493;0.6703765
09:35:46:706;-0.1340753;10.036493;0.6703765
09:35:46:706;-0.1340753;10.036493;0.6703765
09:35:46:706;-0.1340753;10.036493;0.6703765
09:35:46:706;-0.1340753;10.036493;0.6703765
09:35:46:825;-0.095768064;9.998186;0.6895301
09:35:46:825;-0.095768064;9.998186;0.6895301
09:35:46:825;-0.095768064;9.998186;0.6895301
09:35:46:825;-0.095768064;9.998186;0.6895301
09:35:46:825;-0.095768064;9.998186;0.6895301
09:35:46:825;-0.095768064;9.998186;0.6895301
09:35:46:825;-0.095768064;9.998186;0.6895301
09:35:46:825;-0.095768064;9.998186;0.6895301
09:35:46:825;-0.095768064;9.998186;0.6895301
09:35:46:825;-0.095768064;9.998186;0.6895301
09:35:46:825;-0.095768064;9.998186;0.6895301
09:35:46:825;-0.095768064;9.998186;0.6895301
09:35:46:825;-0.095768064;9.998186;0.6895301
09:35:46:825;-0.095768064;9.998186;0.6895301
09:35:46:825;-0.095768064;9.998186;0.6895301
09:35:46:939;-0.1340753;10.055647;0.7086837
09:35:46:939;-0.1340753;10.055647;0.7086837
09:35:46:939;-0.1340753;10.055647;0.7086837
09:35:46:939;-0.1340753;10.055647;0.7086837
09:35:46:939;-0.1340753;10.055647;0.7086837
09:35:46:939;-0.1340753;10.055647;0.7086837
09:35:46:939;-0.1340753;10.055647;0.7086837
09:35:46:939;-0.1340753;10.055647;0.7086837
09:35:46:939;-0.1340753;10.055647;0.7086837
09:35:46:939;-0.1340753;10.055647;0.7086837
09:35:46:939;-0.1340753;10.055647;0.7086837
09:35:46:939;-0.1340753;10.055647;0.7086837
09:35:46:939;-0.1340753;10.055647;0.7086837
09:35:46:939;-0.1340753;10.055647;0.7086837
09:35:46:939;-0.1340753;10.055647;0.7086837
09:35:46:939;-0.1340753;10.055647;0.7086837
09:35:46:939;-0.1340753;10.055647;0.7086837
09:35:46:939;-0.1340753;10.055647;0.7086837
09:35:46:939;-0.1340753;10.055647;0.7086837
09:35:47:088;-0.038307227;9.883265;0.61291564
09:35:47:088;-0.038307227;9.883265;0.61291564
09:35:47:088;-0.038307227;9.883265;0.61291564
09:35:47:088;-0.038307227;9.883265;0.61291564
09:35:47:088;-0.038307227;9.883265;0.61291564
09:35:47:088;-0.038307227;9.883265;0.61291564
09:35:47:088;-0.038307227;9.883265;0.61291564
09:35:47:088;-0.038307227;9.883265;0.61291564
09:35:47:088;-0.038307227;9.883265;0.61291564
09:35:47:088;-0.038307227;9.883265;0.61291564
09:35:47:088;-0.038307227;9.883265;0.61291564
09:35:47:088;-0.038307227;9.883265;0.61291564
09:35:47:088;-0.038307227;9.883265;0.61291564
09:35:47:088;-0.038307227;9.883265;0.61291564
09:35:47:197;-0.21068975;10.01734;0.78529817
09:35:47:197;-0.21068975;10.01734;0.78529817
09:35:47:197;-0.21068975;10.01734;0.78529817
09:35:47:197;-0.21068975;10.01734;0.78529817
09:35:47:197;-0.21068975;10.01734;0.78529817
09:35:47:197;-0.21068975;10.01734;0.78529817
09:35:47:197;-0.21068975;10.01734;0.78529817
09:35:47:197;-0.21068975;10.01734;0.78529817
09:35:47:197;-0.21068975;10.01734;0.78529817
09:35:47:197;-0.21068975;10.01734;0.78529817
09:35:47:197;-0.21068975;10.01734;0.78529817
09:35:47:197;-0.21068975;10.01734;0.78529817
09:35:47:197;-0.21068975;10.01734;0.78529817
09:35:47:197;-0.21068975;10.01734;0.78529817
09:35:47:197;-0.21068975;10.01734;0.78529817
09:35:47:317;-0.095768064;9.883265;0.5554548
09:35:47:317;-0.095768064;9.883265;0.5554548
09:35:47:317;-0.095768064;9.883265;0.5554548
09:35:47:317;-0.095768064;9.883265;0.5554548
09:35:47:317;-0.095768064;9.883265;0.5554548
09:35:47:317;-0.095768064;9.883265;0.5554548
09:35:47:317;-0.095768064;9.883265;0.5554548
09:35:47:317;-0.095768064;9.883265;0.5554548
09:35:47:317;-0.095768064;9.883265;0.5554548
09:35:47:317;-0.095768064;9.883265;0.5554548
09:35:47:317;-0.095768064;9.883265;0.5554548
09:35:47:317;-0.095768064;9.883265;0.5554548
09:35:47:317;-0.095768064;9.883265;0.5554548
09:35:47:317;-0.095768064;9.883265;0.5554548
09:35:47:317;-0.095768064;9.883265;0.5554548
09:35:47:434;-0.095768064;10.036493;0.6895301
09:35:47:434;-0.095768064;10.036493;0.6895301
09:35:47:434;-0.095768064;10.036493;0.6895301
09:35:47:434;-0.095768064;10.036493;0.6895301
09:35:47:434;-0.095768064;10.036493;0.6895301
09:35:47:434;-0.095768064;10.036493;0.6895301
09:35:47:434;-0.095768064;10.036493;0.6895301
09:35:47:434;-0.095768064;10.036493;0.6895301
09:35:47:434;-0.095768064;10.036493;0.6895301
09:35:47:434;-0.095768064;10.036493;0.6895301
09:35:47:434;-0.095768064;10.036493;0.6895301
09:35:47:434;-0.095768064;10.036493;0.6895301
09:35:47:434;-0.095768064;10.036493;0.6895301
09:35:47:434;-0.095768064;10.036493;0.6895301
09:35:47:434;-0.095768064;10.036493;0.6895301
09:35:47:551;-0.095768064;9.9790325;0.6703765
09:35:47:551;-0.095768064;9.9790325;0.6703765
09:35:47:551;-0.095768064;9.9790325;0.6703765
09:35:47:551;-0.095768064;9.9790325;0.6703765
09:35:47:551;-0.095768064;9.9790325;0.6703765
09:35:47:551;-0.095768064;9.9790325;0.6703765
09:35:47:551;-0.095768064;9.9790325;0.6703765
09:35:47:551;-0.095768064;9.9790325;0.6703765
09:35:47:551;-0.095768064;9.9790325;0.6703765
09:35:47:551;-0.095768064;9.9790325;0.6703765
09:35:47:551;-0.095768064;9.9790325;0.6703765
09:35:47:551;-0.095768064;9.9790325;0.6703765
09:35:47:551;-0.095768064;9.9790325;0.6703765
09:35:47:551;-0.095768064;9.9790325;0.6703765
09:35:47:551;-0.095768064;9.9790325;0.6703765
09:35:47:669;-0.019153614;10.036493;0.61291564
09:35:47:669;-0.019153614;10.036493;0.61291564
09:35:47:669;-0.019153614;10.036493;0.61291564
09:35:47:669;-0.019153614;10.036493;0.61291564
09:35:47:669;-0.019153614;10.036493;0.61291564
09:35:47:669;-0.019153614;10.036493;0.61291564
09:35:47:669;-0.019153614;10.036493;0.61291564
09:35:47:669;-0.019153614;10.036493;0.61291564
09:35:47:669;-0.019153614;10.036493;0.61291564
09:35:47:669;-0.019153614;10.036493;0.61291564
09:35:47:669;-0.019153614;10.036493;0.61291564
09:35:47:669;-0.019153614;10.036493;0.61291564
09:35:47:669;-0.019153614;10.036493;0.61291564
09:35:47:669;-0.019153614;10.036493;0.61291564
09:35:47:669;-0.019153614;10.036493;0.61291564
09:35:47:789;-0.22984336;9.940725;0.7086837
09:35:47:789;-0.22984336;9.940725;0.7086837
09:35:47:789;-0.22984336;9.940725;0.7086837
09:35:47:789;-0.22984336;9.940725;0.7086837
09:35:47:789;-0.22984336;9.940725;0.7086837
09:35:47:789;-0.22984336;9.940725;0.7086837
09:35:47:789;-0.22984336;9.940725;0.7086837
09:35:47:789;-0.22984336;9.940725;0.7086837
09:35:47:789;-0.22984336;9.940725;0.7086837
09:35:47:789;-0.22984336;9.940725;0.7086837
09:35:47:789;-0.22984336;9.940725;0.7086837
09:35:47:789;-0.22984336;9.940725;0.7086837
09:35:47:789;-0.22984336;9.940725;0.7086837
09:35:47:789;-0.22984336;9.940725;0.7086837
09:35:47:789;-0.22984336;9.940725;0.7086837
09:35:47:789;-0.22984336;9.940725;0.7086837
09:35:47:909;-0.019153614;9.921572;0.7469909
09:35:47:909;-0.019153614;9.921572;0.7469909
09:35:47:909;-0.019153614;9.921572;0.7469909
09:35:47:909;-0.019153614;9.921572;0.7469909
09:35:47:909;-0.019153614;9.921572;0.7469909
09:35:47:909;-0.019153614;9.921572;0.7469909
09:35:47:909;-0.019153614;9.921572;0.7469909
09:35:47:909;-0.019153614;9.921572;0.7469909
09:35:47:909;-0.019153614;9.921572;0.7469909
09:35:47:909;-0.019153614;9.921572;0.7469909
09:35:47:909;-0.019153614;9.921572;0.7469909
09:35:47:909;-0.019153614;9.921572;0.7469909
09:35:47:909;-0.019153614;9.921572;0.7469909
09:35:47:909;-0.019153614;9.921572;0.7469909
09:35:48:019;-0.1340753;9.921572;0.80445176
09:35:48:019;-0.1340753;9.921572;0.80445176
09:35:48:019;-0.1340753;9.921572;0.80445176
09:35:48:019;-0.1340753;9.921572;0.80445176
09:35:48:019;-0.1340753;9.921572;0.80445176
09:35:48:019;-0.1340753;9.921572;0.80445176
09:35:48:019;-0.1340753;9.921572;0.80445176
09:35:48:019;-0.1340753;9.921572;0.80445176
09:35:48:019;-0.1340753;9.921572;0.80445176
09:35:48:019;-0.1340753;9.921572;0.80445176
09:35:48:019;-0.1340753;9.921572;0.80445176
09:35:48:019;-0.1340753;9.921572;0.80445176
09:35:48:019;-0.1340753;9.921572;0.80445176
09:35:48:124;-0.076614454;10.01734;0.49799395
09:35:48:124;-0.076614454;10.01734;0.49799395
09:35:48:124;-0.076614454;10.01734;0.49799395
09:35:48:124;-0.076614454;10.01734;0.49799395
09:35:48:124;-0.076614454;10.01734;0.49799395
09:35:48:124;-0.076614454;10.01734;0.49799395
09:35:48:124;-0.076614454;10.01734;0.49799395
09:35:48:124;-0.076614454;10.01734;0.49799395
09:35:48:124;-0.076614454;10.01734;0.49799395
09:35:48:124;-0.076614454;10.01734;0.49799395
09:35:48:124;-0.076614454;10.01734;0.49799395
09:35:48:124;-0.076614454;10.01734;0.49799395
09:35:48:124;-0.076614454;10.01734;0.49799395
09:35:48:124;-0.076614454;10.01734;0.49799395
09:35:48:227;-0.095768064;10.0748005;0.5554548
09:35:48:227;-0.095768064;10.0748005;0.5554548
09:35:48:227;-0.095768064;10.0748005;0.5554548
09:35:48:227;-0.095768064;10.0748005;0.5554548
09:35:48:227;-0.095768064;10.0748005;0.5554548
09:35:48:227;-0.095768064;10.0748005;0.5554548
09:35:48:227;-0.095768064;10.0748005;0.5554548
09:35:48:227;-0.095768064;10.0748005;0.5554548
09:35:48:227;-0.095768064;10.0748005;0.5554548
09:35:48:227;-0.095768064;10.0748005;0.5554548
09:35:48:227;-0.095768064;10.0748005;0.5554548
09:35:48:227;-0.095768064;10.0748005;0.5554548
09:35:48:227;-0.095768064;10.0748005;0.5554548
09:35:48:227;-0.095768064;10.0748005;0.5554548
09:35:48:227;-0.095768064;10.0748005;0.5554548
09:35:48:227;-0.095768064;10.0748005;0.5554548
09:35:48:358;-0.019153614;9.959879;0.61291564
09:35:48:358;-0.019153614;9.959879;0.61291564
09:35:48:358;-0.019153614;9.959879;0.61291564
09:35:48:358;-0.019153614;9.959879;0.61291564
09:35:48:358;-0.019153614;9.959879;0.61291564
09:35:48:358;-0.019153614;9.959879;0.61291564
09:35:48:358;-0.019153614;9.959879;0.61291564
09:35:48:358;-0.019153614;9.959879;0.61291564
09:35:48:358;-0.019153614;9.959879;0.61291564
09:35:48:358;-0.019153614;9.959879;0.61291564
09:35:48:358;-0.019153614;9.959879;0.61291564
09:35:48:358;-0.019153614;9.959879;0.61291564
09:35:48:358;-0.019153614;9.959879;0.61291564
09:35:48:358;-0.019153614;9.959879;0.61291564
09:35:48:358;-0.019153614;9.959879;0.61291564
09:35:48:472;-0.21068975;10.0748005;0.7661445
09:35:48:472;-0.21068975;10.0748005;0.7661445
09:35:48:472;-0.21068975;10.0748005;0.7661445
09:35:48:472;-0.21068975;10.0748005;0.7661445
09:35:48:472;-0.21068975;10.0748005;0.7661445
09:35:48:472;-0.21068975;10.0748005;0.7661445
09:35:48:472;-0.21068975;10.0748005;0.7661445
09:35:48:472;-0.21068975;10.0748005;0.7661445
09:35:48:472;-0.21068975;10.0748005;0.7661445
09:35:48:472;-0.21068975;10.0748005;0.7661445
09:35:48:472;-0.21068975;10.0748005;0.7661445
09:35:48:472;-0.21068975;10.0748005;0.7661445
09:35:48:472;-0.21068975;10.0748005;0.7661445
09:35:48:472;-0.21068975;10.0748005;0.7661445
09:35:48:472;-0.21068975;10.0748005;0.7661445
09:35:48:589;-0.21068975;9.959879;0.7661445
09:35:48:589;-0.21068975;9.959879;0.7661445
09:35:48:589;-0.21068975;9.959879;0.7661445
09:35:48:589;-0.21068975;9.959879;0.7661445
09:35:48:589;-0.21068975;9.959879;0.7661445
09:35:48:589;-0.21068975;9.959879;0.7661445
09:35:48:589;-0.21068975;9.959879;0.7661445
09:35:48:589;-0.21068975;9.959879;0.7661445
09:35:48:589;-0.21068975;9.959879;0.7661445
09:35:48:589;-0.21068975;9.959879;0.7661445
09:35:48:589;-0.21068975;9.959879;0.7661445
09:35:48:589;-0.21068975;9.959879;0.7661445
09:35:48:589;-0.21068975;9.959879;0.7661445
09:35:48:589;-0.21068975;9.959879;0.7661445
09:35:48:589;-0.21068975;9.959879;0.7661445
09:35:48:705;-0.19153613;9.940725;0.6703765
09:35:48:705;-0.19153613;9.940725;0.6703765
09:35:48:705;-0.19153613;9.940725;0.6703765
09:35:48:705;-0.19153613;9.940725;0.6703765
09:35:48:705;-0.19153613;9.940725;0.6703765
09:35:48:705;-0.19153613;9.940725;0.6703765
09:35:48:705;-0.19153613;9.940725;0.6703765
09:35:48:705;-0.19153613;9.940725;0.6703765
09:35:48:705;-0.19153613;9.940725;0.6703765
09:35:48:705;-0.19153613;9.940725;0.6703765
09:35:48:705;-0.19153613;9.940725;0.6703765
09:35:48:705;-0.19153613;9.940725;0.6703765
09:35:48:705;-0.19153613;9.940725;0.6703765
09:35:48:705;-0.19153613;9.940725;0.6703765
09:35:48:814;-0.17238252;9.825804;0.78529817
09:35:48:814;-0.17238252;9.825804;0.78529817
09:35:48:814;-0.17238252;9.825804;0.78529817
09:35:48:814;-0.17238252;9.825804;0.78529817
09:35:48:814;-0.17238252;9.825804;0.78529817
09:35:48:814;-0.17238252;9.825804;0.78529817
09:35:48:814;-0.17238252;9.825804;0.78529817
09:35:48:814;-0.17238252;9.825804;0.78529817
09:35:48:814;-0.17238252;9.825804;0.78529817
09:35:48:814;-0.17238252;9.825804;0.78529817
09:35:48:814;-0.17238252;9.825804;0.78529817
09:35:48:814;-0.17238252;9.825804;0.78529817
09:35:48:814;-0.17238252;9.825804;0.78529817
09:35:48:814;-0.17238252;9.825804;0.78529817
09:35:48:814;-0.17238252;9.825804;0.78529817
09:35:48:934;-0.15322891;9.940725;0.61291564
09:35:48:934;-0.15322891;9.940725;0.61291564
09:35:48:934;-0.15322891;9.940725;0.61291564
09:35:48:934;-0.15322891;9.940725;0.61291564
09:35:48:934;-0.15322891;9.940725;0.61291564
09:35:48:934;-0.15322891;9.940725;0.61291564
09:35:48:934;-0.15322891;9.940725;0.61291564
09:35:48:934;-0.15322891;9.940725;0.61291564
09:35:48:934;-0.15322891;9.940725;0.61291564
09:35:48:934;-0.15322891;9.940725;0.61291564
09:35:48:934;-0.15322891;9.940725;0.61291564
09:35:48:934;-0.15322891;9.940725;0.61291564
09:35:48:934;-0.15322891;9.940725;0.61291564
09:35:48:934;-0.15322891;9.940725;0.61291564
09:35:48:934;-0.15322891;9.940725;0.61291564
09:35:48:934;-0.15322891;9.940725;0.61291564
09:35:48:934;-0.15322891;9.940725;0.61291564
09:35:48:934;-0.15322891;9.940725;0.61291564
09:35:48:934;-0.15322891;9.940725;0.61291564
09:35:48:934;-0.15322891;9.940725;0.61291564
09:35:48:934;-0.15322891;9.940725;0.61291564
09:35:48:934;-0.15322891;9.940725;0.61291564
09:35:49:102;-0.11492168;9.844957;0.7086837
09:35:49:102;-0.11492168;9.844957;0.7086837
09:35:49:102;-0.11492168;9.844957;0.7086837
09:35:49:102;-0.11492168;9.844957;0.7086837
09:35:49:102;-0.11492168;9.844957;0.7086837
09:35:49:102;-0.11492168;9.844957;0.7086837
09:35:49:102;-0.11492168;9.844957;0.7086837
09:35:49:102;-0.11492168;9.844957;0.7086837
09:35:49:102;-0.11492168;9.844957;0.7086837
09:35:49:102;-0.11492168;9.844957;0.7086837
09:35:49:102;-0.11492168;9.844957;0.7086837
09:35:49:102;-0.11492168;9.844957;0.7086837
09:35:49:102;-0.11492168;9.844957;0.7086837
09:35:49:102;-0.11492168;9.844957;0.7086837
09:35:49:211;-0.15322891;9.883265;0.6512229
09:35:49:211;-0.15322891;9.883265;0.6512229
09:35:49:211;-0.15322891;9.883265;0.6512229
09:35:49:211;-0.15322891;9.883265;0.6512229
09:35:49:211;-0.15322891;9.883265;0.6512229
09:35:49:211;-0.15322891;9.883265;0.6512229
09:35:49:211;-0.15322891;9.883265;0.6512229
09:35:49:211;-0.15322891;9.883265;0.6512229
09:35:49:211;-0.15322891;9.883265;0.6512229
09:35:49:211;-0.15322891;9.883265;0.6512229
09:35:49:211;-0.15322891;9.883265;0.6512229
09:35:49:211;-0.15322891;9.883265;0.6512229
09:35:49:211;-0.15322891;9.883265;0.6512229
09:35:49:211;-0.15322891;9.883265;0.6512229
09:35:49:211;-0.15322891;9.883265;0.6512229
09:35:49:332;-0.15322891;9.959879;0.7469909
09:35:49:332;-0.15322891;9.959879;0.7469909
09:35:49:332;-0.15322891;9.959879;0.7469909
09:35:49:332;-0.15322891;9.959879;0.7469909
09:35:49:332;-0.15322891;9.959879;0.7469909
09:35:49:332;-0.15322891;9.959879;0.7469909
09:35:49:332;-0.15322891;9.959879;0.7469909
09:35:49:332;-0.15322891;9.959879;0.7469909
09:35:49:332;-0.15322891;9.959879;0.7469909
09:35:49:332;-0.15322891;9.959879;0.7469909
09:35:49:332;-0.15322891;9.959879;0.7469909
09:35:49:332;-0.15322891;9.959879;0.7469909
09:35:49:332;-0.15322891;9.959879;0.7469909
09:35:49:435;-0.2681506;9.9790325;0.78529817
09:35:49:435;-0.2681506;9.9790325;0.78529817
09:35:49:435;-0.2681506;9.9790325;0.78529817
09:35:49:435;-0.2681506;9.9790325;0.78529817
09:35:49:435;-0.2681506;9.9790325;0.78529817
09:35:49:435;-0.2681506;9.9790325;0.78529817
09:35:49:435;-0.2681506;9.9790325;0.78529817
09:35:49:435;-0.2681506;9.9790325;0.78529817
09:35:49:435;-0.2681506;9.9790325;0.78529817
09:35:49:435;-0.2681506;9.9790325;0.78529817
09:35:49:435;-0.2681506;9.9790325;0.78529817
09:35:49:435;-0.2681506;9.9790325;0.78529817
09:35:49:435;-0.2681506;9.9790325;0.78529817
09:35:49:435;-0.2681506;9.9790325;0.78529817
09:35:49:435;-0.2681506;9.9790325;0.78529817
09:35:49:554;-0.21068975;9.9790325;0.7278373
09:35:49:554;-0.21068975;9.9790325;0.7278373
09:35:49:554;-0.21068975;9.9790325;0.7278373
09:35:49:554;-0.21068975;9.9790325;0.7278373
09:35:49:554;-0.21068975;9.9790325;0.7278373
09:35:49:554;-0.21068975;9.9790325;0.7278373
09:35:49:554;-0.21068975;9.9790325;0.7278373
09:35:49:554;-0.21068975;9.9790325;0.7278373
09:35:49:554;-0.21068975;9.9790325;0.7278373
09:35:49:554;-0.21068975;9.9790325;0.7278373
09:35:49:554;-0.21068975;9.9790325;0.7278373
09:35:49:554;-0.21068975;9.9790325;0.7278373
09:35:49:554;-0.21068975;9.9790325;0.7278373
09:35:49:554;-0.21068975;9.9790325;0.7278373
09:35:49:554;-0.21068975;9.9790325;0.7278373
09:35:49:671;-0.1340753;9.998186;0.7661445
09:35:49:671;-0.1340753;9.998186;0.7661445
09:35:49:671;-0.1340753;9.998186;0.7661445
09:35:49:671;-0.1340753;9.998186;0.7661445
09:35:49:671;-0.1340753;9.998186;0.7661445
09:35:49:671;-0.1340753;9.998186;0.7661445
09:35:49:671;-0.1340753;9.998186;0.7661445
09:35:49:671;-0.1340753;9.998186;0.7661445
09:35:49:671;-0.1340753;9.998186;0.7661445
09:35:49:671;-0.1340753;9.998186;0.7661445
09:35:49:671;-0.1340753;9.998186;0.7661445
09:35:49:671;-0.1340753;9.998186;0.7661445
09:35:49:671;-0.1340753;9.998186;0.7661445
09:35:49:773;0.019153614;9.921572;0.78529817
09:35:49:773;0.019153614;9.921572;0.78529817
09:35:49:773;0.019153614;9.921572;0.78529817
09:35:49:773;0.019153614;9.921572;0.78529817
09:35:49:773;0.019153614;9.921572;0.78529817
09:35:49:773;0.019153614;9.921572;0.78529817
09:35:49:773;0.019153614;9.921572;0.78529817
09:35:49:773;0.019153614;9.921572;0.78529817
09:35:49:773;0.019153614;9.921572;0.78529817
09:35:49:773;0.019153614;9.921572;0.78529817
09:35:49:773;0.019153614;9.921572;0.78529817
09:35:49:773;0.019153614;9.921572;0.78529817
09:35:49:773;0.019153614;9.921572;0.78529817
09:35:49:773;0.019153614;9.921572;0.78529817
09:35:49:773;0.019153614;9.921572;0.78529817
09:35:49:890;-0.19153613;9.921572;0.7661445
09:35:49:890;-0.19153613;9.921572;0.7661445
09:35:49:890;-0.19153613;9.921572;0.7661445
09:35:49:890;-0.19153613;9.921572;0.7661445
09:35:49:890;-0.19153613;9.921572;0.7661445
09:35:49:890;-0.19153613;9.921572;0.7661445
09:35:49:890;-0.19153613;9.921572;0.7661445
09:35:49:890;-0.19153613;9.921572;0.7661445
09:35:49:890;-0.19153613;9.921572;0.7661445
09:35:49:890;-0.19153613;9.921572;0.7661445
09:35:49:890;-0.19153613;9.921572;0.7661445
09:35:49:890;-0.19153613;9.921572;0.7661445
09:35:49:890;-0.19153613;9.921572;0.7661445
09:35:49:890;-0.19153613;9.921572;0.7661445
09:35:49:993;-0.22984336;9.921572;0.7661445
09:35:49:993;-0.22984336;9.921572;0.7661445
09:35:49:993;-0.22984336;9.921572;0.7661445
09:35:49:993;-0.22984336;9.921572;0.7661445
09:35:49:993;-0.22984336;9.921572;0.7661445
09:35:49:993;-0.22984336;9.921572;0.7661445
09:35:49:993;-0.22984336;9.921572;0.7661445
09:35:49:993;-0.22984336;9.921572;0.7661445
09:35:49:993;-0.22984336;9.921572;0.7661445
09:35:49:993;-0.22984336;9.921572;0.7661445
09:35:49:993;-0.22984336;9.921572;0.7661445
09:35:49:993;-0.22984336;9.921572;0.7661445
09:35:49:993;-0.22984336;9.921572;0.7661445
09:35:49:993;-0.22984336;9.921572;0.7661445
09:35:50:103;-0.22984336;9.9790325;0.5554548
09:35:50:103;-0.22984336;9.9790325;0.5554548
09:35:50:103;-0.22984336;9.9790325;0.5554548
09:35:50:103;-0.22984336;9.9790325;0.5554548
09:35:50:103;-0.22984336;9.9790325;0.5554548
09:35:50:103;-0.22984336;9.9790325;0.5554548
09:35:50:103;-0.22984336;9.9790325;0.5554548
09:35:50:103;-0.22984336;9.9790325;0.5554548
09:35:50:103;-0.22984336;9.9790325;0.5554548
09:35:50:103;-0.22984336;9.9790325;0.5554548
09:35:50:103;-0.22984336;9.9790325;0.5554548
09:35:50:103;-0.22984336;9.9790325;0.5554548
09:35:50:103;-0.22984336;9.9790325;0.5554548
09:35:50:209;-0.05746084;10.01734;0.7086837
09:35:50:209;-0.05746084;10.01734;0.7086837
09:35:50:209;-0.05746084;10.01734;0.7086837
09:35:50:209;-0.05746084;10.01734;0.7086837
09:35:50:209;-0.05746084;10.01734;0.7086837
09:35:50:209;-0.05746084;10.01734;0.7086837
09:35:50:209;-0.05746084;10.01734;0.7086837
09:35:50:209;-0.05746084;10.01734;0.7086837
09:35:50:209;-0.05746084;10.01734;0.7086837
09:35:50:209;-0.05746084;10.01734;0.7086837
09:35:50:209;-0.05746084;10.01734;0.7086837
09:35:50:209;-0.05746084;10.01734;0.7086837
09:35:50:209;-0.05746084;10.01734;0.7086837
09:35:50:209;-0.05746084;10.01734;0.7086837
09:35:50:209;-0.05746084;10.01734;0.7086837
09:35:50:328;-0.1340753;9.921572;0.6512229
09:35:50:328;-0.1340753;9.921572;0.6512229
09:35:50:328;-0.1340753;9.921572;0.6512229
09:35:50:328;-0.1340753;9.921572;0.6512229
09:35:50:328;-0.1340753;9.921572;0.6512229
09:35:50:328;-0.1340753;9.921572;0.6512229
09:35:50:328;-0.1340753;9.921572;0.6512229
09:35:50:328;-0.1340753;9.921572;0.6512229
09:35:50:328;-0.1340753;9.921572;0.6512229
09:35:50:328;-0.1340753;9.921572;0.6512229
09:35:50:328;-0.1340753;9.921572;0.6512229
09:35:50:328;-0.1340753;9.921572;0.6512229
09:35:50:328;-0.1340753;9.921572;0.6512229
09:35:50:328;-0.1340753;9.921572;0.6512229
09:35:50:328;-0.1340753;9.921572;0.6512229
09:35:50:328;-0.1340753;9.921572;0.6512229
09:35:50:450;-0.095768064;9.959879;0.63206923
09:35:50:450;-0.095768064;9.959879;0.63206923
09:35:50:450;-0.095768064;9.959879;0.63206923
09:35:50:450;-0.095768064;9.959879;0.63206923
09:35:50:450;-0.095768064;9.959879;0.63206923
09:35:50:450;-0.095768064;9.959879;0.63206923
09:35:50:450;-0.095768064;9.959879;0.63206923
09:35:50:450;-0.095768064;9.959879;0.63206923
09:35:50:450;-0.095768064;9.959879;0.63206923
09:35:50:450;-0.095768064;9.959879;0.63206923
09:35:50:450;-0.095768064;9.959879;0.63206923
09:35:50:450;-0.095768064;9.959879;0.63206923
09:35:50:450;-0.095768064;9.959879;0.63206923
09:35:50:450;-0.095768064;9.959879;0.63206923
09:35:50:450;-0.095768064;9.959879;0.63206923
09:35:50:568;0.076614454;9.883265;0.7661445
09:35:50:568;0.076614454;9.883265;0.7661445
09:35:50:568;0.076614454;9.883265;0.7661445
09:35:50:568;0.076614454;9.883265;0.7661445
09:35:50:568;0.076614454;9.883265;0.7661445
09:35:50:568;0.076614454;9.883265;0.7661445
09:35:50:568;0.076614454;9.883265;0.7661445
09:35:50:568;0.076614454;9.883265;0.7661445
09:35:50:568;0.076614454;9.883265;0.7661445
09:35:50:568;0.076614454;9.883265;0.7661445
09:35:50:568;0.076614454;9.883265;0.7661445
09:35:50:568;0.076614454;9.883265;0.7661445
09:35:50:568;0.076614454;9.883265;0.7661445
09:35:50:568;0.076614454;9.883265;0.7661445
09:35:50:676;-0.15322891;9.940725;0.59376204
09:35:50:676;-0.15322891;9.940725;0.59376204
09:35:50:676;-0.15322891;9.940725;0.59376204
09:35:50:676;-0.15322891;9.940725;0.59376204
09:35:50:676;-0.15322891;9.940725;0.59376204
09:35:50:676;-0.15322891;9.940725;0.59376204
09:35:50:676;-0.15322891;9.940725;0.59376204
09:35:50:676;-0.15322891;9.940725;0.59376204
09:35:50:676;-0.15322891;9.940725;0.59376204
09:35:50:676;-0.15322891;9.940725;0.59376204
09:35:50:676;-0.15322891;9.940725;0.59376204
09:35:50:676;-0.15322891;9.940725;0.59376204
09:35:50:676;-0.15322891;9.940725;0.59376204
09:35:50:676;-0.15322891;9.940725;0.59376204
09:35:50:783;-0.19153613;9.959879;0.7278373
09:35:50:783;-0.19153613;9.959879;0.7278373
09:35:50:783;-0.19153613;9.959879;0.7278373
09:35:50:783;-0.19153613;9.959879;0.7278373
09:35:50:783;-0.19153613;9.959879;0.7278373
09:35:50:783;-0.19153613;9.959879;0.7278373
09:35:50:783;-0.19153613;9.959879;0.7278373
09:35:50:783;-0.19153613;9.959879;0.7278373
09:35:50:783;-0.19153613;9.959879;0.7278373
09:35:50:783;-0.19153613;9.959879;0.7278373
09:35:50:783;-0.19153613;9.959879;0.7278373
09:35:50:783;-0.19153613;9.959879;0.7278373
09:35:50:783;-0.19153613;9.959879;0.7278373
09:35:50:783;-0.19153613;9.959879;0.7278373
09:35:50:783;-0.19153613;9.959879;0.7278373
09:35:50:903;-0.19153613;9.902418;0.6512229
09:35:50:903;-0.19153613;9.902418;0.6512229
09:35:50:903;-0.19153613;9.902418;0.6512229
09:35:50:903;-0.19153613;9.902418;0.6512229
09:35:50:903;-0.19153613;9.902418;0.6512229
09:35:50:903;-0.19153613;9.902418;0.6512229
09:35:50:903;-0.19153613;9.902418;0.6512229
09:35:50:903;-0.19153613;9.902418;0.6512229
09:35:50:903;-0.19153613;9.902418;0.6512229
09:35:50:903;-0.19153613;9.902418;0.6512229
09:35:50:903;-0.19153613;9.902418;0.6512229
09:35:50:903;-0.19153613;9.902418;0.6512229
09:35:50:903;-0.19153613;9.902418;0.6512229
09:35:50:903;-0.19153613;9.902418;0.6512229
09:35:50:903;-0.19153613;9.902418;0.6512229
09:35:51:018;-0.076614454;9.940725;0.59376204
09:35:51:018;-0.076614454;9.940725;0.59376204
09:35:51:018;-0.076614454;9.940725;0.59376204
09:35:51:018;-0.076614454;9.940725;0.59376204
09:35:51:018;-0.076614454;9.940725;0.59376204
09:35:51:018;-0.076614454;9.940725;0.59376204
09:35:51:018;-0.076614454;9.940725;0.59376204
09:35:51:018;-0.076614454;9.940725;0.59376204
09:35:51:018;-0.076614454;9.940725;0.59376204
09:35:51:018;-0.076614454;9.940725;0.59376204
09:35:51:018;-0.076614454;9.940725;0.59376204
09:35:51:018;-0.076614454;9.940725;0.59376204
09:35:51:018;-0.076614454;9.940725;0.59376204
09:35:51:018;-0.076614454;9.940725;0.59376204
09:35:51:018;-0.076614454;9.940725;0.59376204
09:35:51:136;-0.05746084;9.998186;0.78529817
09:35:51:136;-0.05746084;9.998186;0.78529817
09:35:51:136;-0.05746084;9.998186;0.78529817
09:35:51:136;-0.05746084;9.998186;0.78529817
09:35:51:136;-0.05746084;9.998186;0.78529817
09:35:51:136;-0.05746084;9.998186;0.78529817
09:35:51:136;-0.05746084;9.998186;0.78529817
09:35:51:136;-0.05746084;9.998186;0.78529817
09:35:51:136;-0.05746084;9.998186;0.78529817
09:35:51:136;-0.05746084;9.998186;0.78529817
09:35:51:136;-0.05746084;9.998186;0.78529817
09:35:51:136;-0.05746084;9.998186;0.78529817
09:35:51:136;-0.05746084;9.998186;0.78529817
09:35:51:237;-0.1340753;9.883265;0.78529817
09:35:51:237;-0.1340753;9.883265;0.78529817
09:35:51:237;-0.1340753;9.883265;0.78529817
09:35:51:237;-0.1340753;9.883265;0.78529817
09:35:51:237;-0.1340753;9.883265;0.78529817
09:35:51:237;-0.1340753;9.883265;0.78529817
09:35:51:237;-0.1340753;9.883265;0.78529817
09:35:51:237;-0.1340753;9.883265;0.78529817
09:35:51:237;-0.1340753;9.883265;0.78529817
09:35:51:237;-0.1340753;9.883265;0.78529817
09:35:51:237;-0.1340753;9.883265;0.78529817
09:35:51:237;-0.1340753;9.883265;0.78529817
09:35:51:237;-0.1340753;9.883265;0.78529817
09:35:51:237;-0.1340753;9.883265;0.78529817
09:35:51:237;-0.1340753;9.883265;0.78529817
09:35:51:237;-0.1340753;9.883265;0.78529817
09:35:51:363;-0.15322891;9.883265;0.7278373
09:35:51:363;-0.15322891;9.883265;0.7278373
09:35:51:363;-0.15322891;9.883265;0.7278373
09:35:51:363;-0.15322891;9.883265;0.7278373
09:35:51:363;-0.15322891;9.883265;0.7278373
09:35:51:363;-0.15322891;9.883265;0.7278373
09:35:51:363;-0.15322891;9.883265;0.7278373
09:35:51:363;-0.15322891;9.883265;0.7278373
09:35:51:363;-0.15322891;9.883265;0.7278373
09:35:51:363;-0.15322891;9.883265;0.7278373
09:35:51:363;-0.15322891;9.883265;0.7278373
09:35:51:363;-0.15322891;9.883265;0.7278373
09:35:51:363;-0.15322891;9.883265;0.7278373
09:35:51:363;-0.15322891;9.883265;0.7278373
09:35:51:363;-0.15322891;9.883265;0.7278373
09:35:51:484;-0.19153613;9.998186;0.6512229
09:35:51:484;-0.19153613;9.998186;0.6512229
09:35:51:484;-0.19153613;9.998186;0.6512229
09:35:51:484;-0.19153613;9.998186;0.6512229
09:35:51:484;-0.19153613;9.998186;0.6512229
09:35:51:484;-0.19153613;9.998186;0.6512229
09:35:51:484;-0.19153613;9.998186;0.6512229
09:35:51:484;-0.19153613;9.998186;0.6512229
09:35:51:484;-0.19153613;9.998186;0.6512229
09:35:51:484;-0.19153613;9.998186;0.6512229
09:35:51:484;-0.19153613;9.998186;0.6512229
09:35:51:484;-0.19153613;9.998186;0.6512229
09:35:51:484;-0.19153613;9.998186;0.6512229
09:35:51:484;-0.19153613;9.998186;0.6512229
09:35:51:484;-0.19153613;9.998186;0.6512229
09:35:51:598;-0.24899697;9.844957;0.6703765
09:35:51:598;-0.24899697;9.844957;0.6703765
09:35:51:598;-0.24899697;9.844957;0.6703765
09:35:51:598;-0.24899697;9.844957;0.6703765
09:35:51:598;-0.24899697;9.844957;0.6703765
09:35:51:598;-0.24899697;9.844957;0.6703765
09:35:51:598;-0.24899697;9.844957;0.6703765
09:35:51:598;-0.24899697;9.844957;0.6703765
09:35:51:598;-0.24899697;9.844957;0.6703765
09:35:51:598;-0.24899697;9.844957;0.6703765
09:35:51:598;-0.24899697;9.844957;0.6703765
09:35:51:598;-0.24899697;9.844957;0.6703765
09:35:51:598;-0.24899697;9.844957;0.6703765
09:35:51:598;-0.24899697;9.844957;0.6703765
09:35:51:598;-0.24899697;9.844957;0.6703765
09:35:51:716;-0.15322891;10.036493;0.61291564
09:35:51:716;-0.15322891;10.036493;0.61291564
09:35:51:716;-0.15322891;10.036493;0.61291564
09:35:51:716;-0.15322891;10.036493;0.61291564
09:35:51:716;-0.15322891;10.036493;0.61291564
09:35:51:716;-0.15322891;10.036493;0.61291564
09:35:51:716;-0.15322891;10.036493;0.61291564
09:35:51:716;-0.15322891;10.036493;0.61291564
09:35:51:716;-0.15322891;10.036493;0.61291564
09:35:51:716;-0.15322891;10.036493;0.61291564
09:35:51:716;-0.15322891;10.036493;0.61291564
09:35:51:716;-0.15322891;10.036493;0.61291564
09:35:51:716;-0.15322891;10.036493;0.61291564
09:35:51:716;-0.15322891;10.036493;0.61291564
09:35:51:716;-0.15322891;10.036493;0.61291564
09:35:51:831;-0.038307227;9.940725;0.80445176
09:35:51:831;-0.038307227;9.940725;0.80445176
09:35:51:831;-0.038307227;9.940725;0.80445176
09:35:51:831;-0.038307227;9.940725;0.80445176
09:35:51:831;-0.038307227;9.940725;0.80445176
09:35:51:831;-0.038307227;9.940725;0.80445176
09:35:51:831;-0.038307227;9.940725;0.80445176
09:35:51:831;-0.038307227;9.940725;0.80445176
09:35:51:831;-0.038307227;9.940725;0.80445176
09:35:51:831;-0.038307227;9.940725;0.80445176
09:35:51:831;-0.038307227;9.940725;0.80445176
09:35:51:831;-0.038307227;9.940725;0.80445176
09:35:51:831;-0.038307227;9.940725;0.80445176
09:35:51:936;-0.076614454;9.959879;0.80445176
09:35:51:936;-0.076614454;9.959879;0.80445176
09:35:51:936;-0.076614454;9.959879;0.80445176
09:35:51:936;-0.076614454;9.959879;0.80445176
09:35:51:936;-0.076614454;9.959879;0.80445176
09:35:51:936;-0.076614454;9.959879;0.80445176
09:35:51:936;-0.076614454;9.959879;0.80445176
09:35:51:936;-0.076614454;9.959879;0.80445176
09:35:51:936;-0.076614454;9.959879;0.80445176
09:35:51:936;-0.076614454;9.959879;0.80445176
09:35:51:936;-0.076614454;9.959879;0.80445176
09:35:51:936;-0.076614454;9.959879;0.80445176
09:35:51:936;-0.076614454;9.959879;0.80445176
09:35:52:038;-0.21068975;9.787497;0.7278373
09:35:52:038;-0.21068975;9.787497;0.7278373
09:35:52:038;-0.21068975;9.787497;0.7278373
09:35:52:038;-0.21068975;9.787497;0.7278373
09:35:52:038;-0.21068975;9.787497;0.7278373
09:35:52:038;-0.21068975;9.787497;0.7278373
09:35:52:038;-0.21068975;9.787497;0.7278373
09:35:52:038;-0.21068975;9.787497;0.7278373
09:35:52:038;-0.21068975;9.787497;0.7278373
09:35:52:038;-0.21068975;9.787497;0.7278373
09:35:52:038;-0.21068975;9.787497;0.7278373
09:35:52:038;-0.21068975;9.787497;0.7278373
09:35:52:038;-0.21068975;9.787497;0.7278373
09:35:52:038;-0.21068975;9.787497;0.7278373
09:35:52:146;-0.22984336;9.959879;0.7278373
09:35:52:146;-0.22984336;9.959879;0.7278373
09:35:52:146;-0.22984336;9.959879;0.7278373
09:35:52:146;-0.22984336;9.959879;0.7278373
09:35:52:146;-0.22984336;9.959879;0.7278373
09:35:52:146;-0.22984336;9.959879;0.7278373
09:35:52:146;-0.22984336;9.959879;0.7278373
09:35:52:146;-0.22984336;9.959879;0.7278373
09:35:52:146;-0.22984336;9.959879;0.7278373
09:35:52:146;-0.22984336;9.959879;0.7278373
09:35:52:146;-0.22984336;9.959879;0.7278373
09:35:52:146;-0.22984336;9.959879;0.7278373
09:35:52:146;-0.22984336;9.959879;0.7278373
09:35:52:249;-0.076614454;9.9790325;0.5554548
09:35:52:249;-0.076614454;9.9790325;0.5554548
09:35:52:249;-0.076614454;9.9790325;0.5554548
09:35:52:249;-0.076614454;9.9790325;0.5554548
09:35:52:249;-0.076614454;9.9790325;0.5554548
09:35:52:249;-0.076614454;9.9790325;0.5554548
09:35:52:249;-0.076614454;9.9790325;0.5554548
09:35:52:249;-0.076614454;9.9790325;0.5554548
09:35:52:249;-0.076614454;9.9790325;0.5554548
09:35:52:249;-0.076614454;9.9790325;0.5554548
09:35:52:249;-0.076614454;9.9790325;0.5554548
09:35:52:249;-0.076614454;9.9790325;0.5554548
09:35:52:249;-0.076614454;9.9790325;0.5554548
09:35:52:350;-0.19153613;9.864111;0.6895301
09:35:52:350;-0.19153613;9.864111;0.6895301
09:35:52:350;-0.19153613;9.864111;0.6895301
09:35:52:350;-0.19153613;9.864111;0.6895301
09:35:52:350;-0.19153613;9.864111;0.6895301
09:35:52:350;-0.19153613;9.864111;0.6895301
09:35:52:350;-0.19153613;9.864111;0.6895301
09:35:52:350;-0.19153613;9.864111;0.6895301
09:35:52:350;-0.19153613;9.864111;0.6895301
09:35:52:350;-0.19153613;9.864111;0.6895301
09:35:52:350;-0.19153613;9.864111;0.6895301
09:35:52:350;-0.19153613;9.864111;0.6895301
09:35:52:350;-0.19153613;9.864111;0.6895301
09:35:52:452;-0.15322891;9.844957;0.6895301
09:35:52:452;-0.15322891;9.844957;0.6895301
09:35:52:452;-0.15322891;9.844957;0.6895301
09:35:52:452;-0.15322891;9.844957;0.6895301
09:35:52:452;-0.15322891;9.844957;0.6895301
09:35:52:452;-0.15322891;9.844957;0.6895301
09:35:52:452;-0.15322891;9.844957;0.6895301
09:35:52:452;-0.15322891;9.844957;0.6895301
09:35:52:452;-0.15322891;9.844957;0.6895301
09:35:52:452;-0.15322891;9.844957;0.6895301
09:35:52:452;-0.15322891;9.844957;0.6895301
09:35:52:452;-0.15322891;9.844957;0.6895301
09:35:52:452;-0.15322891;9.844957;0.6895301
09:35:52:452;-0.15322891;9.844957;0.6895301
09:35:52:452;-0.15322891;9.844957;0.6895301
09:35:52:570;-0.24899697;9.998186;0.6703765
09:35:52:570;-0.24899697;9.998186;0.6703765
09:35:52:570;-0.24899697;9.998186;0.6703765
09:35:52:570;-0.24899697;9.998186;0.6703765
09:35:52:570;-0.24899697;9.998186;0.6703765
09:35:52:570;-0.24899697;9.998186;0.6703765
09:35:52:570;-0.24899697;9.998186;0.6703765
09:35:52:570;-0.24899697;9.998186;0.6703765
09:35:52:570;-0.24899697;9.998186;0.6703765
09:35:52:570;-0.24899697;9.998186;0.6703765
09:35:52:570;-0.24899697;9.998186;0.6703765
09:35:52:570;-0.24899697;9.998186;0.6703765
09:35:52:570;-0.24899697;9.998186;0.6703765
09:35:52:570;-0.24899697;9.998186;0.6703765
09:35:52:570;-0.24899697;9.998186;0.6703765
09:35:52:570;-0.24899697;9.998186;0.6703765
09:35:52:691;-0.19153613;9.902418;0.7278373
09:35:52:691;-0.19153613;9.902418;0.7278373
09:35:52:691;-0.19153613;9.902418;0.7278373
09:35:52:691;-0.19153613;9.902418;0.7278373
09:35:52:691;-0.19153613;9.902418;0.7278373
09:35:52:691;-0.19153613;9.902418;0.7278373
09:35:52:691;-0.19153613;9.902418;0.7278373
09:35:52:691;-0.19153613;9.902418;0.7278373
09:35:52:691;-0.19153613;9.902418;0.7278373
09:35:52:691;-0.19153613;9.902418;0.7278373
09:35:52:691;-0.19153613;9.902418;0.7278373
09:35:52:691;-0.19153613;9.902418;0.7278373
09:35:52:691;-0.19153613;9.902418;0.7278373
09:35:52:691;-0.19153613;9.902418;0.7278373
09:35:52:691;-0.19153613;9.902418;0.7278373
09:35:52:809;-0.21068975;9.9790325;0.7278373
09:35:52:809;-0.21068975;9.9790325;0.7278373
09:35:52:809;-0.21068975;9.9790325;0.7278373
09:35:52:809;-0.21068975;9.9790325;0.7278373
09:35:52:809;-0.21068975;9.9790325;0.7278373
09:35:52:809;-0.21068975;9.9790325;0.7278373
09:35:52:809;-0.21068975;9.9790325;0.7278373
09:35:52:809;-0.21068975;9.9790325;0.7278373
09:35:52:809;-0.21068975;9.9790325;0.7278373
09:35:52:809;-0.21068975;9.9790325;0.7278373
09:35:52:809;-0.21068975;9.9790325;0.7278373
09:35:52:809;-0.21068975;9.9790325;0.7278373
09:35:52:809;-0.21068975;9.9790325;0.7278373
09:35:52:912;-0.05746084;10.055647;0.7278373
09:35:52:912;-0.05746084;10.055647;0.7278373
09:35:52:912;-0.05746084;10.055647;0.7278373
09:35:52:912;-0.05746084;10.055647;0.7278373
09:35:52:912;-0.05746084;10.055647;0.7278373
09:35:52:912;-0.05746084;10.055647;0.7278373
09:35:52:912;-0.05746084;10.055647;0.7278373
09:35:52:912;-0.05746084;10.055647;0.7278373
09:35:52:912;-0.05746084;10.055647;0.7278373
09:35:52:912;-0.05746084;10.055647;0.7278373
09:35:52:912;-0.05746084;10.055647;0.7278373
09:35:52:912;-0.05746084;10.055647;0.7278373
09:35:52:912;-0.05746084;10.055647;0.7278373
09:35:52:912;-0.05746084;10.055647;0.7278373
09:35:53:017;-0.076614454;9.959879;0.6512229
09:35:53:017;-0.076614454;9.959879;0.6512229
09:35:53:017;-0.076614454;9.959879;0.6512229
09:35:53:017;-0.076614454;9.959879;0.6512229
09:35:53:017;-0.076614454;9.959879;0.6512229
09:35:53:017;-0.076614454;9.959879;0.6512229
09:35:53:017;-0.076614454;9.959879;0.6512229
09:35:53:017;-0.076614454;9.959879;0.6512229
09:35:53:017;-0.076614454;9.959879;0.6512229
09:35:53:017;-0.076614454;9.959879;0.6512229
09:35:53:017;-0.076614454;9.959879;0.6512229
09:35:53:017;-0.076614454;9.959879;0.6512229
09:35:53:017;-0.076614454;9.959879;0.6512229
09:35:53:017;-0.076614454;9.959879;0.6512229
09:35:53:017;-0.076614454;9.959879;0.6512229
09:35:53:135;-0.05746084;9.9790325;0.59376204
09:35:53:135;-0.05746084;9.9790325;0.59376204
09:35:53:135;-0.05746084;9.9790325;0.59376204
09:35:53:135;-0.05746084;9.9790325;0.59376204
09:35:53:135;-0.05746084;9.9790325;0.59376204
09:35:53:135;-0.05746084;9.9790325;0.59376204
09:35:53:135;-0.05746084;9.9790325;0.59376204
09:35:53:135;-0.05746084;9.9790325;0.59376204
09:35:53:135;-0.05746084;9.9790325;0.59376204
09:35:53:135;-0.05746084;9.9790325;0.59376204
09:35:53:135;-0.05746084;9.9790325;0.59376204
09:35:53:135;-0.05746084;9.9790325;0.59376204
09:35:53:135;-0.05746084;9.9790325;0.59376204
09:35:53:238;-0.19153613;9.921572;0.61291564
09:35:53:238;-0.19153613;9.921572;0.61291564
09:35:53:238;-0.19153613;9.921572;0.61291564
09:35:53:238;-0.19153613;9.921572;0.61291564
09:35:53:238;-0.19153613;9.921572;0.61291564
09:35:53:238;-0.19153613;9.921572;0.61291564
09:35:53:238;-0.19153613;9.921572;0.61291564
09:35:53:238;-0.19153613;9.921572;0.61291564
09:35:53:238;-0.19153613;9.921572;0.61291564
09:35:53:238;-0.19153613;9.921572;0.61291564
09:35:53:238;-0.19153613;9.921572;0.61291564
09:35:53:238;-0.19153613;9.921572;0.61291564
09:35:53:238;-0.19153613;9.921572;0.61291564
09:35:53:339;-0.11492168;9.883265;0.63206923
09:35:53:339;-0.11492168;9.883265;0.63206923
09:35:53:339;-0.11492168;9.883265;0.63206923
09:35:53:339;-0.11492168;9.883265;0.63206923
09:35:53:339;-0.11492168;9.883265;0.63206923
09:35:53:339;-0.11492168;9.883265;0.63206923
09:35:53:339;-0.11492168;9.883265;0.63206923
09:35:53:339;-0.11492168;9.883265;0.63206923
09:35:53:339;-0.11492168;9.883265;0.63206923
09:35:53:339;-0.11492168;9.883265;0.63206923
09:35:53:339;-0.11492168;9.883265;0.63206923
09:35:53:339;-0.11492168;9.883265;0.63206923
09:35:53:339;-0.11492168;9.883265;0.63206923
09:35:53:339;-0.11492168;9.883265;0.63206923
09:35:53:453;-0.019153614;9.864111;0.7661445
09:35:53:453;-0.019153614;9.864111;0.7661445
09:35:53:453;-0.019153614;9.864111;0.7661445
09:35:53:453;-0.019153614;9.864111;0.7661445
09:35:53:453;-0.019153614;9.864111;0.7661445
09:35:53:453;-0.019153614;9.864111;0.7661445
09:35:53:453;-0.019153614;9.864111;0.7661445
09:35:53:453;-0.019153614;9.864111;0.7661445
09:35:53:453;-0.019153614;9.864111;0.7661445
09:35:53:453;-0.019153614;9.864111;0.7661445
09:35:53:453;-0.019153614;9.864111;0.7661445
09:35:53:453;-0.019153614;9.864111;0.7661445
09:35:53:453;-0.019153614;9.864111;0.7661445
09:35:53:453;-0.019153614;9.864111;0.7661445
09:35:53:453;-0.019153614;9.864111;0.7661445
09:35:53:453;-0.019153614;9.864111;0.7661445
09:35:53:573;-0.17238252;9.844957;0.82360536
09:35:53:573;-0.17238252;9.844957;0.82360536
09:35:53:573;-0.17238252;9.844957;0.82360536
09:35:53:573;-0.17238252;9.844957;0.82360536
09:35:53:573;-0.17238252;9.844957;0.82360536
09:35:53:573;-0.17238252;9.844957;0.82360536
09:35:53:573;-0.17238252;9.844957;0.82360536
09:35:53:573;-0.17238252;9.844957;0.82360536
09:35:53:573;-0.17238252;9.844957;0.82360536
09:35:53:573;-0.17238252;9.844957;0.82360536
09:35:53:573;-0.17238252;9.844957;0.82360536
09:35:53:573;-0.17238252;9.844957;0.82360536
09:35:53:573;-0.17238252;9.844957;0.82360536
09:35:53:573;-0.17238252;9.844957;0.82360536
09:35:53:573;-0.17238252;9.844957;0.82360536
09:35:53:691;-0.095768064;9.921572;0.63206923
09:35:53:691;-0.095768064;9.921572;0.63206923
09:35:53:691;-0.095768064;9.921572;0.63206923
09:35:53:691;-0.095768064;9.921572;0.63206923
09:35:53:691;-0.095768064;9.921572;0.63206923
09:35:53:691;-0.095768064;9.921572;0.63206923
09:35:53:691;-0.095768064;9.921572;0.63206923
09:35:53:691;-0.095768064;9.921572;0.63206923
09:35:53:691;-0.095768064;9.921572;0.63206923
09:35:53:691;-0.095768064;9.921572;0.63206923
09:35:53:691;-0.095768064;9.921572;0.63206923
09:35:53:691;-0.095768064;9.921572;0.63206923
09:35:53:691;-0.095768064;9.921572;0.63206923
09:35:53:691;-0.095768064;9.921572;0.63206923
09:35:53:691;-0.095768064;9.921572;0.63206923
09:35:53:810;-0.095768064;9.998186;0.6703765
09:35:53:810;-0.095768064;9.998186;0.6703765
09:35:53:810;-0.095768064;9.998186;0.6703765
09:35:53:810;-0.095768064;9.998186;0.6703765
09:35:53:810;-0.095768064;9.998186;0.6703765
09:35:53:810;-0.095768064;9.998186;0.6703765
09:35:53:810;-0.095768064;9.998186;0.6703765
09:35:53:810;-0.095768064;9.998186;0.6703765
09:35:53:810;-0.095768064;9.998186;0.6703765
09:35:53:810;-0.095768064;9.998186;0.6703765
09:35:53:810;-0.095768064;9.998186;0.6703765
09:35:53:810;-0.095768064;9.998186;0.6703765
09:35:53:810;-0.095768064;9.998186;0.6703765
09:35:53:810;-0.095768064;9.998186;0.6703765
09:35:53:810;-0.095768064;9.998186;0.6703765
09:35:53:928;-0.076614454;9.864111;0.63206923
09:35:53:928;-0.076614454;9.864111;0.63206923
09:35:53:928;-0.076614454;9.864111;0.63206923
09:35:53:928;-0.076614454;9.864111;0.63206923
09:35:53:928;-0.076614454;9.864111;0.63206923
09:35:53:928;-0.076614454;9.864111;0.63206923
09:35:53:928;-0.076614454;9.864111;0.63206923
09:35:53:928;-0.076614454;9.864111;0.63206923
09:35:53:928;-0.076614454;9.864111;0.63206923
09:35:53:928;-0.076614454;9.864111;0.63206923
09:35:53:928;-0.076614454;9.864111;0.63206923
09:35:53:928;-0.076614454;9.864111;0.63206923
09:35:53:928;-0.076614454;9.864111;0.63206923
09:35:53:928;-0.076614454;9.864111;0.63206923
09:35:53:928;-0.076614454;9.864111;0.63206923
09:35:53:928;-0.076614454;9.864111;0.63206923
09:35:54:048;-0.24899697;9.921572;0.47884035
09:35:54:048;-0.24899697;9.921572;0.47884035
09:35:54:048;-0.24899697;9.921572;0.47884035
09:35:54:048;-0.24899697;9.921572;0.47884035
09:35:54:048;-0.24899697;9.921572;0.47884035
09:35:54:048;-0.24899697;9.921572;0.47884035
09:35:54:048;-0.24899697;9.921572;0.47884035
09:35:54:048;-0.24899697;9.921572;0.47884035
09:35:54:048;-0.24899697;9.921572;0.47884035
09:35:54:048;-0.24899697;9.921572;0.47884035
09:35:54:048;-0.24899697;9.921572;0.47884035
09:35:54:048;-0.24899697;9.921572;0.47884035
09:35:54:048;-0.24899697;9.921572;0.47884035
09:35:54:150;-0.17238252;9.9790325;0.61291564
09:35:54:150;-0.17238252;9.9790325;0.61291564
09:35:54:150;-0.17238252;9.9790325;0.61291564
09:35:54:150;-0.17238252;9.9790325;0.61291564
09:35:54:150;-0.17238252;9.9790325;0.61291564
09:35:54:150;-0.17238252;9.9790325;0.61291564
09:35:54:150;-0.17238252;9.9790325;0.61291564
09:35:54:150;-0.17238252;9.9790325;0.61291564
09:35:54:150;-0.17238252;9.9790325;0.61291564
09:35:54:150;-0.17238252;9.9790325;0.61291564
09:35:54:150;-0.17238252;9.9790325;0.61291564
09:35:54:150;-0.17238252;9.9790325;0.61291564
09:35:54:150;-0.17238252;9.9790325;0.61291564
09:35:54:251;-0.19153613;10.01734;0.7469909
09:35:54:251;-0.19153613;10.01734;0.7469909
09:35:54:251;-0.19153613;10.01734;0.7469909
09:35:54:251;-0.19153613;10.01734;0.7469909
09:35:54:251;-0.19153613;10.01734;0.7469909
09:35:54:251;-0.19153613;10.01734;0.7469909
09:35:54:251;-0.19153613;10.01734;0.7469909
09:35:54:251;-0.19153613;10.01734;0.7469909
09:35:54:251;-0.19153613;10.01734;0.7469909
09:35:54:251;-0.19153613;10.01734;0.7469909
09:35:54:251;-0.19153613;10.01734;0.7469909
09:35:54:251;-0.19153613;10.01734;0.7469909
09:35:54:251;-0.19153613;10.01734;0.7469909
09:35:54:251;-0.19153613;10.01734;0.7469909
09:35:54:251;-0.19153613;10.01734;0.7469909
09:35:54:368;-0.1340753;9.940725;0.59376204
09:35:54:368;-0.1340753;9.940725;0.59376204
09:35:54:368;-0.1340753;9.940725;0.59376204
09:35:54:368;-0.1340753;9.940725;0.59376204
09:35:54:368;-0.1340753;9.940725;0.59376204
09:35:54:368;-0.1340753;9.940725;0.59376204
09:35:54:368;-0.1340753;9.940725;0.59376204
09:35:54:368;-0.1340753;9.940725;0.59376204
09:35:54:368;-0.1340753;9.940725;0.59376204
09:35:54:368;-0.1340753;9.940725;0.59376204
09:35:54:368;-0.1340753;9.940725;0.59376204
09:35:54:368;-0.1340753;9.940725;0.59376204
09:35:54:368;-0.1340753;9.940725;0.59376204
09:35:54:368;-0.1340753;9.940725;0.59376204
09:35:54:368;-0.1340753;9.940725;0.59376204
09:35:54:487;0.019153614;9.921572;0.5363012
09:35:54:487;0.019153614;9.921572;0.5363012
09:35:54:487;0.019153614;9.921572;0.5363012
09:35:54:487;0.019153614;9.921572;0.5363012
09:35:54:487;0.019153614;9.921572;0.5363012
09:35:54:487;0.019153614;9.921572;0.5363012
09:35:54:487;0.019153614;9.921572;0.5363012
09:35:54:487;0.019153614;9.921572;0.5363012
09:35:54:487;0.019153614;9.921572;0.5363012
09:35:54:487;0.019153614;9.921572;0.5363012
09:35:54:487;0.019153614;9.921572;0.5363012
09:35:54:487;0.019153614;9.921572;0.5363012
09:35:54:487;0.019153614;9.921572;0.5363012
09:35:54:487;0.019153614;9.921572;0.5363012
09:35:54:601;-0.21068975;9.998186;0.7469909
09:35:54:601;-0.21068975;9.998186;0.7469909
09:35:54:601;-0.21068975;9.998186;0.7469909
09:35:54:601;-0.21068975;9.998186;0.7469909
09:35:54:601;-0.21068975;9.998186;0.7469909
09:35:54:601;-0.21068975;9.998186;0.7469909
09:35:54:601;-0.21068975;9.998186;0.7469909
09:35:54:601;-0.21068975;9.998186;0.7469909
09:35:54:601;-0.21068975;9.998186;0.7469909
09:35:54:601;-0.21068975;9.998186;0.7469909
09:35:54:601;-0.21068975;9.998186;0.7469909
09:35:54:601;-0.21068975;9.998186;0.7469909
09:35:54:601;-0.21068975;9.998186;0.7469909
09:35:54:601;-0.21068975;9.998186;0.7469909
09:35:54:601;-0.21068975;9.998186;0.7469909
09:35:54:601;-0.21068975;9.998186;0.7469909
09:35:54:719;-0.21068975;9.844957;0.6703765
09:35:54:719;-0.21068975;9.844957;0.6703765
09:35:54:719;-0.21068975;9.844957;0.6703765
09:35:54:719;-0.21068975;9.844957;0.6703765
09:35:54:719;-0.21068975;9.844957;0.6703765
09:35:54:719;-0.21068975;9.844957;0.6703765
09:35:54:719;-0.21068975;9.844957;0.6703765
09:35:54:719;-0.21068975;9.844957;0.6703765
09:35:54:719;-0.21068975;9.844957;0.6703765
09:35:54:719;-0.21068975;9.844957;0.6703765
09:35:54:719;-0.21068975;9.844957;0.6703765
09:35:54:719;-0.21068975;9.844957;0.6703765
09:35:54:719;-0.21068975;9.844957;0.6703765
09:35:54:821;-0.15322891;9.80665;0.51714754
09:35:54:821;-0.15322891;9.80665;0.51714754
09:35:54:821;-0.15322891;9.80665;0.51714754
09:35:54:821;-0.15322891;9.80665;0.51714754
09:35:54:821;-0.15322891;9.80665;0.51714754
09:35:54:821;-0.15322891;9.80665;0.51714754
09:35:54:821;-0.15322891;9.80665;0.51714754
09:35:54:821;-0.15322891;9.80665;0.51714754
09:35:54:821;-0.15322891;9.80665;0.51714754
09:35:54:821;-0.15322891;9.80665;0.51714754
09:35:54:821;-0.15322891;9.80665;0.51714754
09:35:54:821;-0.15322891;9.80665;0.51714754
09:35:54:821;-0.15322891;9.80665;0.51714754
09:35:54:821;-0.15322891;9.80665;0.51714754
09:35:54:821;-0.15322891;9.80665;0.51714754
