Time_Accel;AccelX;AccelY;AccelZ
10:32:51:370;0.038307227;9.500193;0.51714754
10:32:51:370;0.038307227;9.500193;0.51714754
10:32:51:370;0.038307227;9.500193;0.51714754
10:32:51:370;0.038307227;9.500193;0.51714754
10:32:51:370;0.038307227;9.500193;0.51714754
10:32:51:370;0.038307227;9.500193;0.51714754
10:32:51:370;0.038307227;9.500193;0.51714754
10:32:51:475;-0.05746084;10.228029;-0.15322891
10:32:51:475;-0.05746084;10.228029;-0.15322891
10:32:51:475;-0.05746084;10.228029;-0.15322891
10:32:51:475;-0.05746084;10.228029;-0.15322891
10:32:51:475;-0.05746084;10.228029;-0.15322891
10:32:51:475;-0.05746084;10.228029;-0.15322891
10:32:51:475;-0.05746084;10.228029;-0.15322891
10:32:51:475;-0.05746084;10.228029;-0.15322891
10:32:51:475;-0.05746084;10.228029;-0.15322891
10:32:51:475;-0.05746084;10.228029;-0.15322891
10:32:51:475;-0.05746084;10.228029;-0.15322891
10:32:51:475;-0.05746084;10.228029;-0.15322891
10:32:51:475;-0.05746084;10.228029;-0.15322891
10:32:51:475;-0.05746084;10.228029;-0.15322891
10:32:51:475;-0.05746084;10.228029;-0.15322891
10:32:51:593;-0.5363012;10.764331;0.40222588
10:32:51:593;-0.5363012;10.764331;0.40222588
10:32:51:593;-0.5363012;10.764331;0.40222588
10:32:51:593;-0.5363012;10.764331;0.40222588
10:32:51:593;-0.5363012;10.764331;0.40222588
10:32:51:593;-0.5363012;10.764331;0.40222588
10:32:51:593;-0.5363012;10.764331;0.40222588
10:32:51:593;-0.5363012;10.764331;0.40222588
10:32:51:593;-0.5363012;10.764331;0.40222588
10:32:51:593;-0.5363012;10.764331;0.40222588
10:32:51:593;-0.5363012;10.764331;0.40222588
10:32:51:593;-0.5363012;10.764331;0.40222588
10:32:51:593;-0.5363012;10.764331;0.40222588
10:32:51:593;-0.5363012;10.764331;0.40222588
10:32:51:696;0.019153614;10.936713;0.21068975
10:32:51:696;0.019153614;10.936713;0.21068975
10:32:51:696;0.019153614;10.936713;0.21068975
10:32:51:696;0.019153614;10.936713;0.21068975
10:32:51:696;0.019153614;10.936713;0.21068975
10:32:51:696;0.019153614;10.936713;0.21068975
10:32:51:696;0.019153614;10.936713;0.21068975
10:32:51:696;0.019153614;10.936713;0.21068975
10:32:51:696;0.019153614;10.936713;0.21068975
10:32:51:696;0.019153614;10.936713;0.21068975
10:32:51:696;0.019153614;10.936713;0.21068975
10:32:51:696;0.019153614;10.936713;0.21068975
10:32:51:696;0.019153614;10.936713;0.21068975
10:32:51:696;0.019153614;10.936713;0.21068975
10:32:51:696;0.019153614;10.936713;0.21068975
10:32:51:813;0.17238252;10.036493;0.63206923
10:32:51:813;0.17238252;10.036493;0.63206923
10:32:51:813;0.17238252;10.036493;0.63206923
10:32:51:813;0.17238252;10.036493;0.63206923
10:32:51:813;0.17238252;10.036493;0.63206923
10:32:51:813;0.17238252;10.036493;0.63206923
10:32:51:813;0.17238252;10.036493;0.63206923
10:32:51:813;0.17238252;10.036493;0.63206923
10:32:51:813;0.17238252;10.036493;0.63206923
10:32:51:813;0.17238252;10.036493;0.63206923
10:32:51:813;0.17238252;10.036493;0.63206923
10:32:51:813;0.17238252;10.036493;0.63206923
10:32:51:813;0.17238252;10.036493;0.63206923
10:32:51:916;-0.19153613;9.423578;0.90021986
10:32:51:916;-0.19153613;9.423578;0.90021986
10:32:51:916;-0.19153613;9.423578;0.90021986
10:32:51:916;-0.19153613;9.423578;0.90021986
10:32:51:916;-0.19153613;9.423578;0.90021986
10:32:51:916;-0.19153613;9.423578;0.90021986
10:32:51:916;-0.19153613;9.423578;0.90021986
10:32:51:916;-0.19153613;9.423578;0.90021986
10:32:51:916;-0.19153613;9.423578;0.90021986
10:32:51:916;-0.19153613;9.423578;0.90021986
10:32:51:916;-0.19153613;9.423578;0.90021986
10:32:51:916;-0.19153613;9.423578;0.90021986
10:32:51:916;-0.19153613;9.423578;0.90021986
10:32:51:916;-0.19153613;9.423578;0.90021986
10:32:51:916;-0.19153613;9.423578;0.90021986
10:32:52:033;-1.1683705;9.308656;0.17238252
10:32:52:033;-1.1683705;9.308656;0.17238252
10:32:52:033;-1.1683705;9.308656;0.17238252
10:32:52:033;-1.1683705;9.308656;0.17238252
10:32:52:033;-1.1683705;9.308656;0.17238252
10:32:52:033;-1.1683705;9.308656;0.17238252
10:32:52:033;-1.1683705;9.308656;0.17238252
10:32:52:033;-1.1683705;9.308656;0.17238252
10:32:52:033;-1.1683705;9.308656;0.17238252
10:32:52:033;-1.1683705;9.308656;0.17238252
10:32:52:033;-1.1683705;9.308656;0.17238252
10:32:52:033;-1.1683705;9.308656;0.17238252
10:32:52:033;-1.1683705;9.308656;0.17238252
10:32:52:033;-1.1683705;9.308656;0.17238252
10:32:52:033;-1.1683705;9.308656;0.17238252
10:32:52:151;-1.340753;7.52737;1.6472107
10:32:52:151;-1.340753;7.52737;1.6472107
10:32:52:151;-1.340753;7.52737;1.6472107
10:32:52:151;-1.340753;7.52737;1.6472107
10:32:52:151;-1.340753;7.52737;1.6472107
10:32:52:151;-1.340753;7.52737;1.6472107
10:32:52:151;-1.340753;7.52737;1.6472107
10:32:52:151;-1.340753;7.52737;1.6472107
10:32:52:151;-1.340753;7.52737;1.6472107
10:32:52:151;-1.340753;7.52737;1.6472107
10:32:52:151;-1.340753;7.52737;1.6472107
10:32:52:151;-1.340753;7.52737;1.6472107
10:32:52:151;-1.340753;7.52737;1.6472107
10:32:52:151;-1.340753;7.52737;1.6472107
10:32:52:151;-1.340753;7.52737;1.6472107
10:32:52:268;0.24899697;7.9870567;0.7661445
10:32:52:268;0.24899697;7.9870567;0.7661445
10:32:52:268;0.24899697;7.9870567;0.7661445
10:32:52:268;0.24899697;7.9870567;0.7661445
10:32:52:268;0.24899697;7.9870567;0.7661445
10:32:52:268;0.24899697;7.9870567;0.7661445
10:32:52:268;0.24899697;7.9870567;0.7661445
10:32:52:268;0.24899697;7.9870567;0.7661445
10:32:52:268;0.24899697;7.9870567;0.7661445
10:32:52:268;0.24899697;7.9870567;0.7661445
10:32:52:268;0.24899697;7.9870567;0.7661445
10:32:52:268;0.24899697;7.9870567;0.7661445
10:32:52:268;0.24899697;7.9870567;0.7661445
10:32:52:373;-0.5746084;8.772355;0.93852705
10:32:52:373;-0.5746084;8.772355;0.93852705
10:32:52:373;-0.5746084;8.772355;0.93852705
10:32:52:373;-0.5746084;8.772355;0.93852705
10:32:52:373;-0.5746084;8.772355;0.93852705
10:32:52:373;-0.5746084;8.772355;0.93852705
10:32:52:373;-0.5746084;8.772355;0.93852705
10:32:52:373;-0.5746084;8.772355;0.93852705
10:32:52:373;-0.5746084;8.772355;0.93852705
10:32:52:373;-0.5746084;8.772355;0.93852705
10:32:52:373;-0.5746084;8.772355;0.93852705
10:32:52:373;-0.5746084;8.772355;0.93852705
10:32:52:373;-0.5746084;8.772355;0.93852705
10:32:52:373;-0.5746084;8.772355;0.93852705
10:32:52:373;-0.5746084;8.772355;0.93852705
10:32:52:373;-0.5746084;8.772355;0.93852705
10:32:52:493;-1.0726024;9.883265;0.6512229
10:32:52:493;-1.0726024;9.883265;0.6512229
10:32:52:493;-1.0726024;9.883265;0.6512229
10:32:52:493;-1.0726024;9.883265;0.6512229
10:32:52:493;-1.0726024;9.883265;0.6512229
10:32:52:493;-1.0726024;9.883265;0.6512229
10:32:52:493;-1.0726024;9.883265;0.6512229
10:32:52:493;-1.0726024;9.883265;0.6512229
10:32:52:493;-1.0726024;9.883265;0.6512229
10:32:52:493;-1.0726024;9.883265;0.6512229
10:32:52:493;-1.0726024;9.883265;0.6512229
10:32:52:493;-1.0726024;9.883265;0.6512229
10:32:52:493;-1.0726024;9.883265;0.6512229
10:32:52:493;-1.0726024;9.883265;0.6512229
10:32:52:493;-1.0726024;9.883265;0.6512229
10:32:52:610;-1.3599066;10.381259;-0.59376204
10:32:52:610;-1.3599066;10.381259;-0.59376204
10:32:52:610;-1.3599066;10.381259;-0.59376204
10:32:52:610;-1.3599066;10.381259;-0.59376204
10:32:52:610;-1.3599066;10.381259;-0.59376204
10:32:52:610;-1.3599066;10.381259;-0.59376204
10:32:52:610;-1.3599066;10.381259;-0.59376204
10:32:52:610;-1.3599066;10.381259;-0.59376204
10:32:52:610;-1.3599066;10.381259;-0.59376204
10:32:52:610;-1.3599066;10.381259;-0.59376204
10:32:52:610;-1.3599066;10.381259;-0.59376204
10:32:52:610;-1.3599066;10.381259;-0.59376204
10:32:52:610;-1.3599066;10.381259;-0.59376204
10:32:52:711;-1.5705963;9.576807;-0.38307226
10:32:52:711;-1.5705963;9.576807;-0.38307226
10:32:52:711;-1.5705963;9.576807;-0.38307226
10:32:52:711;-1.5705963;9.576807;-0.38307226
10:32:52:711;-1.5705963;9.576807;-0.38307226
10:32:52:711;-1.5705963;9.576807;-0.38307226
10:32:52:711;-1.5705963;9.576807;-0.38307226
10:32:52:711;-1.5705963;9.576807;-0.38307226
10:32:52:711;-1.5705963;9.576807;-0.38307226
10:32:52:711;-1.5705963;9.576807;-0.38307226
10:32:52:711;-1.5705963;9.576807;-0.38307226
10:32:52:711;-1.5705963;9.576807;-0.38307226
10:32:52:711;-1.5705963;9.576807;-0.38307226
10:32:52:711;-1.5705963;9.576807;-0.38307226
10:32:52:822;-1.4173675;10.515334;-1.0151415
10:32:52:822;-1.4173675;10.515334;-1.0151415
10:32:52:822;-1.4173675;10.515334;-1.0151415
10:32:52:822;-1.4173675;10.515334;-1.0151415
10:32:52:822;-1.4173675;10.515334;-1.0151415
10:32:52:822;-1.4173675;10.515334;-1.0151415
10:32:52:822;-1.4173675;10.515334;-1.0151415
10:32:52:822;-1.4173675;10.515334;-1.0151415
10:32:52:822;-1.4173675;10.515334;-1.0151415
10:32:52:822;-1.4173675;10.515334;-1.0151415
10:32:52:822;-1.4173675;10.515334;-1.0151415
10:32:52:822;-1.4173675;10.515334;-1.0151415
10:32:52:822;-1.4173675;10.515334;-1.0151415
10:32:52:928;-1.4939818;9.634268;-0.095768064
10:32:52:928;-1.4939818;9.634268;-0.095768064
10:32:52:928;-1.4939818;9.634268;-0.095768064
10:32:52:928;-1.4939818;9.634268;-0.095768064
10:32:52:928;-1.4939818;9.634268;-0.095768064
10:32:52:928;-1.4939818;9.634268;-0.095768064
10:32:52:928;-1.4939818;9.634268;-0.095768064
10:32:52:928;-1.4939818;9.634268;-0.095768064
10:32:52:928;-1.4939818;9.634268;-0.095768064
10:32:52:928;-1.4939818;9.634268;-0.095768064
10:32:52:928;-1.4939818;9.634268;-0.095768064
10:32:52:928;-1.4939818;9.634268;-0.095768064
10:32:52:928;-1.4939818;9.634268;-0.095768064
10:32:52:928;-1.4939818;9.634268;-0.095768064
10:32:52:928;-1.4939818;9.634268;-0.095768064
10:32:52:928;-1.4939818;9.634268;-0.095768064
10:32:53:048;-0.7469909;10.247183;-0.8619126
10:32:53:048;-0.7469909;10.247183;-0.8619126
10:32:53:048;-0.7469909;10.247183;-0.8619126
10:32:53:048;-0.7469909;10.247183;-0.8619126
10:32:53:048;-0.7469909;10.247183;-0.8619126
10:32:53:048;-0.7469909;10.247183;-0.8619126
10:32:53:048;-0.7469909;10.247183;-0.8619126
10:32:53:048;-0.7469909;10.247183;-0.8619126
10:32:53:048;-0.7469909;10.247183;-0.8619126
10:32:53:048;-0.7469909;10.247183;-0.8619126
10:32:53:048;-0.7469909;10.247183;-0.8619126
10:32:53:048;-0.7469909;10.247183;-0.8619126
10:32:53:048;-0.7469909;10.247183;-0.8619126
10:32:53:048;-0.7469909;10.247183;-0.8619126
10:32:53:048;-0.7469909;10.247183;-0.8619126
10:32:53:048;-0.7469909;10.247183;-0.8619126
10:32:53:172;-1.1300632;10.208876;-0.36391866
10:32:53:172;-1.1300632;10.208876;-0.36391866
10:32:53:172;-1.1300632;10.208876;-0.36391866
10:32:53:172;-1.1300632;10.208876;-0.36391866
10:32:53:172;-1.1300632;10.208876;-0.36391866
10:32:53:172;-1.1300632;10.208876;-0.36391866
10:32:53:172;-1.1300632;10.208876;-0.36391866
10:32:53:172;-1.1300632;10.208876;-0.36391866
10:32:53:172;-1.1300632;10.208876;-0.36391866
10:32:53:172;-1.1300632;10.208876;-0.36391866
10:32:53:172;-1.1300632;10.208876;-0.36391866
10:32:53:172;-1.1300632;10.208876;-0.36391866
10:32:53:172;-1.1300632;10.208876;-0.36391866
10:32:53:172;-1.1300632;10.208876;-0.36391866
10:32:53:287;-0.9959879;9.557653;0.40222588
10:32:53:287;-0.9959879;9.557653;0.40222588
10:32:53:287;-0.9959879;9.557653;0.40222588
10:32:53:287;-0.9959879;9.557653;0.40222588
10:32:53:287;-0.9959879;9.557653;0.40222588
10:32:53:287;-0.9959879;9.557653;0.40222588
10:32:53:287;-0.9959879;9.557653;0.40222588
10:32:53:287;-0.9959879;9.557653;0.40222588
10:32:53:287;-0.9959879;9.557653;0.40222588
10:32:53:287;-0.9959879;9.557653;0.40222588
10:32:53:287;-0.9959879;9.557653;0.40222588
10:32:53:287;-0.9959879;9.557653;0.40222588
10:32:53:287;-0.9959879;9.557653;0.40222588
10:32:53:287;-0.9959879;9.557653;0.40222588
10:32:53:391;-0.78529817;9.557653;-0.90021986
10:32:53:391;-0.78529817;9.557653;-0.90021986
10:32:53:391;-0.78529817;9.557653;-0.90021986
10:32:53:391;-0.78529817;9.557653;-0.90021986
10:32:53:391;-0.78529817;9.557653;-0.90021986
10:32:53:391;-0.78529817;9.557653;-0.90021986
10:32:53:391;-0.78529817;9.557653;-0.90021986
10:32:53:391;-0.78529817;9.557653;-0.90021986
10:32:53:391;-0.78529817;9.557653;-0.90021986
10:32:53:391;-0.78529817;9.557653;-0.90021986
10:32:53:391;-0.78529817;9.557653;-0.90021986
10:32:53:391;-0.78529817;9.557653;-0.90021986
10:32:53:391;-0.78529817;9.557653;-0.90021986
10:32:53:494;-0.47884035;9.289502;-0.51714754
10:32:53:494;-0.47884035;9.289502;-0.51714754
10:32:53:494;-0.47884035;9.289502;-0.51714754
10:32:53:494;-0.47884035;9.289502;-0.51714754
10:32:53:494;-0.47884035;9.289502;-0.51714754
10:32:53:494;-0.47884035;9.289502;-0.51714754
10:32:53:494;-0.47884035;9.289502;-0.51714754
10:32:53:494;-0.47884035;9.289502;-0.51714754
10:32:53:494;-0.47884035;9.289502;-0.51714754
10:32:53:494;-0.47884035;9.289502;-0.51714754
10:32:53:494;-0.47884035;9.289502;-0.51714754
10:32:53:494;-0.47884035;9.289502;-0.51714754
10:32:53:494;-0.47884035;9.289502;-0.51714754
10:32:53:599;-0.61291564;10.0748005;-1.2066777
10:32:53:599;-0.61291564;10.0748005;-1.2066777
10:32:53:599;-0.61291564;10.0748005;-1.2066777
10:32:53:599;-0.61291564;10.0748005;-1.2066777
10:32:53:599;-0.61291564;10.0748005;-1.2066777
10:32:53:599;-0.61291564;10.0748005;-1.2066777
10:32:53:599;-0.61291564;10.0748005;-1.2066777
10:32:53:599;-0.61291564;10.0748005;-1.2066777
10:32:53:599;-0.61291564;10.0748005;-1.2066777
10:32:53:599;-0.61291564;10.0748005;-1.2066777
10:32:53:599;-0.61291564;10.0748005;-1.2066777
10:32:53:599;-0.61291564;10.0748005;-1.2066777
10:32:53:599;-0.61291564;10.0748005;-1.2066777
10:32:53:599;-0.61291564;10.0748005;-1.2066777
10:32:53:599;-0.61291564;10.0748005;-1.2066777
10:32:53:599;-0.61291564;10.0748005;-1.2066777
10:32:53:599;-0.61291564;10.0748005;-1.2066777
10:32:53:599;-0.61291564;10.0748005;-1.2066777
10:32:53:599;-0.61291564;10.0748005;-1.2066777
10:32:53:599;-0.61291564;10.0748005;-1.2066777
10:32:53:599;-0.61291564;10.0748005;-1.2066777
10:32:53:759;-0.78529817;9.232041;-1.0534488
10:32:53:759;-0.78529817;9.232041;-1.0534488
10:32:53:759;-0.78529817;9.232041;-1.0534488
10:32:53:759;-0.78529817;9.232041;-1.0534488
10:32:53:759;-0.78529817;9.232041;-1.0534488
10:32:53:759;-0.78529817;9.232041;-1.0534488
10:32:53:759;-0.78529817;9.232041;-1.0534488
10:32:53:759;-0.78529817;9.232041;-1.0534488
10:32:53:759;-0.78529817;9.232041;-1.0534488
10:32:53:759;-0.78529817;9.232041;-1.0534488
10:32:53:759;-0.78529817;9.232041;-1.0534488
10:32:53:759;-0.78529817;9.232041;-1.0534488
10:32:53:759;-0.78529817;9.232041;-1.0534488
10:32:53:759;-0.78529817;9.232041;-1.0534488
10:32:53:873;-0.7469909;9.940725;0.05746084
10:32:53:873;-0.7469909;9.940725;0.05746084
10:32:53:873;-0.7469909;9.940725;0.05746084
10:32:53:873;-0.7469909;9.940725;0.05746084
10:32:53:873;-0.7469909;9.940725;0.05746084
10:32:53:873;-0.7469909;9.940725;0.05746084
10:32:53:873;-0.7469909;9.940725;0.05746084
10:32:53:873;-0.7469909;9.940725;0.05746084
10:32:53:873;-0.7469909;9.940725;0.05746084
10:32:53:873;-0.7469909;9.940725;0.05746084
10:32:53:873;-0.7469909;9.940725;0.05746084
10:32:53:873;-0.7469909;9.940725;0.05746084
10:32:53:873;-0.7469909;9.940725;0.05746084
10:32:53:873;-0.7469909;9.940725;0.05746084
10:32:53:873;-0.7469909;9.940725;0.05746084
10:32:53:873;-0.7469909;9.940725;0.05746084
10:32:53:993;-0.36391866;9.634268;-0.90021986
10:32:53:993;-0.36391866;9.634268;-0.90021986
10:32:53:993;-0.36391866;9.634268;-0.90021986
10:32:53:993;-0.36391866;9.634268;-0.90021986
10:32:53:993;-0.36391866;9.634268;-0.90021986
10:32:53:993;-0.36391866;9.634268;-0.90021986
10:32:53:993;-0.36391866;9.634268;-0.90021986
10:32:53:993;-0.36391866;9.634268;-0.90021986
10:32:53:993;-0.36391866;9.634268;-0.90021986
10:32:53:993;-0.36391866;9.634268;-0.90021986
10:32:53:993;-0.36391866;9.634268;-0.90021986
10:32:53:993;-0.36391866;9.634268;-0.90021986
10:32:53:993;-0.36391866;9.634268;-0.90021986
10:32:53:993;-0.36391866;9.634268;-0.90021986
10:32:53:993;-0.36391866;9.634268;-0.90021986
10:32:54:111;-0.5746084;10.170568;-1.1492168
10:32:54:111;-0.5746084;10.170568;-1.1492168
10:32:54:111;-0.5746084;10.170568;-1.1492168
10:32:54:111;-0.5746084;10.170568;-1.1492168
10:32:54:111;-0.5746084;10.170568;-1.1492168
10:32:54:111;-0.5746084;10.170568;-1.1492168
10:32:54:111;-0.5746084;10.170568;-1.1492168
10:32:54:111;-0.5746084;10.170568;-1.1492168
10:32:54:111;-0.5746084;10.170568;-1.1492168
10:32:54:111;-0.5746084;10.170568;-1.1492168
10:32:54:111;-0.5746084;10.170568;-1.1492168
10:32:54:111;-0.5746084;10.170568;-1.1492168
10:32:54:111;-0.5746084;10.170568;-1.1492168
10:32:54:111;-0.5746084;10.170568;-1.1492168
10:32:54:111;-0.5746084;10.170568;-1.1492168
10:32:54:227;-0.7469909;9.864111;-0.7086837
10:32:54:227;-0.7469909;9.864111;-0.7086837
10:32:54:227;-0.7469909;9.864111;-0.7086837
10:32:54:227;-0.7469909;9.864111;-0.7086837
10:32:54:227;-0.7469909;9.864111;-0.7086837
10:32:54:227;-0.7469909;9.864111;-0.7086837
10:32:54:227;-0.7469909;9.864111;-0.7086837
10:32:54:227;-0.7469909;9.864111;-0.7086837
10:32:54:227;-0.7469909;9.864111;-0.7086837
10:32:54:227;-0.7469909;9.864111;-0.7086837
10:32:54:227;-0.7469909;9.864111;-0.7086837
10:32:54:227;-0.7469909;9.864111;-0.7086837
10:32:54:227;-0.7469909;9.864111;-0.7086837
10:32:54:227;-0.7469909;9.864111;-0.7086837
10:32:54:227;-0.7469909;9.864111;-0.7086837
10:32:54:227;-0.7469909;9.864111;-0.7086837
10:32:54:227;-0.7469909;9.864111;-0.7086837
10:32:54:360;-0.34476504;10.400413;-1.2258313
10:32:54:360;-0.34476504;10.400413;-1.2258313
10:32:54:360;-0.34476504;10.400413;-1.2258313
10:32:54:360;-0.34476504;10.400413;-1.2258313
10:32:54:360;-0.34476504;10.400413;-1.2258313
10:32:54:360;-0.34476504;10.400413;-1.2258313
10:32:54:360;-0.34476504;10.400413;-1.2258313
10:32:54:360;-0.34476504;10.400413;-1.2258313
10:32:54:360;-0.34476504;10.400413;-1.2258313
10:32:54:360;-0.34476504;10.400413;-1.2258313
10:32:54:360;-0.34476504;10.400413;-1.2258313
10:32:54:360;-0.34476504;10.400413;-1.2258313
10:32:54:360;-0.34476504;10.400413;-1.2258313
10:32:54:467;-0.7278373;8.829816;-0.9576807
10:32:54:467;-0.7278373;8.829816;-0.9576807
10:32:54:467;-0.7278373;8.829816;-0.9576807
10:32:54:467;-0.7278373;8.829816;-0.9576807
10:32:54:467;-0.7278373;8.829816;-0.9576807
10:32:54:467;-0.7278373;8.829816;-0.9576807
10:32:54:467;-0.7278373;8.829816;-0.9576807
10:32:54:467;-0.7278373;8.829816;-0.9576807
10:32:54:467;-0.7278373;8.829816;-0.9576807
10:32:54:467;-0.7278373;8.829816;-0.9576807
10:32:54:467;-0.7278373;8.829816;-0.9576807
10:32:54:467;-0.7278373;8.829816;-0.9576807
10:32:54:467;-0.7278373;8.829816;-0.9576807
10:32:54:467;-0.7278373;8.829816;-0.9576807
10:32:54:467;-0.7278373;8.829816;-0.9576807
10:32:54:585;-0.78529817;10.553641;-1.3024458
10:32:54:585;-0.78529817;10.553641;-1.3024458
10:32:54:585;-0.78529817;10.553641;-1.3024458
10:32:54:585;-0.78529817;10.553641;-1.3024458
10:32:54:585;-0.78529817;10.553641;-1.3024458
10:32:54:585;-0.78529817;10.553641;-1.3024458
10:32:54:585;-0.78529817;10.553641;-1.3024458
10:32:54:585;-0.78529817;10.553641;-1.3024458
10:32:54:585;-0.78529817;10.553641;-1.3024458
10:32:54:585;-0.78529817;10.553641;-1.3024458
10:32:54:585;-0.78529817;10.553641;-1.3024458
10:32:54:585;-0.78529817;10.553641;-1.3024458
10:32:54:585;-0.78529817;10.553641;-1.3024458
10:32:54:585;-0.78529817;10.553641;-1.3024458
10:32:54:585;-0.78529817;10.553641;-1.3024458
10:32:54:585;-0.78529817;10.553641;-1.3024458
10:32:54:704;-0.076614454;10.01734;-0.9959879
10:32:54:704;-0.076614454;10.01734;-0.9959879
10:32:54:704;-0.076614454;10.01734;-0.9959879
10:32:54:704;-0.076614454;10.01734;-0.9959879
10:32:54:704;-0.076614454;10.01734;-0.9959879
10:32:54:704;-0.076614454;10.01734;-0.9959879
10:32:54:704;-0.076614454;10.01734;-0.9959879
10:32:54:704;-0.076614454;10.01734;-0.9959879
10:32:54:704;-0.076614454;10.01734;-0.9959879
10:32:54:704;-0.076614454;10.01734;-0.9959879
10:32:54:704;-0.076614454;10.01734;-0.9959879
10:32:54:704;-0.076614454;10.01734;-0.9959879
10:32:54:704;-0.076614454;10.01734;-0.9959879
10:32:54:704;-0.076614454;10.01734;-0.9959879
10:32:54:704;-0.076614454;10.01734;-0.9959879
10:32:54:822;-0.82360536;9.998186;-0.6703765
10:32:54:822;-0.82360536;9.998186;-0.6703765
10:32:54:822;-0.82360536;9.998186;-0.6703765
10:32:54:822;-0.82360536;9.998186;-0.6703765
10:32:54:822;-0.82360536;9.998186;-0.6703765
10:32:54:822;-0.82360536;9.998186;-0.6703765
10:32:54:822;-0.82360536;9.998186;-0.6703765
10:32:54:822;-0.82360536;9.998186;-0.6703765
10:32:54:822;-0.82360536;9.998186;-0.6703765
10:32:54:822;-0.82360536;9.998186;-0.6703765
10:32:54:822;-0.82360536;9.998186;-0.6703765
10:32:54:822;-0.82360536;9.998186;-0.6703765
10:32:54:822;-0.82360536;9.998186;-0.6703765
10:32:54:822;-0.82360536;9.998186;-0.6703765
10:32:54:822;-0.82360536;9.998186;-0.6703765
10:32:54:822;-0.82360536;9.998186;-0.6703765
10:32:54:949;-0.038307227;10.572795;-0.6703765
10:32:54:949;-0.038307227;10.572795;-0.6703765
10:32:54:949;-0.038307227;10.572795;-0.6703765
10:32:54:949;-0.038307227;10.572795;-0.6703765
10:32:54:949;-0.038307227;10.572795;-0.6703765
10:32:54:949;-0.038307227;10.572795;-0.6703765
10:32:54:949;-0.038307227;10.572795;-0.6703765
10:32:54:949;-0.038307227;10.572795;-0.6703765
10:32:54:949;-0.038307227;10.572795;-0.6703765
10:32:54:949;-0.038307227;10.572795;-0.6703765
10:32:54:949;-0.038307227;10.572795;-0.6703765
10:32:54:949;-0.038307227;10.572795;-0.6703765
10:32:54:949;-0.038307227;10.572795;-0.6703765
10:32:54:949;-0.038307227;10.572795;-0.6703765
10:32:54:949;-0.038307227;10.572795;-0.6703765
10:32:55:064;0.34476504;9.749189;-0.8619126
10:32:55:064;0.34476504;9.749189;-0.8619126
10:32:55:064;0.34476504;9.749189;-0.8619126
10:32:55:064;0.34476504;9.749189;-0.8619126
10:32:55:064;0.34476504;9.749189;-0.8619126
10:32:55:064;0.34476504;9.749189;-0.8619126
10:32:55:064;0.34476504;9.749189;-0.8619126
10:32:55:064;0.34476504;9.749189;-0.8619126
10:32:55:064;0.34476504;9.749189;-0.8619126
10:32:55:064;0.34476504;9.749189;-0.8619126
10:32:55:064;0.34476504;9.749189;-0.8619126
10:32:55:064;0.34476504;9.749189;-0.8619126
10:32:55:064;0.34476504;9.749189;-0.8619126
10:32:55:064;0.34476504;9.749189;-0.8619126
10:32:55:064;0.34476504;9.749189;-0.8619126
10:32:55:064;0.34476504;9.749189;-0.8619126
10:32:55:064;0.34476504;9.749189;-0.8619126
10:32:55:202;0.22984336;8.772355;-0.91937345
10:32:55:202;0.22984336;8.772355;-0.91937345
10:32:55:202;0.22984336;8.772355;-0.91937345
10:32:55:202;0.22984336;8.772355;-0.91937345
10:32:55:202;0.22984336;8.772355;-0.91937345
10:32:55:202;0.22984336;8.772355;-0.91937345
10:32:55:202;0.22984336;8.772355;-0.91937345
10:32:55:202;0.22984336;8.772355;-0.91937345
10:32:55:202;0.22984336;8.772355;-0.91937345
10:32:55:202;0.22984336;8.772355;-0.91937345
10:32:55:202;0.22984336;8.772355;-0.91937345
10:32:55:202;0.22984336;8.772355;-0.91937345
10:32:55:202;0.22984336;8.772355;-0.91937345
10:32:55:202;0.22984336;8.772355;-0.91937345
10:32:55:307;-0.038307227;9.3661175;-0.095768064
10:32:55:307;-0.038307227;9.3661175;-0.095768064
10:32:55:307;-0.038307227;9.3661175;-0.095768064
10:32:55:307;-0.038307227;9.3661175;-0.095768064
10:32:55:307;-0.038307227;9.3661175;-0.095768064
10:32:55:307;-0.038307227;9.3661175;-0.095768064
10:32:55:307;-0.038307227;9.3661175;-0.095768064
10:32:55:307;-0.038307227;9.3661175;-0.095768064
10:32:55:307;-0.038307227;9.3661175;-0.095768064
10:32:55:307;-0.038307227;9.3661175;-0.095768064
10:32:55:307;-0.038307227;9.3661175;-0.095768064
10:32:55:307;-0.038307227;9.3661175;-0.095768064
10:32:55:307;-0.038307227;9.3661175;-0.095768064
10:32:55:307;-0.038307227;9.3661175;-0.095768064
10:32:55:416;0.34476504;8.619126;0.40222588
10:32:55:416;0.34476504;8.619126;0.40222588
10:32:55:416;0.34476504;8.619126;0.40222588
10:32:55:416;0.34476504;8.619126;0.40222588
10:32:55:416;0.34476504;8.619126;0.40222588
10:32:55:416;0.34476504;8.619126;0.40222588
10:32:55:416;0.34476504;8.619126;0.40222588
10:32:55:416;0.34476504;8.619126;0.40222588
10:32:55:416;0.34476504;8.619126;0.40222588
10:32:55:416;0.34476504;8.619126;0.40222588
10:32:55:416;0.34476504;8.619126;0.40222588
10:32:55:416;0.34476504;8.619126;0.40222588
10:32:55:416;0.34476504;8.619126;0.40222588
10:32:55:416;0.34476504;8.619126;0.40222588
10:32:55:524;0.80445176;8.101978;-0.15322891
10:32:55:524;0.80445176;8.101978;-0.15322891
10:32:55:524;0.80445176;8.101978;-0.15322891
10:32:55:524;0.80445176;8.101978;-0.15322891
10:32:55:524;0.80445176;8.101978;-0.15322891
10:32:55:524;0.80445176;8.101978;-0.15322891
10:32:55:524;0.80445176;8.101978;-0.15322891
10:32:55:524;0.80445176;8.101978;-0.15322891
10:32:55:524;0.80445176;8.101978;-0.15322891
10:32:55:524;0.80445176;8.101978;-0.15322891
10:32:55:524;0.80445176;8.101978;-0.15322891
10:32:55:524;0.80445176;8.101978;-0.15322891
10:32:55:524;0.80445176;8.101978;-0.15322891
10:32:55:524;0.80445176;8.101978;-0.15322891
10:32:55:524;0.80445176;8.101978;-0.15322891
10:32:55:524;0.80445176;8.101978;-0.15322891
10:32:55:654;-0.5363012;10.457873;-1.2258313
10:32:55:654;-0.5363012;10.457873;-1.2258313
10:32:55:654;-0.5363012;10.457873;-1.2258313
10:32:55:654;-0.5363012;10.457873;-1.2258313
10:32:55:654;-0.5363012;10.457873;-1.2258313
10:32:55:654;-0.5363012;10.457873;-1.2258313
10:32:55:654;-0.5363012;10.457873;-1.2258313
10:32:55:654;-0.5363012;10.457873;-1.2258313
10:32:55:654;-0.5363012;10.457873;-1.2258313
10:32:55:654;-0.5363012;10.457873;-1.2258313
10:32:55:654;-0.5363012;10.457873;-1.2258313
10:32:55:654;-0.5363012;10.457873;-1.2258313
10:32:55:654;-0.5363012;10.457873;-1.2258313
10:32:55:654;-0.5363012;10.457873;-1.2258313
10:32:55:763;0.40222588;10.208876;-1.1875241
10:32:55:763;0.40222588;10.208876;-1.1875241
10:32:55:763;0.40222588;10.208876;-1.1875241
10:32:55:763;0.40222588;10.208876;-1.1875241
10:32:55:763;0.40222588;10.208876;-1.1875241
10:32:55:763;0.40222588;10.208876;-1.1875241
10:32:55:763;0.40222588;10.208876;-1.1875241
10:32:55:763;0.40222588;10.208876;-1.1875241
10:32:55:763;0.40222588;10.208876;-1.1875241
10:32:55:763;0.40222588;10.208876;-1.1875241
10:32:55:763;0.40222588;10.208876;-1.1875241
10:32:55:763;0.40222588;10.208876;-1.1875241
10:32:55:763;0.40222588;10.208876;-1.1875241
10:32:55:763;0.40222588;10.208876;-1.1875241
10:32:55:763;0.40222588;10.208876;-1.1875241
10:32:55:881;-0.49799395;9.308656;0.095768064
10:32:55:881;-0.49799395;9.308656;0.095768064
10:32:55:881;-0.49799395;9.308656;0.095768064
10:32:55:881;-0.49799395;9.308656;0.095768064
10:32:55:881;-0.49799395;9.308656;0.095768064
10:32:55:881;-0.49799395;9.308656;0.095768064
10:32:55:881;-0.49799395;9.308656;0.095768064
10:32:55:881;-0.49799395;9.308656;0.095768064
10:32:55:881;-0.49799395;9.308656;0.095768064
10:32:55:881;-0.49799395;9.308656;0.095768064
10:32:55:881;-0.49799395;9.308656;0.095768064
10:32:55:881;-0.49799395;9.308656;0.095768064
10:32:55:881;-0.49799395;9.308656;0.095768064
10:32:55:881;-0.49799395;9.308656;0.095768064
10:32:55:881;-0.49799395;9.308656;0.095768064
10:32:55:999;0.45968673;10.228029;-1.1683705
10:32:55:999;0.45968673;10.228029;-1.1683705
10:32:55:999;0.45968673;10.228029;-1.1683705
10:32:55:999;0.45968673;10.228029;-1.1683705
10:32:55:999;0.45968673;10.228029;-1.1683705
10:32:55:999;0.45968673;10.228029;-1.1683705
10:32:55:999;0.45968673;10.228029;-1.1683705
10:32:55:999;0.45968673;10.228029;-1.1683705
10:32:55:999;0.45968673;10.228029;-1.1683705
10:32:55:999;0.45968673;10.228029;-1.1683705
10:32:55:999;0.45968673;10.228029;-1.1683705
10:32:55:999;0.45968673;10.228029;-1.1683705
10:32:55:999;0.45968673;10.228029;-1.1683705
10:32:56:101;-0.076614454;9.921572;-0.095768064
10:32:56:101;-0.076614454;9.921572;-0.095768064
10:32:56:101;-0.076614454;9.921572;-0.095768064
10:32:56:101;-0.076614454;9.921572;-0.095768064
10:32:56:101;-0.076614454;9.921572;-0.095768064
10:32:56:101;-0.076614454;9.921572;-0.095768064
10:32:56:101;-0.076614454;9.921572;-0.095768064
10:32:56:101;-0.076614454;9.921572;-0.095768064
10:32:56:101;-0.076614454;9.921572;-0.095768064
10:32:56:101;-0.076614454;9.921572;-0.095768064
10:32:56:101;-0.076614454;9.921572;-0.095768064
10:32:56:101;-0.076614454;9.921572;-0.095768064
10:32:56:101;-0.076614454;9.921572;-0.095768064
10:32:56:101;-0.076614454;9.921572;-0.095768064
10:32:56:101;-0.076614454;9.921572;-0.095768064
10:32:56:101;-0.076614454;9.921572;-0.095768064
10:32:56:101;-0.076614454;9.921572;-0.095768064
10:32:56:101;-0.076614454;9.921572;-0.095768064
10:32:56:236;-0.095768064;10.821792;-0.8810662
10:32:56:236;-0.095768064;10.821792;-0.8810662
10:32:56:236;-0.095768064;10.821792;-0.8810662
10:32:56:236;-0.095768064;10.821792;-0.8810662
10:32:56:236;-0.095768064;10.821792;-0.8810662
10:32:56:236;-0.095768064;10.821792;-0.8810662
10:32:56:236;-0.095768064;10.821792;-0.8810662
10:32:56:236;-0.095768064;10.821792;-0.8810662
10:32:56:236;-0.095768064;10.821792;-0.8810662
10:32:56:236;-0.095768064;10.821792;-0.8810662
10:32:56:236;-0.095768064;10.821792;-0.8810662
10:32:56:236;-0.095768064;10.821792;-0.8810662
10:32:56:236;-0.095768064;10.821792;-0.8810662
10:32:56:343;0.2873042;10.228029;-0.78529817
10:32:56:343;0.2873042;10.228029;-0.78529817
10:32:56:343;0.2873042;10.228029;-0.78529817
10:32:56:343;0.2873042;10.228029;-0.78529817
10:32:56:343;0.2873042;10.228029;-0.78529817
10:32:56:343;0.2873042;10.228029;-0.78529817
10:32:56:343;0.2873042;10.228029;-0.78529817
10:32:56:343;0.2873042;10.228029;-0.78529817
10:32:56:343;0.2873042;10.228029;-0.78529817
10:32:56:343;0.2873042;10.228029;-0.78529817
10:32:56:343;0.2873042;10.228029;-0.78529817
10:32:56:343;0.2873042;10.228029;-0.78529817
10:32:56:343;0.2873042;10.228029;-0.78529817
10:32:56:343;0.2873042;10.228029;-0.78529817
10:32:56:447;-0.2681506;10.534488;-1.1492168
10:32:56:447;-0.2681506;10.534488;-1.1492168
10:32:56:447;-0.2681506;10.534488;-1.1492168
10:32:56:447;-0.2681506;10.534488;-1.1492168
10:32:56:447;-0.2681506;10.534488;-1.1492168
10:32:56:447;-0.2681506;10.534488;-1.1492168
10:32:56:447;-0.2681506;10.534488;-1.1492168
10:32:56:447;-0.2681506;10.534488;-1.1492168
10:32:56:447;-0.2681506;10.534488;-1.1492168
10:32:56:447;-0.2681506;10.534488;-1.1492168
10:32:56:447;-0.2681506;10.534488;-1.1492168
10:32:56:447;-0.2681506;10.534488;-1.1492168
10:32:56:447;-0.2681506;10.534488;-1.1492168
10:32:56:447;-0.2681506;10.534488;-1.1492168
10:32:56:447;-0.2681506;10.534488;-1.1492168
10:32:56:563;0.45968673;9.710882;-0.38307226
10:32:56:563;0.45968673;9.710882;-0.38307226
10:32:56:563;0.45968673;9.710882;-0.38307226
10:32:56:563;0.45968673;9.710882;-0.38307226
10:32:56:563;0.45968673;9.710882;-0.38307226
10:32:56:563;0.45968673;9.710882;-0.38307226
10:32:56:563;0.45968673;9.710882;-0.38307226
10:32:56:563;0.45968673;9.710882;-0.38307226
10:32:56:563;0.45968673;9.710882;-0.38307226
10:32:56:563;0.45968673;9.710882;-0.38307226
10:32:56:563;0.45968673;9.710882;-0.38307226
10:32:56:563;0.45968673;9.710882;-0.38307226
10:32:56:664;0.30645782;9.615114;-0.7086837
10:32:56:664;0.30645782;9.615114;-0.7086837
10:32:56:664;0.30645782;9.615114;-0.7086837
10:32:56:664;0.30645782;9.615114;-0.7086837
10:32:56:664;0.30645782;9.615114;-0.7086837
10:32:56:664;0.30645782;9.615114;-0.7086837
10:32:56:664;0.30645782;9.615114;-0.7086837
10:32:56:664;0.30645782;9.615114;-0.7086837
10:32:56:664;0.30645782;9.615114;-0.7086837
10:32:56:664;0.30645782;9.615114;-0.7086837
10:32:56:664;0.30645782;9.615114;-0.7086837
10:32:56:664;0.30645782;9.615114;-0.7086837
10:32:56:664;0.30645782;9.615114;-0.7086837
10:32:56:664;0.30645782;9.615114;-0.7086837
10:32:56:664;0.30645782;9.615114;-0.7086837
10:32:56:664;0.30645782;9.615114;-0.7086837
10:32:56:788;-0.6703765;9.959879;-0.51714754
10:32:56:788;-0.6703765;9.959879;-0.51714754
10:32:56:788;-0.6703765;9.959879;-0.51714754
10:32:56:788;-0.6703765;9.959879;-0.51714754
10:32:56:788;-0.6703765;9.959879;-0.51714754
10:32:56:788;-0.6703765;9.959879;-0.51714754
10:32:56:788;-0.6703765;9.959879;-0.51714754
10:32:56:788;-0.6703765;9.959879;-0.51714754
10:32:56:788;-0.6703765;9.959879;-0.51714754
10:32:56:788;-0.6703765;9.959879;-0.51714754
10:32:56:788;-0.6703765;9.959879;-0.51714754
10:32:56:788;-0.6703765;9.959879;-0.51714754
10:32:56:788;-0.6703765;9.959879;-0.51714754
10:32:56:788;-0.6703765;9.959879;-0.51714754
10:32:56:788;-0.6703765;9.959879;-0.51714754
10:32:56:906;-0.6703765;10.572795;-1.2258313
10:32:56:906;-0.6703765;10.572795;-1.2258313
10:32:56:906;-0.6703765;10.572795;-1.2258313
10:32:56:906;-0.6703765;10.572795;-1.2258313
10:32:56:906;-0.6703765;10.572795;-1.2258313
10:32:56:906;-0.6703765;10.572795;-1.2258313
10:32:56:906;-0.6703765;10.572795;-1.2258313
10:32:56:906;-0.6703765;10.572795;-1.2258313
10:32:56:906;-0.6703765;10.572795;-1.2258313
10:32:56:906;-0.6703765;10.572795;-1.2258313
10:32:56:906;-0.6703765;10.572795;-1.2258313
10:32:56:906;-0.6703765;10.572795;-1.2258313
10:32:56:906;-0.6703765;10.572795;-1.2258313
10:32:56:906;-0.6703765;10.572795;-1.2258313
10:32:56:906;-0.6703765;10.572795;-1.2258313
10:32:57:017;-0.1340753;10.840945;-0.47884035
10:32:57:017;-0.1340753;10.840945;-0.47884035
10:32:57:017;-0.1340753;10.840945;-0.47884035
10:32:57:017;-0.1340753;10.840945;-0.47884035
10:32:57:017;-0.1340753;10.840945;-0.47884035
10:32:57:017;-0.1340753;10.840945;-0.47884035
10:32:57:017;-0.1340753;10.840945;-0.47884035
10:32:57:017;-0.1340753;10.840945;-0.47884035
10:32:57:017;-0.1340753;10.840945;-0.47884035
10:32:57:017;-0.1340753;10.840945;-0.47884035
10:32:57:017;-0.1340753;10.840945;-0.47884035
10:32:57:017;-0.1340753;10.840945;-0.47884035
10:32:57:017;-0.1340753;10.840945;-0.47884035
10:32:57:017;-0.1340753;10.840945;-0.47884035
10:32:57:128;-1.0726024;10.821792;-1.0342951
10:32:57:128;-1.0726024;10.821792;-1.0342951
10:32:57:128;-1.0726024;10.821792;-1.0342951
10:32:57:128;-1.0726024;10.821792;-1.0342951
10:32:57:128;-1.0726024;10.821792;-1.0342951
10:32:57:128;-1.0726024;10.821792;-1.0342951
10:32:57:128;-1.0726024;10.821792;-1.0342951
10:32:57:128;-1.0726024;10.821792;-1.0342951
10:32:57:128;-1.0726024;10.821792;-1.0342951
10:32:57:128;-1.0726024;10.821792;-1.0342951
10:32:57:128;-1.0726024;10.821792;-1.0342951
10:32:57:128;-1.0726024;10.821792;-1.0342951
10:32:57:128;-1.0726024;10.821792;-1.0342951
10:32:57:128;-1.0726024;10.821792;-1.0342951
10:32:57:128;-1.0726024;10.821792;-1.0342951
10:32:57:244;0.019153614;11.415554;-1.3790601
10:32:57:244;0.019153614;11.415554;-1.3790601
10:32:57:244;0.019153614;11.415554;-1.3790601
10:32:57:244;0.019153614;11.415554;-1.3790601
10:32:57:244;0.019153614;11.415554;-1.3790601
10:32:57:244;0.019153614;11.415554;-1.3790601
10:32:57:244;0.019153614;11.415554;-1.3790601
10:32:57:244;0.019153614;11.415554;-1.3790601
10:32:57:244;0.019153614;11.415554;-1.3790601
10:32:57:244;0.019153614;11.415554;-1.3790601
10:32:57:244;0.019153614;11.415554;-1.3790601
10:32:57:244;0.019153614;11.415554;-1.3790601
10:32:57:244;0.019153614;11.415554;-1.3790601
10:32:57:244;0.019153614;11.415554;-1.3790601
10:32:57:244;0.019153614;11.415554;-1.3790601
10:32:57:244;0.019153614;11.415554;-1.3790601
10:32:57:371;-0.038307227;9.423578;-0.15322891
10:32:57:371;-0.038307227;9.423578;-0.15322891
10:32:57:371;-0.038307227;9.423578;-0.15322891
10:32:57:371;-0.038307227;9.423578;-0.15322891
10:32:57:371;-0.038307227;9.423578;-0.15322891
10:32:57:371;-0.038307227;9.423578;-0.15322891
10:32:57:371;-0.038307227;9.423578;-0.15322891
10:32:57:371;-0.038307227;9.423578;-0.15322891
10:32:57:371;-0.038307227;9.423578;-0.15322891
10:32:57:371;-0.038307227;9.423578;-0.15322891
10:32:57:371;-0.038307227;9.423578;-0.15322891
10:32:57:371;-0.038307227;9.423578;-0.15322891
10:32:57:371;-0.038307227;9.423578;-0.15322891
10:32:57:476;-0.19153613;10.630256;-1.436521
10:32:57:476;-0.19153613;10.630256;-1.436521
10:32:57:476;-0.19153613;10.630256;-1.436521
10:32:57:476;-0.19153613;10.630256;-1.436521
10:32:57:476;-0.19153613;10.630256;-1.436521
10:32:57:476;-0.19153613;10.630256;-1.436521
10:32:57:476;-0.19153613;10.630256;-1.436521
10:32:57:476;-0.19153613;10.630256;-1.436521
10:32:57:476;-0.19153613;10.630256;-1.436521
10:32:57:476;-0.19153613;10.630256;-1.436521
10:32:57:476;-0.19153613;10.630256;-1.436521
10:32:57:476;-0.19153613;10.630256;-1.436521
10:32:57:476;-0.19153613;10.630256;-1.436521
10:32:57:476;-0.19153613;10.630256;-1.436521
10:32:57:476;-0.19153613;10.630256;-1.436521
10:32:57:476;-0.19153613;10.630256;-1.436521
10:32:57:599;-0.842759;11.702858;-1.1492168
10:32:57:599;-0.842759;11.702858;-1.1492168
10:32:57:599;-0.842759;11.702858;-1.1492168
10:32:57:599;-0.842759;11.702858;-1.1492168
10:32:57:599;-0.842759;11.702858;-1.1492168
10:32:57:599;-0.842759;11.702858;-1.1492168
10:32:57:599;-0.842759;11.702858;-1.1492168
10:32:57:599;-0.842759;11.702858;-1.1492168
10:32:57:599;-0.842759;11.702858;-1.1492168
10:32:57:599;-0.842759;11.702858;-1.1492168
10:32:57:599;-0.842759;11.702858;-1.1492168
10:32:57:599;-0.842759;11.702858;-1.1492168
10:32:57:599;-0.842759;11.702858;-1.1492168
10:32:57:599;-0.842759;11.702858;-1.1492168
10:32:57:599;-0.842759;11.702858;-1.1492168
10:32:57:711;-1.3215994;11.836933;-0.36391866
10:32:57:711;-1.3215994;11.836933;-0.36391866
10:32:57:711;-1.3215994;11.836933;-0.36391866
10:32:57:711;-1.3215994;11.836933;-0.36391866
10:32:57:711;-1.3215994;11.836933;-0.36391866
10:32:57:711;-1.3215994;11.836933;-0.36391866
10:32:57:711;-1.3215994;11.836933;-0.36391866
10:32:57:711;-1.3215994;11.836933;-0.36391866
10:32:57:711;-1.3215994;11.836933;-0.36391866
10:32:57:711;-1.3215994;11.836933;-0.36391866
10:32:57:711;-1.3215994;11.836933;-0.36391866
10:32:57:711;-1.3215994;11.836933;-0.36391866
10:32:57:711;-1.3215994;11.836933;-0.36391866
10:32:57:711;-1.3215994;11.836933;-0.36391866
10:32:57:828;-0.30645782;9.3661175;-0.30645782
10:32:57:828;-0.30645782;9.3661175;-0.30645782
10:32:57:828;-0.30645782;9.3661175;-0.30645782
10:32:57:828;-0.30645782;9.3661175;-0.30645782
10:32:57:828;-0.30645782;9.3661175;-0.30645782
10:32:57:828;-0.30645782;9.3661175;-0.30645782
10:32:57:828;-0.30645782;9.3661175;-0.30645782
10:32:57:828;-0.30645782;9.3661175;-0.30645782
10:32:57:828;-0.30645782;9.3661175;-0.30645782
10:32:57:828;-0.30645782;9.3661175;-0.30645782
10:32:57:828;-0.30645782;9.3661175;-0.30645782
10:32:57:828;-0.30645782;9.3661175;-0.30645782
10:32:57:828;-0.30645782;9.3661175;-0.30645782
10:32:57:828;-0.30645782;9.3661175;-0.30645782
10:32:57:828;-0.30645782;9.3661175;-0.30645782
10:32:57:945;0.24899697;9.634268;-0.45968673
10:32:57:945;0.24899697;9.634268;-0.45968673
10:32:57:945;0.24899697;9.634268;-0.45968673
10:32:57:945;0.24899697;9.634268;-0.45968673
10:32:57:945;0.24899697;9.634268;-0.45968673
10:32:57:945;0.24899697;9.634268;-0.45968673
10:32:57:945;0.24899697;9.634268;-0.45968673
10:32:57:945;0.24899697;9.634268;-0.45968673
10:32:57:945;0.24899697;9.634268;-0.45968673
10:32:57:945;0.24899697;9.634268;-0.45968673
10:32:57:945;0.24899697;9.634268;-0.45968673
10:32:57:945;0.24899697;9.634268;-0.45968673
10:32:57:945;0.24899697;9.634268;-0.45968673
10:32:57:945;0.24899697;9.634268;-0.45968673
10:32:57:945;0.24899697;9.634268;-0.45968673
10:32:57:945;0.24899697;9.634268;-0.45968673
10:32:58:063;0.1340753;11.358093;-2.7389667
10:32:58:063;0.1340753;11.358093;-2.7389667
10:32:58:063;0.1340753;11.358093;-2.7389667
10:32:58:063;0.1340753;11.358093;-2.7389667
10:32:58:063;0.1340753;11.358093;-2.7389667
10:32:58:063;0.1340753;11.358093;-2.7389667
10:32:58:063;0.1340753;11.358093;-2.7389667
10:32:58:063;0.1340753;11.358093;-2.7389667
10:32:58:063;0.1340753;11.358093;-2.7389667
10:32:58:063;0.1340753;11.358093;-2.7389667
10:32:58:063;0.1340753;11.358093;-2.7389667
10:32:58:063;0.1340753;11.358093;-2.7389667
10:32:58:063;0.1340753;11.358093;-2.7389667
10:32:58:063;0.1340753;11.358093;-2.7389667
10:32:58:063;0.1340753;11.358093;-2.7389667
10:32:58:181;0.8619126;9.80665;-0.82360536
10:32:58:181;0.8619126;9.80665;-0.82360536
10:32:58:181;0.8619126;9.80665;-0.82360536
10:32:58:181;0.8619126;9.80665;-0.82360536
10:32:58:181;0.8619126;9.80665;-0.82360536
10:32:58:181;0.8619126;9.80665;-0.82360536
10:32:58:181;0.8619126;9.80665;-0.82360536
10:32:58:181;0.8619126;9.80665;-0.82360536
10:32:58:181;0.8619126;9.80665;-0.82360536
10:32:58:181;0.8619126;9.80665;-0.82360536
10:32:58:181;0.8619126;9.80665;-0.82360536
10:32:58:181;0.8619126;9.80665;-0.82360536
10:32:58:181;0.8619126;9.80665;-0.82360536
10:32:58:181;0.8619126;9.80665;-0.82360536
10:32:58:181;0.8619126;9.80665;-0.82360536
10:32:58:300;-0.019153614;9.768343;-1.283292
10:32:58:300;-0.019153614;9.768343;-1.283292
10:32:58:300;-0.019153614;9.768343;-1.283292
10:32:58:300;-0.019153614;9.768343;-1.283292
10:32:58:300;-0.019153614;9.768343;-1.283292
10:32:58:300;-0.019153614;9.768343;-1.283292
10:32:58:300;-0.019153614;9.768343;-1.283292
10:32:58:300;-0.019153614;9.768343;-1.283292
10:32:58:300;-0.019153614;9.768343;-1.283292
10:32:58:300;-0.019153614;9.768343;-1.283292
10:32:58:300;-0.019153614;9.768343;-1.283292
10:32:58:300;-0.019153614;9.768343;-1.283292
10:32:58:300;-0.019153614;9.768343;-1.283292
10:32:58:405;0.076614454;8.90643;-1.4939818
10:32:58:405;0.076614454;8.90643;-1.4939818
10:32:58:405;0.076614454;8.90643;-1.4939818
10:32:58:405;0.076614454;8.90643;-1.4939818
10:32:58:405;0.076614454;8.90643;-1.4939818
10:32:58:405;0.076614454;8.90643;-1.4939818
10:32:58:405;0.076614454;8.90643;-1.4939818
10:32:58:405;0.076614454;8.90643;-1.4939818
10:32:58:405;0.076614454;8.90643;-1.4939818
10:32:58:405;0.076614454;8.90643;-1.4939818
10:32:58:405;0.076614454;8.90643;-1.4939818
10:32:58:405;0.076614454;8.90643;-1.4939818
10:32:58:405;0.076614454;8.90643;-1.4939818
10:32:58:405;0.076614454;8.90643;-1.4939818
10:32:58:405;0.076614454;8.90643;-1.4939818
10:32:58:523;1.0534488;9.710882;-0.9768343
10:32:58:523;1.0534488;9.710882;-0.9768343
10:32:58:523;1.0534488;9.710882;-0.9768343
10:32:58:523;1.0534488;9.710882;-0.9768343
10:32:58:523;1.0534488;9.710882;-0.9768343
10:32:58:523;1.0534488;9.710882;-0.9768343
10:32:58:523;1.0534488;9.710882;-0.9768343
10:32:58:523;1.0534488;9.710882;-0.9768343
10:32:58:523;1.0534488;9.710882;-0.9768343
10:32:58:523;1.0534488;9.710882;-0.9768343
10:32:58:523;1.0534488;9.710882;-0.9768343
10:32:58:523;1.0534488;9.710882;-0.9768343
10:32:58:523;1.0534488;9.710882;-0.9768343
10:32:58:523;1.0534488;9.710882;-0.9768343
10:32:58:523;1.0534488;9.710882;-0.9768343
10:32:58:640;-0.019153614;8.925584;-0.05746084
10:32:58:640;-0.019153614;8.925584;-0.05746084
10:32:58:640;-0.019153614;8.925584;-0.05746084
10:32:58:640;-0.019153614;8.925584;-0.05746084
10:32:58:640;-0.019153614;8.925584;-0.05746084
10:32:58:640;-0.019153614;8.925584;-0.05746084
10:32:58:640;-0.019153614;8.925584;-0.05746084
10:32:58:640;-0.019153614;8.925584;-0.05746084
10:32:58:640;-0.019153614;8.925584;-0.05746084
10:32:58:640;-0.019153614;8.925584;-0.05746084
10:32:58:640;-0.019153614;8.925584;-0.05746084
10:32:58:640;-0.019153614;8.925584;-0.05746084
10:32:58:640;-0.019153614;8.925584;-0.05746084
10:32:58:640;-0.019153614;8.925584;-0.05746084
10:32:58:750;0.32561144;7.5465236;0.6703765
10:32:58:750;0.32561144;7.5465236;0.6703765
10:32:58:750;0.32561144;7.5465236;0.6703765
10:32:58:750;0.32561144;7.5465236;0.6703765
10:32:58:750;0.32561144;7.5465236;0.6703765
10:32:58:750;0.32561144;7.5465236;0.6703765
10:32:58:750;0.32561144;7.5465236;0.6703765
10:32:58:750;0.32561144;7.5465236;0.6703765
10:32:58:750;0.32561144;7.5465236;0.6703765
10:32:58:750;0.32561144;7.5465236;0.6703765
10:32:58:750;0.32561144;7.5465236;0.6703765
10:32:58:750;0.32561144;7.5465236;0.6703765
10:32:58:750;0.32561144;7.5465236;0.6703765
10:32:58:750;0.32561144;7.5465236;0.6703765
10:32:58:750;0.32561144;7.5465236;0.6703765
10:32:58:750;0.32561144;7.5465236;0.6703765
10:32:58:869;-0.17238252;9.787497;-0.78529817
10:32:58:869;-0.17238252;9.787497;-0.78529817
10:32:58:869;-0.17238252;9.787497;-0.78529817
10:32:58:869;-0.17238252;9.787497;-0.78529817
10:32:58:869;-0.17238252;9.787497;-0.78529817
10:32:58:869;-0.17238252;9.787497;-0.78529817
10:32:58:869;-0.17238252;9.787497;-0.78529817
10:32:58:869;-0.17238252;9.787497;-0.78529817
10:32:58:869;-0.17238252;9.787497;-0.78529817
10:32:58:869;-0.17238252;9.787497;-0.78529817
10:32:58:869;-0.17238252;9.787497;-0.78529817
10:32:58:869;-0.17238252;9.787497;-0.78529817
10:32:58:869;-0.17238252;9.787497;-0.78529817
10:32:58:869;-0.17238252;9.787497;-0.78529817
10:32:58:869;-0.17238252;9.787497;-0.78529817
10:32:58:990;0.4213795;8.504205;-0.80445176
10:32:58:990;0.4213795;8.504205;-0.80445176
10:32:58:990;0.4213795;8.504205;-0.80445176
10:32:58:990;0.4213795;8.504205;-0.80445176
10:32:58:990;0.4213795;8.504205;-0.80445176
10:32:58:990;0.4213795;8.504205;-0.80445176
10:32:58:990;0.4213795;8.504205;-0.80445176
10:32:58:990;0.4213795;8.504205;-0.80445176
10:32:58:990;0.4213795;8.504205;-0.80445176
10:32:58:990;0.4213795;8.504205;-0.80445176
10:32:58:990;0.4213795;8.504205;-0.80445176
10:32:58:990;0.4213795;8.504205;-0.80445176
10:32:58:990;0.4213795;8.504205;-0.80445176
10:32:58:990;0.4213795;8.504205;-0.80445176
10:32:58:990;0.4213795;8.504205;-0.80445176
10:32:59:107;-0.30645782;9.883265;-0.11492168
10:32:59:107;-0.30645782;9.883265;-0.11492168
10:32:59:107;-0.30645782;9.883265;-0.11492168
10:32:59:107;-0.30645782;9.883265;-0.11492168
10:32:59:107;-0.30645782;9.883265;-0.11492168
10:32:59:107;-0.30645782;9.883265;-0.11492168
10:32:59:107;-0.30645782;9.883265;-0.11492168
10:32:59:107;-0.30645782;9.883265;-0.11492168
10:32:59:107;-0.30645782;9.883265;-0.11492168
10:32:59:107;-0.30645782;9.883265;-0.11492168
10:32:59:107;-0.30645782;9.883265;-0.11492168
10:32:59:107;-0.30645782;9.883265;-0.11492168
10:32:59:107;-0.30645782;9.883265;-0.11492168
10:32:59:107;-0.30645782;9.883265;-0.11492168
10:32:59:107;-0.30645782;9.883265;-0.11492168
10:32:59:107;-0.30645782;9.883265;-0.11492168
10:32:59:230;0.4213795;11.683704;-1.6472107
10:32:59:230;0.4213795;11.683704;-1.6472107
10:32:59:230;0.4213795;11.683704;-1.6472107
10:32:59:230;0.4213795;11.683704;-1.6472107
10:32:59:230;0.4213795;11.683704;-1.6472107
10:32:59:230;0.4213795;11.683704;-1.6472107
10:32:59:230;0.4213795;11.683704;-1.6472107
10:32:59:230;0.4213795;11.683704;-1.6472107
10:32:59:230;0.4213795;11.683704;-1.6472107
10:32:59:230;0.4213795;11.683704;-1.6472107
10:32:59:230;0.4213795;11.683704;-1.6472107
10:32:59:230;0.4213795;11.683704;-1.6472107
10:32:59:230;0.4213795;11.683704;-1.6472107
10:32:59:330;-0.61291564;12.449849;-1.9919758
10:32:59:330;-0.61291564;12.449849;-1.9919758
10:32:59:330;-0.61291564;12.449849;-1.9919758
10:32:59:330;-0.61291564;12.449849;-1.9919758
10:32:59:330;-0.61291564;12.449849;-1.9919758
10:32:59:330;-0.61291564;12.449849;-1.9919758
10:32:59:330;-0.61291564;12.449849;-1.9919758
10:32:59:330;-0.61291564;12.449849;-1.9919758
10:32:59:330;-0.61291564;12.449849;-1.9919758
10:32:59:330;-0.61291564;12.449849;-1.9919758
10:32:59:330;-0.61291564;12.449849;-1.9919758
10:32:59:330;-0.61291564;12.449849;-1.9919758
10:32:59:330;-0.61291564;12.449849;-1.9919758
10:32:59:330;-0.61291564;12.449849;-1.9919758
10:32:59:445;0.038307227;9.002198;-0.5363012
10:32:59:445;0.038307227;9.002198;-0.5363012
10:32:59:445;0.038307227;9.002198;-0.5363012
10:32:59:445;0.038307227;9.002198;-0.5363012
10:32:59:445;0.038307227;9.002198;-0.5363012
10:32:59:445;0.038307227;9.002198;-0.5363012
10:32:59:445;0.038307227;9.002198;-0.5363012
10:32:59:445;0.038307227;9.002198;-0.5363012
10:32:59:445;0.038307227;9.002198;-0.5363012
10:32:59:445;0.038307227;9.002198;-0.5363012
10:32:59:445;0.038307227;9.002198;-0.5363012
10:32:59:445;0.038307227;9.002198;-0.5363012
10:32:59:445;0.038307227;9.002198;-0.5363012
10:32:59:445;0.038307227;9.002198;-0.5363012
10:32:59:550;0.24899697;9.155427;-0.19153613
10:32:59:550;0.24899697;9.155427;-0.19153613
10:32:59:550;0.24899697;9.155427;-0.19153613
10:32:59:550;0.24899697;9.155427;-0.19153613
10:32:59:550;0.24899697;9.155427;-0.19153613
10:32:59:550;0.24899697;9.155427;-0.19153613
10:32:59:550;0.24899697;9.155427;-0.19153613
10:32:59:550;0.24899697;9.155427;-0.19153613
10:32:59:550;0.24899697;9.155427;-0.19153613
10:32:59:550;0.24899697;9.155427;-0.19153613
10:32:59:550;0.24899697;9.155427;-0.19153613
10:32:59:550;0.24899697;9.155427;-0.19153613
10:32:59:550;0.24899697;9.155427;-0.19153613
10:32:59:651;-0.4213795;10.726024;-1.091756
10:32:59:651;-0.4213795;10.726024;-1.091756
10:32:59:651;-0.4213795;10.726024;-1.091756
10:32:59:651;-0.4213795;10.726024;-1.091756
10:32:59:651;-0.4213795;10.726024;-1.091756
10:32:59:651;-0.4213795;10.726024;-1.091756
10:32:59:651;-0.4213795;10.726024;-1.091756
10:32:59:651;-0.4213795;10.726024;-1.091756
10:32:59:651;-0.4213795;10.726024;-1.091756
10:32:59:651;-0.4213795;10.726024;-1.091756
10:32:59:651;-0.4213795;10.726024;-1.091756
10:32:59:651;-0.4213795;10.726024;-1.091756
10:32:59:651;-0.4213795;10.726024;-1.091756
10:32:59:651;-0.4213795;10.726024;-1.091756
10:32:59:651;-0.4213795;10.726024;-1.091756
10:32:59:651;-0.4213795;10.726024;-1.091756
10:32:59:651;-0.4213795;10.726024;-1.091756
10:32:59:787;-0.1340753;10.898406;-1.436521
10:32:59:787;-0.1340753;10.898406;-1.436521
10:32:59:787;-0.1340753;10.898406;-1.436521
10:32:59:787;-0.1340753;10.898406;-1.436521
10:32:59:787;-0.1340753;10.898406;-1.436521
10:32:59:787;-0.1340753;10.898406;-1.436521
10:32:59:787;-0.1340753;10.898406;-1.436521
10:32:59:787;-0.1340753;10.898406;-1.436521
10:32:59:787;-0.1340753;10.898406;-1.436521
10:32:59:787;-0.1340753;10.898406;-1.436521
10:32:59:787;-0.1340753;10.898406;-1.436521
10:32:59:787;-0.1340753;10.898406;-1.436521
10:32:59:787;-0.1340753;10.898406;-1.436521
10:32:59:787;-0.1340753;10.898406;-1.436521
10:32:59:897;-0.2873042;11.358093;-1.3599066
10:32:59:897;-0.2873042;11.358093;-1.3599066
10:32:59:897;-0.2873042;11.358093;-1.3599066
10:32:59:897;-0.2873042;11.358093;-1.3599066
10:32:59:897;-0.2873042;11.358093;-1.3599066
10:32:59:897;-0.2873042;11.358093;-1.3599066
10:32:59:897;-0.2873042;11.358093;-1.3599066
10:32:59:897;-0.2873042;11.358093;-1.3599066
10:32:59:897;-0.2873042;11.358093;-1.3599066
10:32:59:897;-0.2873042;11.358093;-1.3599066
10:32:59:897;-0.2873042;11.358093;-1.3599066
10:32:59:897;-0.2873042;11.358093;-1.3599066
10:32:59:897;-0.2873042;11.358093;-1.3599066
10:32:59:897;-0.2873042;11.358093;-1.3599066
10:32:59:897;-0.2873042;11.358093;-1.3599066
10:32:59:897;-0.2873042;11.358093;-1.3599066
10:32:59:897;-0.2873042;11.358093;-1.3599066
10:32:59:897;-0.2873042;11.358093;-1.3599066
10:32:59:897;-0.2873042;11.358093;-1.3599066
10:32:59:897;-0.2873042;11.358093;-1.3599066
10:32:59:897;-0.2873042;11.358093;-1.3599066
10:33:00:055;-0.21068975;10.611102;-1.0726024
10:33:00:055;-0.21068975;10.611102;-1.0726024
10:33:00:055;-0.21068975;10.611102;-1.0726024
10:33:00:055;-0.21068975;10.611102;-1.0726024
10:33:00:055;-0.21068975;10.611102;-1.0726024
10:33:00:055;-0.21068975;10.611102;-1.0726024
10:33:00:055;-0.21068975;10.611102;-1.0726024
10:33:00:055;-0.21068975;10.611102;-1.0726024
10:33:00:055;-0.21068975;10.611102;-1.0726024
10:33:00:055;-0.21068975;10.611102;-1.0726024
10:33:00:055;-0.21068975;10.611102;-1.0726024
10:33:00:055;-0.21068975;10.611102;-1.0726024
10:33:00:055;-0.21068975;10.611102;-1.0726024
10:33:00:159;-0.45968673;11.128249;-0.6512229
10:33:00:159;-0.45968673;11.128249;-0.6512229
10:33:00:159;-0.45968673;11.128249;-0.6512229
10:33:00:159;-0.45968673;11.128249;-0.6512229
10:33:00:159;-0.45968673;11.128249;-0.6512229
10:33:00:159;-0.45968673;11.128249;-0.6512229
10:33:00:159;-0.45968673;11.128249;-0.6512229
10:33:00:159;-0.45968673;11.128249;-0.6512229
10:33:00:159;-0.45968673;11.128249;-0.6512229
10:33:00:159;-0.45968673;11.128249;-0.6512229
10:33:00:159;-0.45968673;11.128249;-0.6512229
10:33:00:159;-0.45968673;11.128249;-0.6512229
10:33:00:159;-0.45968673;11.128249;-0.6512229
10:33:00:159;-0.45968673;11.128249;-0.6512229
10:33:00:159;-0.45968673;11.128249;-0.6512229
10:33:00:159;-0.45968673;11.128249;-0.6512229
10:33:00:159;-0.45968673;11.128249;-0.6512229
10:33:00:292;-0.63206923;11.587936;-1.8195933
10:33:00:292;-0.63206923;11.587936;-1.8195933
10:33:00:292;-0.63206923;11.587936;-1.8195933
10:33:00:292;-0.63206923;11.587936;-1.8195933
10:33:00:292;-0.63206923;11.587936;-1.8195933
10:33:00:292;-0.63206923;11.587936;-1.8195933
10:33:00:292;-0.63206923;11.587936;-1.8195933
10:33:00:292;-0.63206923;11.587936;-1.8195933
10:33:00:292;-0.63206923;11.587936;-1.8195933
10:33:00:292;-0.63206923;11.587936;-1.8195933
10:33:00:292;-0.63206923;11.587936;-1.8195933
10:33:00:292;-0.63206923;11.587936;-1.8195933
10:33:00:292;-0.63206923;11.587936;-1.8195933
10:33:00:292;-0.63206923;11.587936;-1.8195933
10:33:00:292;-0.63206923;11.587936;-1.8195933
10:33:00:407;-0.36391866;9.595961;-0.8619126
10:33:00:407;-0.36391866;9.595961;-0.8619126
10:33:00:407;-0.36391866;9.595961;-0.8619126
10:33:00:407;-0.36391866;9.595961;-0.8619126
10:33:00:407;-0.36391866;9.595961;-0.8619126
10:33:00:407;-0.36391866;9.595961;-0.8619126
10:33:00:407;-0.36391866;9.595961;-0.8619126
10:33:00:407;-0.36391866;9.595961;-0.8619126
10:33:00:407;-0.36391866;9.595961;-0.8619126
10:33:00:407;-0.36391866;9.595961;-0.8619126
10:33:00:407;-0.36391866;9.595961;-0.8619126
10:33:00:407;-0.36391866;9.595961;-0.8619126
10:33:00:407;-0.36391866;9.595961;-0.8619126
10:33:00:514;0.019153614;10.0748005;-1.2641385
10:33:00:514;0.019153614;10.0748005;-1.2641385
10:33:00:514;0.019153614;10.0748005;-1.2641385
10:33:00:514;0.019153614;10.0748005;-1.2641385
10:33:00:514;0.019153614;10.0748005;-1.2641385
10:33:00:514;0.019153614;10.0748005;-1.2641385
10:33:00:514;0.019153614;10.0748005;-1.2641385
10:33:00:514;0.019153614;10.0748005;-1.2641385
10:33:00:514;0.019153614;10.0748005;-1.2641385
10:33:00:514;0.019153614;10.0748005;-1.2641385
10:33:00:514;0.019153614;10.0748005;-1.2641385
10:33:00:514;0.019153614;10.0748005;-1.2641385
10:33:00:514;0.019153614;10.0748005;-1.2641385
10:33:00:514;0.019153614;10.0748005;-1.2641385
10:33:00:624;-1.9153614;11.951855;-1.2449849
10:33:00:624;-1.9153614;11.951855;-1.2449849
10:33:00:624;-1.9153614;11.951855;-1.2449849
10:33:00:624;-1.9153614;11.951855;-1.2449849
10:33:00:624;-1.9153614;11.951855;-1.2449849
10:33:00:624;-1.9153614;11.951855;-1.2449849
10:33:00:624;-1.9153614;11.951855;-1.2449849
10:33:00:624;-1.9153614;11.951855;-1.2449849
10:33:00:624;-1.9153614;11.951855;-1.2449849
10:33:00:624;-1.9153614;11.951855;-1.2449849
10:33:00:624;-1.9153614;11.951855;-1.2449849
10:33:00:624;-1.9153614;11.951855;-1.2449849
10:33:00:624;-1.9153614;11.951855;-1.2449849
10:33:00:624;-1.9153614;11.951855;-1.2449849
10:33:00:624;-1.9153614;11.951855;-1.2449849
10:33:00:735;-0.49799395;6.895301;1.1683705
10:33:00:735;-0.49799395;6.895301;1.1683705
10:33:00:735;-0.49799395;6.895301;1.1683705
10:33:00:735;-0.49799395;6.895301;1.1683705
10:33:00:735;-0.49799395;6.895301;1.1683705
10:33:00:735;-0.49799395;6.895301;1.1683705
10:33:00:735;-0.49799395;6.895301;1.1683705
10:33:00:735;-0.49799395;6.895301;1.1683705
10:33:00:735;-0.49799395;6.895301;1.1683705
10:33:00:735;-0.49799395;6.895301;1.1683705
10:33:00:735;-0.49799395;6.895301;1.1683705
10:33:00:735;-0.49799395;6.895301;1.1683705
10:33:00:735;-0.49799395;6.895301;1.1683705
10:33:00:735;-0.49799395;6.895301;1.1683705
10:33:00:735;-0.49799395;6.895301;1.1683705
10:33:00:857;-0.90021986;8.772355;-0.4405331
10:33:00:857;-0.90021986;8.772355;-0.4405331
10:33:00:857;-0.90021986;8.772355;-0.4405331
10:33:00:857;-0.90021986;8.772355;-0.4405331
10:33:00:857;-0.90021986;8.772355;-0.4405331
10:33:00:857;-0.90021986;8.772355;-0.4405331
10:33:00:857;-0.90021986;8.772355;-0.4405331
10:33:00:857;-0.90021986;8.772355;-0.4405331
10:33:00:857;-0.90021986;8.772355;-0.4405331
10:33:00:857;-0.90021986;8.772355;-0.4405331
10:33:00:857;-0.90021986;8.772355;-0.4405331
10:33:00:857;-0.90021986;8.772355;-0.4405331
10:33:00:857;-0.90021986;8.772355;-0.4405331
10:33:00:857;-0.90021986;8.772355;-0.4405331
10:33:00:857;-0.90021986;8.772355;-0.4405331
10:33:00:974;-1.6089035;9.270349;0.49799395
10:33:00:974;-1.6089035;9.270349;0.49799395
10:33:00:974;-1.6089035;9.270349;0.49799395
10:33:00:974;-1.6089035;9.270349;0.49799395
10:33:00:974;-1.6089035;9.270349;0.49799395
10:33:00:974;-1.6089035;9.270349;0.49799395
10:33:00:974;-1.6089035;9.270349;0.49799395
10:33:00:974;-1.6089035;9.270349;0.49799395
10:33:00:974;-1.6089035;9.270349;0.49799395
10:33:00:974;-1.6089035;9.270349;0.49799395
10:33:00:974;-1.6089035;9.270349;0.49799395
10:33:00:974;-1.6089035;9.270349;0.49799395
10:33:00:974;-1.6089035;9.270349;0.49799395
10:33:00:974;-1.6089035;9.270349;0.49799395
10:33:00:974;-1.6089035;9.270349;0.49799395
10:33:00:974;-1.6089035;9.270349;0.49799395
10:33:01:096;-0.6703765;11.33894;-1.7812861
10:33:01:096;-0.6703765;11.33894;-1.7812861
10:33:01:096;-0.6703765;11.33894;-1.7812861
10:33:01:096;-0.6703765;11.33894;-1.7812861
10:33:01:096;-0.6703765;11.33894;-1.7812861
10:33:01:096;-0.6703765;11.33894;-1.7812861
10:33:01:096;-0.6703765;11.33894;-1.7812861
10:33:01:096;-0.6703765;11.33894;-1.7812861
10:33:01:096;-0.6703765;11.33894;-1.7812861
10:33:01:096;-0.6703765;11.33894;-1.7812861
10:33:01:096;-0.6703765;11.33894;-1.7812861
10:33:01:096;-0.6703765;11.33894;-1.7812861
10:33:01:096;-0.6703765;11.33894;-1.7812861
10:33:01:096;-0.6703765;11.33894;-1.7812861
10:33:01:096;-0.6703765;11.33894;-1.7812861
10:33:01:216;-1.0342951;9.615114;-0.47884035
10:33:01:216;-1.0342951;9.615114;-0.47884035
10:33:01:216;-1.0342951;9.615114;-0.47884035
10:33:01:216;-1.0342951;9.615114;-0.47884035
10:33:01:216;-1.0342951;9.615114;-0.47884035
10:33:01:216;-1.0342951;9.615114;-0.47884035
10:33:01:216;-1.0342951;9.615114;-0.47884035
10:33:01:216;-1.0342951;9.615114;-0.47884035
10:33:01:216;-1.0342951;9.615114;-0.47884035
10:33:01:216;-1.0342951;9.615114;-0.47884035
10:33:01:216;-1.0342951;9.615114;-0.47884035
10:33:01:216;-1.0342951;9.615114;-0.47884035
10:33:01:216;-1.0342951;9.615114;-0.47884035
10:33:01:317;-0.842759;10.151415;-0.49799395
10:33:01:317;-0.842759;10.151415;-0.49799395
10:33:01:317;-0.842759;10.151415;-0.49799395
10:33:01:317;-0.842759;10.151415;-0.49799395
10:33:01:317;-0.842759;10.151415;-0.49799395
10:33:01:317;-0.842759;10.151415;-0.49799395
10:33:01:317;-0.842759;10.151415;-0.49799395
10:33:01:317;-0.842759;10.151415;-0.49799395
10:33:01:317;-0.842759;10.151415;-0.49799395
10:33:01:317;-0.842759;10.151415;-0.49799395
10:33:01:317;-0.842759;10.151415;-0.49799395
10:33:01:317;-0.842759;10.151415;-0.49799395
10:33:01:317;-0.842759;10.151415;-0.49799395
10:33:01:418;-0.5363012;10.649409;-1.4748282
10:33:01:418;-0.5363012;10.649409;-1.4748282
10:33:01:418;-0.5363012;10.649409;-1.4748282
10:33:01:418;-0.5363012;10.649409;-1.4748282
10:33:01:418;-0.5363012;10.649409;-1.4748282
10:33:01:418;-0.5363012;10.649409;-1.4748282
10:33:01:418;-0.5363012;10.649409;-1.4748282
10:33:01:418;-0.5363012;10.649409;-1.4748282
10:33:01:418;-0.5363012;10.649409;-1.4748282
10:33:01:418;-0.5363012;10.649409;-1.4748282
10:33:01:418;-0.5363012;10.649409;-1.4748282
10:33:01:418;-0.5363012;10.649409;-1.4748282
10:33:01:418;-0.5363012;10.649409;-1.4748282
10:33:01:418;-0.5363012;10.649409;-1.4748282
10:33:01:418;-0.5363012;10.649409;-1.4748282
10:33:01:534;0.17238252;8.810662;-0.4213795
10:33:01:534;0.17238252;8.810662;-0.4213795
10:33:01:534;0.17238252;8.810662;-0.4213795
10:33:01:534;0.17238252;8.810662;-0.4213795
10:33:01:534;0.17238252;8.810662;-0.4213795
10:33:01:534;0.17238252;8.810662;-0.4213795
10:33:01:534;0.17238252;8.810662;-0.4213795
10:33:01:534;0.17238252;8.810662;-0.4213795
10:33:01:534;0.17238252;8.810662;-0.4213795
10:33:01:534;0.17238252;8.810662;-0.4213795
10:33:01:534;0.17238252;8.810662;-0.4213795
10:33:01:534;0.17238252;8.810662;-0.4213795
10:33:01:534;0.17238252;8.810662;-0.4213795
10:33:01:534;0.17238252;8.810662;-0.4213795
10:33:01:534;0.17238252;8.810662;-0.4213795
10:33:01:652;-0.019153614;9.32781;-0.2681506
10:33:01:652;-0.019153614;9.32781;-0.2681506
10:33:01:652;-0.019153614;9.32781;-0.2681506
10:33:01:652;-0.019153614;9.32781;-0.2681506
10:33:01:652;-0.019153614;9.32781;-0.2681506
10:33:01:652;-0.019153614;9.32781;-0.2681506
10:33:01:652;-0.019153614;9.32781;-0.2681506
10:33:01:652;-0.019153614;9.32781;-0.2681506
10:33:01:652;-0.019153614;9.32781;-0.2681506
10:33:01:652;-0.019153614;9.32781;-0.2681506
10:33:01:652;-0.019153614;9.32781;-0.2681506
10:33:01:652;-0.019153614;9.32781;-0.2681506
10:33:01:652;-0.019153614;9.32781;-0.2681506
10:33:01:754;-0.11492168;10.093954;-0.61291564
10:33:01:754;-0.11492168;10.093954;-0.61291564
10:33:01:754;-0.11492168;10.093954;-0.61291564
10:33:01:754;-0.11492168;10.093954;-0.61291564
10:33:01:754;-0.11492168;10.093954;-0.61291564
10:33:01:754;-0.11492168;10.093954;-0.61291564
10:33:01:754;-0.11492168;10.093954;-0.61291564
10:33:01:754;-0.11492168;10.093954;-0.61291564
10:33:01:754;-0.11492168;10.093954;-0.61291564
10:33:01:754;-0.11492168;10.093954;-0.61291564
10:33:01:754;-0.11492168;10.093954;-0.61291564
10:33:01:754;-0.11492168;10.093954;-0.61291564
10:33:01:754;-0.11492168;10.093954;-0.61291564
10:33:01:754;-0.11492168;10.093954;-0.61291564
10:33:01:754;-0.11492168;10.093954;-0.61291564
10:33:01:873;-0.5363012;9.959879;0.22984336
10:33:01:873;-0.5363012;9.959879;0.22984336
10:33:01:873;-0.5363012;9.959879;0.22984336
10:33:01:873;-0.5363012;9.959879;0.22984336
10:33:01:873;-0.5363012;9.959879;0.22984336
10:33:01:873;-0.5363012;9.959879;0.22984336
10:33:01:873;-0.5363012;9.959879;0.22984336
10:33:01:873;-0.5363012;9.959879;0.22984336
10:33:01:873;-0.5363012;9.959879;0.22984336
10:33:01:873;-0.5363012;9.959879;0.22984336
10:33:01:873;-0.5363012;9.959879;0.22984336
10:33:01:873;-0.5363012;9.959879;0.22984336
10:33:01:873;-0.5363012;9.959879;0.22984336
10:33:01:873;-0.5363012;9.959879;0.22984336
10:33:01:873;-0.5363012;9.959879;0.22984336
10:33:01:991;-0.4405331;11.683704;-1.3982137
10:33:01:991;-0.4405331;11.683704;-1.3982137
10:33:01:991;-0.4405331;11.683704;-1.3982137
10:33:01:991;-0.4405331;11.683704;-1.3982137
10:33:01:991;-0.4405331;11.683704;-1.3982137
10:33:01:991;-0.4405331;11.683704;-1.3982137
10:33:01:991;-0.4405331;11.683704;-1.3982137
10:33:01:991;-0.4405331;11.683704;-1.3982137
10:33:01:991;-0.4405331;11.683704;-1.3982137
10:33:01:991;-0.4405331;11.683704;-1.3982137
10:33:01:991;-0.4405331;11.683704;-1.3982137
10:33:01:991;-0.4405331;11.683704;-1.3982137
10:33:01:991;-0.4405331;11.683704;-1.3982137
10:33:01:991;-0.4405331;11.683704;-1.3982137
10:33:01:991;-0.4405331;11.683704;-1.3982137
10:33:01:991;-0.4405331;11.683704;-1.3982137
10:33:02:117;-0.11492168;10.01734;-0.05746084
10:33:02:117;-0.11492168;10.01734;-0.05746084
10:33:02:117;-0.11492168;10.01734;-0.05746084
10:33:02:117;-0.11492168;10.01734;-0.05746084
10:33:02:117;-0.11492168;10.01734;-0.05746084
10:33:02:117;-0.11492168;10.01734;-0.05746084
10:33:02:117;-0.11492168;10.01734;-0.05746084
10:33:02:117;-0.11492168;10.01734;-0.05746084
10:33:02:117;-0.11492168;10.01734;-0.05746084
10:33:02:117;-0.11492168;10.01734;-0.05746084
10:33:02:117;-0.11492168;10.01734;-0.05746084
10:33:02:117;-0.11492168;10.01734;-0.05746084
10:33:02:117;-0.11492168;10.01734;-0.05746084
10:33:02:117;-0.11492168;10.01734;-0.05746084
10:33:02:117;-0.11492168;10.01734;-0.05746084
10:33:02:234;-0.05746084;8.887277;-0.11492168
10:33:02:234;-0.05746084;8.887277;-0.11492168
10:33:02:234;-0.05746084;8.887277;-0.11492168
10:33:02:234;-0.05746084;8.887277;-0.11492168
10:33:02:234;-0.05746084;8.887277;-0.11492168
10:33:02:234;-0.05746084;8.887277;-0.11492168
10:33:02:234;-0.05746084;8.887277;-0.11492168
10:33:02:234;-0.05746084;8.887277;-0.11492168
10:33:02:234;-0.05746084;8.887277;-0.11492168
10:33:02:234;-0.05746084;8.887277;-0.11492168
10:33:02:234;-0.05746084;8.887277;-0.11492168
10:33:02:234;-0.05746084;8.887277;-0.11492168
10:33:02:234;-0.05746084;8.887277;-0.11492168
10:33:02:234;-0.05746084;8.887277;-0.11492168
10:33:02:234;-0.05746084;8.887277;-0.11492168
10:33:02:234;-0.05746084;8.887277;-0.11492168
10:33:02:352;-0.076614454;11.051635;-0.30645782
10:33:02:352;-0.076614454;11.051635;-0.30645782
10:33:02:352;-0.076614454;11.051635;-0.30645782
10:33:02:352;-0.076614454;11.051635;-0.30645782
10:33:02:352;-0.076614454;11.051635;-0.30645782
10:33:02:352;-0.076614454;11.051635;-0.30645782
10:33:02:352;-0.076614454;11.051635;-0.30645782
10:33:02:352;-0.076614454;11.051635;-0.30645782
10:33:02:352;-0.076614454;11.051635;-0.30645782
10:33:02:352;-0.076614454;11.051635;-0.30645782
10:33:02:352;-0.076614454;11.051635;-0.30645782
10:33:02:352;-0.076614454;11.051635;-0.30645782
10:33:02:352;-0.076614454;11.051635;-0.30645782
10:33:02:456;0.11492168;11.109096;0.6512229
10:33:02:456;0.11492168;11.109096;0.6512229
10:33:02:456;0.11492168;11.109096;0.6512229
10:33:02:456;0.11492168;11.109096;0.6512229
10:33:02:456;0.11492168;11.109096;0.6512229
10:33:02:456;0.11492168;11.109096;0.6512229
10:33:02:456;0.11492168;11.109096;0.6512229
10:33:02:456;0.11492168;11.109096;0.6512229
10:33:02:456;0.11492168;11.109096;0.6512229
10:33:02:456;0.11492168;11.109096;0.6512229
10:33:02:456;0.11492168;11.109096;0.6512229
10:33:02:456;0.11492168;11.109096;0.6512229
10:33:02:456;0.11492168;11.109096;0.6512229
10:33:02:456;0.11492168;11.109096;0.6512229
10:33:02:456;0.11492168;11.109096;0.6512229
10:33:02:572;-0.9959879;11.18571;-0.61291564
10:33:02:572;-0.9959879;11.18571;-0.61291564
10:33:02:572;-0.9959879;11.18571;-0.61291564
10:33:02:572;-0.9959879;11.18571;-0.61291564
10:33:02:572;-0.9959879;11.18571;-0.61291564
10:33:02:572;-0.9959879;11.18571;-0.61291564
10:33:02:572;-0.9959879;11.18571;-0.61291564
10:33:02:572;-0.9959879;11.18571;-0.61291564
10:33:02:572;-0.9959879;11.18571;-0.61291564
10:33:02:572;-0.9959879;11.18571;-0.61291564
10:33:02:572;-0.9959879;11.18571;-0.61291564
10:33:02:572;-0.9959879;11.18571;-0.61291564
10:33:02:572;-0.9959879;11.18571;-0.61291564
10:33:02:572;-0.9959879;11.18571;-0.61291564
10:33:02:572;-0.9959879;11.18571;-0.61291564
10:33:02:694;-0.47884035;9.902418;-0.2681506
10:33:02:694;-0.47884035;9.902418;-0.2681506
10:33:02:694;-0.47884035;9.902418;-0.2681506
10:33:02:694;-0.47884035;9.902418;-0.2681506
10:33:02:694;-0.47884035;9.902418;-0.2681506
10:33:02:694;-0.47884035;9.902418;-0.2681506
10:33:02:694;-0.47884035;9.902418;-0.2681506
10:33:02:694;-0.47884035;9.902418;-0.2681506
10:33:02:694;-0.47884035;9.902418;-0.2681506
10:33:02:694;-0.47884035;9.902418;-0.2681506
10:33:02:694;-0.47884035;9.902418;-0.2681506
10:33:02:694;-0.47884035;9.902418;-0.2681506
10:33:02:694;-0.47884035;9.902418;-0.2681506
10:33:02:694;-0.47884035;9.902418;-0.2681506
10:33:02:694;-0.47884035;9.902418;-0.2681506
10:33:02:811;-0.5363012;10.477027;-0.38307226
10:33:02:811;-0.5363012;10.477027;-0.38307226
10:33:02:811;-0.5363012;10.477027;-0.38307226
10:33:02:811;-0.5363012;10.477027;-0.38307226
10:33:02:811;-0.5363012;10.477027;-0.38307226
10:33:02:811;-0.5363012;10.477027;-0.38307226
10:33:02:811;-0.5363012;10.477027;-0.38307226
10:33:02:811;-0.5363012;10.477027;-0.38307226
10:33:02:811;-0.5363012;10.477027;-0.38307226
10:33:02:811;-0.5363012;10.477027;-0.38307226
10:33:02:811;-0.5363012;10.477027;-0.38307226
10:33:02:811;-0.5363012;10.477027;-0.38307226
10:33:02:811;-0.5363012;10.477027;-0.38307226
10:33:02:811;-0.5363012;10.477027;-0.38307226
10:33:02:811;-0.5363012;10.477027;-0.38307226
10:33:02:811;-0.5363012;10.477027;-0.38307226
10:33:02:931;-0.7086837;10.055647;-0.90021986
10:33:02:931;-0.7086837;10.055647;-0.90021986
10:33:02:931;-0.7086837;10.055647;-0.90021986
10:33:02:931;-0.7086837;10.055647;-0.90021986
10:33:02:931;-0.7086837;10.055647;-0.90021986
10:33:02:931;-0.7086837;10.055647;-0.90021986
10:33:02:931;-0.7086837;10.055647;-0.90021986
10:33:02:931;-0.7086837;10.055647;-0.90021986
10:33:02:931;-0.7086837;10.055647;-0.90021986
10:33:02:931;-0.7086837;10.055647;-0.90021986
10:33:02:931;-0.7086837;10.055647;-0.90021986
10:33:02:931;-0.7086837;10.055647;-0.90021986
10:33:02:931;-0.7086837;10.055647;-0.90021986
10:33:02:931;-0.7086837;10.055647;-0.90021986
10:33:02:931;-0.7086837;10.055647;-0.90021986
10:33:03:048;-0.40222588;9.404425;0.7661445
10:33:03:048;-0.40222588;9.404425;0.7661445
10:33:03:048;-0.40222588;9.404425;0.7661445
10:33:03:048;-0.40222588;9.404425;0.7661445
10:33:03:048;-0.40222588;9.404425;0.7661445
10:33:03:048;-0.40222588;9.404425;0.7661445
10:33:03:048;-0.40222588;9.404425;0.7661445
10:33:03:048;-0.40222588;9.404425;0.7661445
10:33:03:048;-0.40222588;9.404425;0.7661445
10:33:03:048;-0.40222588;9.404425;0.7661445
10:33:03:048;-0.40222588;9.404425;0.7661445
10:33:03:048;-0.40222588;9.404425;0.7661445
10:33:03:048;-0.40222588;9.404425;0.7661445
10:33:03:048;-0.40222588;9.404425;0.7661445
10:33:03:048;-0.40222588;9.404425;0.7661445
10:33:03:167;-0.05746084;11.243171;-0.842759
10:33:03:167;-0.05746084;11.243171;-0.842759
10:33:03:167;-0.05746084;11.243171;-0.842759
10:33:03:167;-0.05746084;11.243171;-0.842759
10:33:03:167;-0.05746084;11.243171;-0.842759
10:33:03:167;-0.05746084;11.243171;-0.842759
10:33:03:167;-0.05746084;11.243171;-0.842759
10:33:03:167;-0.05746084;11.243171;-0.842759
10:33:03:167;-0.05746084;11.243171;-0.842759
10:33:03:167;-0.05746084;11.243171;-0.842759
10:33:03:167;-0.05746084;11.243171;-0.842759
10:33:03:167;-0.05746084;11.243171;-0.842759
10:33:03:167;-0.05746084;11.243171;-0.842759
10:33:03:167;-0.05746084;11.243171;-0.842759
10:33:03:167;-0.05746084;11.243171;-0.842759
10:33:03:167;-0.05746084;11.243171;-0.842759
10:33:03:295;-0.11492168;9.5385;0.2681506
10:33:03:295;-0.11492168;9.5385;0.2681506
10:33:03:295;-0.11492168;9.5385;0.2681506
10:33:03:295;-0.11492168;9.5385;0.2681506
10:33:03:295;-0.11492168;9.5385;0.2681506
10:33:03:295;-0.11492168;9.5385;0.2681506
10:33:03:295;-0.11492168;9.5385;0.2681506
10:33:03:295;-0.11492168;9.5385;0.2681506
10:33:03:295;-0.11492168;9.5385;0.2681506
10:33:03:295;-0.11492168;9.5385;0.2681506
10:33:03:295;-0.11492168;9.5385;0.2681506
10:33:03:295;-0.11492168;9.5385;0.2681506
10:33:03:295;-0.11492168;9.5385;0.2681506
10:33:03:295;-0.11492168;9.5385;0.2681506
10:33:03:295;-0.11492168;9.5385;0.2681506
10:33:03:414;-0.45968673;11.18571;-0.38307226
10:33:03:414;-0.45968673;11.18571;-0.38307226
10:33:03:414;-0.45968673;11.18571;-0.38307226
10:33:03:414;-0.45968673;11.18571;-0.38307226
10:33:03:414;-0.45968673;11.18571;-0.38307226
10:33:03:414;-0.45968673;11.18571;-0.38307226
10:33:03:414;-0.45968673;11.18571;-0.38307226
10:33:03:414;-0.45968673;11.18571;-0.38307226
10:33:03:414;-0.45968673;11.18571;-0.38307226
10:33:03:414;-0.45968673;11.18571;-0.38307226
10:33:03:414;-0.45968673;11.18571;-0.38307226
10:33:03:414;-0.45968673;11.18571;-0.38307226
10:33:03:414;-0.45968673;11.18571;-0.38307226
10:33:03:414;-0.45968673;11.18571;-0.38307226
10:33:03:414;-0.45968673;11.18571;-0.38307226
10:33:03:414;-0.45968673;11.18571;-0.38307226
10:33:03:533;-0.019153614;10.266336;-0.15322891
10:33:03:533;-0.019153614;10.266336;-0.15322891
10:33:03:533;-0.019153614;10.266336;-0.15322891
10:33:03:533;-0.019153614;10.266336;-0.15322891
10:33:03:533;-0.019153614;10.266336;-0.15322891
10:33:03:533;-0.019153614;10.266336;-0.15322891
10:33:03:533;-0.019153614;10.266336;-0.15322891
10:33:03:533;-0.019153614;10.266336;-0.15322891
10:33:03:533;-0.019153614;10.266336;-0.15322891
10:33:03:533;-0.019153614;10.266336;-0.15322891
10:33:03:533;-0.019153614;10.266336;-0.15322891
10:33:03:533;-0.019153614;10.266336;-0.15322891
10:33:03:533;-0.019153614;10.266336;-0.15322891
10:33:03:634;0.05746084;9.193734;-0.15322891
10:33:03:634;0.05746084;9.193734;-0.15322891
10:33:03:634;0.05746084;9.193734;-0.15322891
10:33:03:634;0.05746084;9.193734;-0.15322891
10:33:03:634;0.05746084;9.193734;-0.15322891
10:33:03:634;0.05746084;9.193734;-0.15322891
10:33:03:634;0.05746084;9.193734;-0.15322891
10:33:03:634;0.05746084;9.193734;-0.15322891
10:33:03:634;0.05746084;9.193734;-0.15322891
10:33:03:634;0.05746084;9.193734;-0.15322891
10:33:03:634;0.05746084;9.193734;-0.15322891
10:33:03:634;0.05746084;9.193734;-0.15322891
10:33:03:634;0.05746084;9.193734;-0.15322891
10:33:03:634;0.05746084;9.193734;-0.15322891
10:33:03:634;0.05746084;9.193734;-0.15322891
10:33:03:753;-0.5746084;10.01734;0.11492168
10:33:03:753;-0.5746084;10.01734;0.11492168
10:33:03:753;-0.5746084;10.01734;0.11492168
10:33:03:753;-0.5746084;10.01734;0.11492168
10:33:03:753;-0.5746084;10.01734;0.11492168
10:33:03:753;-0.5746084;10.01734;0.11492168
10:33:03:753;-0.5746084;10.01734;0.11492168
10:33:03:753;-0.5746084;10.01734;0.11492168
10:33:03:753;-0.5746084;10.01734;0.11492168
10:33:03:753;-0.5746084;10.01734;0.11492168
10:33:03:753;-0.5746084;10.01734;0.11492168
10:33:03:753;-0.5746084;10.01734;0.11492168
10:33:03:753;-0.5746084;10.01734;0.11492168
10:33:03:854;-0.4405331;11.032481;-0.2681506
10:33:03:854;-0.4405331;11.032481;-0.2681506
10:33:03:854;-0.4405331;11.032481;-0.2681506
10:33:03:854;-0.4405331;11.032481;-0.2681506
10:33:03:854;-0.4405331;11.032481;-0.2681506
10:33:03:854;-0.4405331;11.032481;-0.2681506
10:33:03:854;-0.4405331;11.032481;-0.2681506
10:33:03:854;-0.4405331;11.032481;-0.2681506
10:33:03:854;-0.4405331;11.032481;-0.2681506
10:33:03:854;-0.4405331;11.032481;-0.2681506
10:33:03:854;-0.4405331;11.032481;-0.2681506
10:33:03:854;-0.4405331;11.032481;-0.2681506
10:33:03:854;-0.4405331;11.032481;-0.2681506
10:33:03:854;-0.4405331;11.032481;-0.2681506
10:33:03:854;-0.4405331;11.032481;-0.2681506
10:33:03:974;-0.17238252;9.519346;-0.38307226
10:33:03:974;-0.17238252;9.519346;-0.38307226
10:33:03:974;-0.17238252;9.519346;-0.38307226
10:33:03:974;-0.17238252;9.519346;-0.38307226
10:33:03:974;-0.17238252;9.519346;-0.38307226
10:33:03:974;-0.17238252;9.519346;-0.38307226
10:33:03:974;-0.17238252;9.519346;-0.38307226
10:33:03:974;-0.17238252;9.519346;-0.38307226
10:33:03:974;-0.17238252;9.519346;-0.38307226
10:33:03:974;-0.17238252;9.519346;-0.38307226
10:33:03:974;-0.17238252;9.519346;-0.38307226
10:33:03:974;-0.17238252;9.519346;-0.38307226
10:33:03:974;-0.17238252;9.519346;-0.38307226
10:33:03:974;-0.17238252;9.519346;-0.38307226
10:33:03:974;-0.17238252;9.519346;-0.38307226
10:33:04:088;-0.36391866;10.764331;-0.30645782
10:33:04:088;-0.36391866;10.764331;-0.30645782
10:33:04:088;-0.36391866;10.764331;-0.30645782
10:33:04:088;-0.36391866;10.764331;-0.30645782
10:33:04:088;-0.36391866;10.764331;-0.30645782
10:33:04:088;-0.36391866;10.764331;-0.30645782
10:33:04:088;-0.36391866;10.764331;-0.30645782
10:33:04:088;-0.36391866;10.764331;-0.30645782
10:33:04:088;-0.36391866;10.764331;-0.30645782
10:33:04:088;-0.36391866;10.764331;-0.30645782
10:33:04:088;-0.36391866;10.764331;-0.30645782
10:33:04:088;-0.36391866;10.764331;-0.30645782
10:33:04:088;-0.36391866;10.764331;-0.30645782
10:33:04:088;-0.36391866;10.764331;-0.30645782
10:33:04:088;-0.36391866;10.764331;-0.30645782
10:33:04:208;0.15322891;9.844957;-0.038307227
10:33:04:208;0.15322891;9.844957;-0.038307227
10:33:04:208;0.15322891;9.844957;-0.038307227
10:33:04:208;0.15322891;9.844957;-0.038307227
10:33:04:208;0.15322891;9.844957;-0.038307227
10:33:04:208;0.15322891;9.844957;-0.038307227
10:33:04:208;0.15322891;9.844957;-0.038307227
10:33:04:208;0.15322891;9.844957;-0.038307227
10:33:04:208;0.15322891;9.844957;-0.038307227
10:33:04:208;0.15322891;9.844957;-0.038307227
10:33:04:208;0.15322891;9.844957;-0.038307227
10:33:04:208;0.15322891;9.844957;-0.038307227
10:33:04:208;0.15322891;9.844957;-0.038307227
10:33:04:208;0.15322891;9.844957;-0.038307227
10:33:04:208;0.15322891;9.844957;-0.038307227
10:33:04:208;0.15322891;9.844957;-0.038307227
10:33:04:208;0.15322891;9.844957;-0.038307227
10:33:04:208;0.15322891;9.844957;-0.038307227
10:33:04:349;-0.45968673;10.879252;-0.49799395
10:33:04:349;-0.45968673;10.879252;-0.49799395
10:33:04:349;-0.45968673;10.879252;-0.49799395
10:33:04:349;-0.45968673;10.879252;-0.49799395
10:33:04:349;-0.45968673;10.879252;-0.49799395
10:33:04:349;-0.45968673;10.879252;-0.49799395
10:33:04:349;-0.45968673;10.879252;-0.49799395
10:33:04:349;-0.45968673;10.879252;-0.49799395
10:33:04:349;-0.45968673;10.879252;-0.49799395
10:33:04:349;-0.45968673;10.879252;-0.49799395
10:33:04:349;-0.45968673;10.879252;-0.49799395
10:33:04:349;-0.45968673;10.879252;-0.49799395
10:33:04:349;-0.45968673;10.879252;-0.49799395
10:33:04:349;-0.45968673;10.879252;-0.49799395
10:33:04:455;-0.5554548;10.362105;-0.90021986
10:33:04:455;-0.5554548;10.362105;-0.90021986
10:33:04:455;-0.5554548;10.362105;-0.90021986
10:33:04:455;-0.5554548;10.362105;-0.90021986
10:33:04:455;-0.5554548;10.362105;-0.90021986
10:33:04:455;-0.5554548;10.362105;-0.90021986
10:33:04:455;-0.5554548;10.362105;-0.90021986
10:33:04:455;-0.5554548;10.362105;-0.90021986
10:33:04:455;-0.5554548;10.362105;-0.90021986
10:33:04:455;-0.5554548;10.362105;-0.90021986
10:33:04:455;-0.5554548;10.362105;-0.90021986
10:33:04:455;-0.5554548;10.362105;-0.90021986
10:33:04:455;-0.5554548;10.362105;-0.90021986
10:33:04:455;-0.5554548;10.362105;-0.90021986
10:33:04:455;-0.5554548;10.362105;-0.90021986
10:33:04:574;-1.1683705;12.928689;-1.532289
10:33:04:574;-1.1683705;12.928689;-1.532289
10:33:04:574;-1.1683705;12.928689;-1.532289
10:33:04:574;-1.1683705;12.928689;-1.532289
10:33:04:574;-1.1683705;12.928689;-1.532289
10:33:04:574;-1.1683705;12.928689;-1.532289
10:33:04:574;-1.1683705;12.928689;-1.532289
10:33:04:574;-1.1683705;12.928689;-1.532289
10:33:04:574;-1.1683705;12.928689;-1.532289
10:33:04:574;-1.1683705;12.928689;-1.532289
10:33:04:574;-1.1683705;12.928689;-1.532289
10:33:04:574;-1.1683705;12.928689;-1.532289
10:33:04:574;-1.1683705;12.928689;-1.532289
10:33:04:574;-1.1683705;12.928689;-1.532289
10:33:04:574;-1.1683705;12.928689;-1.532289
10:33:04:574;-1.1683705;12.928689;-1.532289
10:33:04:574;-1.1683705;12.928689;-1.532289
10:33:04:574;-1.1683705;12.928689;-1.532289
10:33:04:714;-1.7238252;9.442732;0.6703765
10:33:04:714;-1.7238252;9.442732;0.6703765
10:33:04:714;-1.7238252;9.442732;0.6703765
10:33:04:714;-1.7238252;9.442732;0.6703765
10:33:04:714;-1.7238252;9.442732;0.6703765
10:33:04:714;-1.7238252;9.442732;0.6703765
10:33:04:714;-1.7238252;9.442732;0.6703765
10:33:04:714;-1.7238252;9.442732;0.6703765
10:33:04:714;-1.7238252;9.442732;0.6703765
10:33:04:714;-1.7238252;9.442732;0.6703765
10:33:04:714;-1.7238252;9.442732;0.6703765
10:33:04:714;-1.7238252;9.442732;0.6703765
10:33:04:714;-1.7238252;9.442732;0.6703765
10:33:04:714;-1.7238252;9.442732;0.6703765
10:33:04:714;-1.7238252;9.442732;0.6703765
10:33:04:829;-0.9959879;10.419566;0.11492168
10:33:04:829;-0.9959879;10.419566;0.11492168
10:33:04:829;-0.9959879;10.419566;0.11492168
10:33:04:829;-0.9959879;10.419566;0.11492168
10:33:04:829;-0.9959879;10.419566;0.11492168
10:33:04:829;-0.9959879;10.419566;0.11492168
10:33:04:829;-0.9959879;10.419566;0.11492168
10:33:04:829;-0.9959879;10.419566;0.11492168
10:33:04:829;-0.9959879;10.419566;0.11492168
10:33:04:829;-0.9959879;10.419566;0.11492168
10:33:04:829;-0.9959879;10.419566;0.11492168
10:33:04:829;-0.9959879;10.419566;0.11492168
10:33:04:829;-0.9959879;10.419566;0.11492168
10:33:04:932;-0.4405331;8.829816;0.17238252
10:33:04:932;-0.4405331;8.829816;0.17238252
10:33:04:932;-0.4405331;8.829816;0.17238252
10:33:04:932;-0.4405331;8.829816;0.17238252
10:33:04:932;-0.4405331;8.829816;0.17238252
10:33:04:932;-0.4405331;8.829816;0.17238252
10:33:04:932;-0.4405331;8.829816;0.17238252
10:33:04:932;-0.4405331;8.829816;0.17238252
10:33:04:932;-0.4405331;8.829816;0.17238252
10:33:04:932;-0.4405331;8.829816;0.17238252
10:33:04:932;-0.4405331;8.829816;0.17238252
10:33:04:932;-0.4405331;8.829816;0.17238252
10:33:04:932;-0.4405331;8.829816;0.17238252
10:33:04:932;-0.4405331;8.829816;0.17238252
10:33:04:932;-0.4405331;8.829816;0.17238252
10:33:05:050;-0.38307226;9.461885;0.095768064
10:33:05:050;-0.38307226;9.461885;0.095768064
10:33:05:050;-0.38307226;9.461885;0.095768064
10:33:05:050;-0.38307226;9.461885;0.095768064
10:33:05:050;-0.38307226;9.461885;0.095768064
10:33:05:050;-0.38307226;9.461885;0.095768064
10:33:05:050;-0.38307226;9.461885;0.095768064
10:33:05:050;-0.38307226;9.461885;0.095768064
10:33:05:050;-0.38307226;9.461885;0.095768064
10:33:05:050;-0.38307226;9.461885;0.095768064
10:33:05:050;-0.38307226;9.461885;0.095768064
10:33:05:050;-0.38307226;9.461885;0.095768064
10:33:05:050;-0.38307226;9.461885;0.095768064
10:33:05:154;0.51714754;11.473015;-0.78529817
10:33:05:154;0.51714754;11.473015;-0.78529817
10:33:05:154;0.51714754;11.473015;-0.78529817
10:33:05:154;0.51714754;11.473015;-0.78529817
10:33:05:154;0.51714754;11.473015;-0.78529817
10:33:05:154;0.51714754;11.473015;-0.78529817
10:33:05:154;0.51714754;11.473015;-0.78529817
10:33:05:154;0.51714754;11.473015;-0.78529817
10:33:05:154;0.51714754;11.473015;-0.78529817
10:33:05:154;0.51714754;11.473015;-0.78529817
10:33:05:154;0.51714754;11.473015;-0.78529817
10:33:05:154;0.51714754;11.473015;-0.78529817
10:33:05:154;0.51714754;11.473015;-0.78529817
10:33:05:154;0.51714754;11.473015;-0.78529817
10:33:05:154;0.51714754;11.473015;-0.78529817
10:33:05:272;0.61291564;10.28549;-0.93852705
10:33:05:272;0.61291564;10.28549;-0.93852705
10:33:05:272;0.61291564;10.28549;-0.93852705
10:33:05:272;0.61291564;10.28549;-0.93852705
10:33:05:272;0.61291564;10.28549;-0.93852705
10:33:05:272;0.61291564;10.28549;-0.93852705
10:33:05:272;0.61291564;10.28549;-0.93852705
10:33:05:272;0.61291564;10.28549;-0.93852705
10:33:05:272;0.61291564;10.28549;-0.93852705
10:33:05:272;0.61291564;10.28549;-0.93852705
10:33:05:272;0.61291564;10.28549;-0.93852705
10:33:05:272;0.61291564;10.28549;-0.93852705
10:33:05:272;0.61291564;10.28549;-0.93852705
10:33:05:272;0.61291564;10.28549;-0.93852705
10:33:05:272;0.61291564;10.28549;-0.93852705
10:33:05:384;-0.8810662;9.32781;0.21068975
10:33:05:384;-0.8810662;9.32781;0.21068975
10:33:05:384;-0.8810662;9.32781;0.21068975
10:33:05:384;-0.8810662;9.32781;0.21068975
10:33:05:384;-0.8810662;9.32781;0.21068975
10:33:05:384;-0.8810662;9.32781;0.21068975
10:33:05:384;-0.8810662;9.32781;0.21068975
10:33:05:384;-0.8810662;9.32781;0.21068975
10:33:05:384;-0.8810662;9.32781;0.21068975
10:33:05:384;-0.8810662;9.32781;0.21068975
10:33:05:384;-0.8810662;9.32781;0.21068975
10:33:05:384;-0.8810662;9.32781;0.21068975
10:33:05:384;-0.8810662;9.32781;0.21068975
10:33:05:384;-0.8810662;9.32781;0.21068975
10:33:05:497;-0.11492168;11.60709;-0.6703765
10:33:05:497;-0.11492168;11.60709;-0.6703765
10:33:05:497;-0.11492168;11.60709;-0.6703765
10:33:05:497;-0.11492168;11.60709;-0.6703765
10:33:05:497;-0.11492168;11.60709;-0.6703765
10:33:05:497;-0.11492168;11.60709;-0.6703765
10:33:05:497;-0.11492168;11.60709;-0.6703765
10:33:05:497;-0.11492168;11.60709;-0.6703765
10:33:05:497;-0.11492168;11.60709;-0.6703765
10:33:05:497;-0.11492168;11.60709;-0.6703765
10:33:05:497;-0.11492168;11.60709;-0.6703765
10:33:05:497;-0.11492168;11.60709;-0.6703765
10:33:05:497;-0.11492168;11.60709;-0.6703765
10:33:05:497;-0.11492168;11.60709;-0.6703765
10:33:05:497;-0.11492168;11.60709;-0.6703765
10:33:05:615;0.2873042;9.155427;0.90021986
10:33:05:615;0.2873042;9.155427;0.90021986
10:33:05:615;0.2873042;9.155427;0.90021986
10:33:05:615;0.2873042;9.155427;0.90021986
10:33:05:615;0.2873042;9.155427;0.90021986
10:33:05:615;0.2873042;9.155427;0.90021986
10:33:05:615;0.2873042;9.155427;0.90021986
10:33:05:615;0.2873042;9.155427;0.90021986
10:33:05:615;0.2873042;9.155427;0.90021986
10:33:05:615;0.2873042;9.155427;0.90021986
10:33:05:615;0.2873042;9.155427;0.90021986
10:33:05:615;0.2873042;9.155427;0.90021986
10:33:05:615;0.2873042;9.155427;0.90021986
10:33:05:718;-0.90021986;10.170568;-0.1340753
10:33:05:718;-0.90021986;10.170568;-0.1340753
10:33:05:718;-0.90021986;10.170568;-0.1340753
10:33:05:718;-0.90021986;10.170568;-0.1340753
10:33:05:718;-0.90021986;10.170568;-0.1340753
10:33:05:718;-0.90021986;10.170568;-0.1340753
10:33:05:718;-0.90021986;10.170568;-0.1340753
10:33:05:718;-0.90021986;10.170568;-0.1340753
10:33:05:718;-0.90021986;10.170568;-0.1340753
10:33:05:718;-0.90021986;10.170568;-0.1340753
10:33:05:718;-0.90021986;10.170568;-0.1340753
10:33:05:718;-0.90021986;10.170568;-0.1340753
10:33:05:718;-0.90021986;10.170568;-0.1340753
10:33:05:718;-0.90021986;10.170568;-0.1340753
10:33:05:718;-0.90021986;10.170568;-0.1340753
10:33:05:829;-0.93852705;11.549629;0.038307227
10:33:05:829;-0.93852705;11.549629;0.038307227
10:33:05:829;-0.93852705;11.549629;0.038307227
10:33:05:829;-0.93852705;11.549629;0.038307227
10:33:05:829;-0.93852705;11.549629;0.038307227
10:33:05:829;-0.93852705;11.549629;0.038307227
10:33:05:829;-0.93852705;11.549629;0.038307227
10:33:05:829;-0.93852705;11.549629;0.038307227
10:33:05:829;-0.93852705;11.549629;0.038307227
10:33:05:829;-0.93852705;11.549629;0.038307227
10:33:05:829;-0.93852705;11.549629;0.038307227
10:33:05:829;-0.93852705;11.549629;0.038307227
10:33:05:829;-0.93852705;11.549629;0.038307227
10:33:05:829;-0.93852705;11.549629;0.038307227
10:33:05:829;-0.93852705;11.549629;0.038307227
10:33:05:948;0.24899697;8.887277;0.24899697
10:33:05:948;0.24899697;8.887277;0.24899697
10:33:05:948;0.24899697;8.887277;0.24899697
10:33:05:948;0.24899697;8.887277;0.24899697
10:33:05:948;0.24899697;8.887277;0.24899697
10:33:05:948;0.24899697;8.887277;0.24899697
10:33:05:948;0.24899697;8.887277;0.24899697
10:33:05:948;0.24899697;8.887277;0.24899697
10:33:05:948;0.24899697;8.887277;0.24899697
10:33:05:948;0.24899697;8.887277;0.24899697
10:33:05:948;0.24899697;8.887277;0.24899697
10:33:05:948;0.24899697;8.887277;0.24899697
10:33:05:948;0.24899697;8.887277;0.24899697
10:33:05:948;0.24899697;8.887277;0.24899697
10:33:06:057;0.076614454;9.710882;0.30645782
10:33:06:057;0.076614454;9.710882;0.30645782
10:33:06:057;0.076614454;9.710882;0.30645782
10:33:06:057;0.076614454;9.710882;0.30645782
10:33:06:057;0.076614454;9.710882;0.30645782
10:33:06:057;0.076614454;9.710882;0.30645782
10:33:06:057;0.076614454;9.710882;0.30645782
10:33:06:057;0.076614454;9.710882;0.30645782
10:33:06:057;0.076614454;9.710882;0.30645782
10:33:06:057;0.076614454;9.710882;0.30645782
10:33:06:057;0.076614454;9.710882;0.30645782
10:33:06:057;0.076614454;9.710882;0.30645782
10:33:06:057;0.076614454;9.710882;0.30645782
10:33:06:057;0.076614454;9.710882;0.30645782
10:33:06:057;0.076614454;9.710882;0.30645782
10:33:06:175;-0.38307226;9.251195;0.34476504
10:33:06:175;-0.38307226;9.251195;0.34476504
10:33:06:175;-0.38307226;9.251195;0.34476504
10:33:06:175;-0.38307226;9.251195;0.34476504
10:33:06:175;-0.38307226;9.251195;0.34476504
10:33:06:175;-0.38307226;9.251195;0.34476504
10:33:06:175;-0.38307226;9.251195;0.34476504
10:33:06:175;-0.38307226;9.251195;0.34476504
10:33:06:175;-0.38307226;9.251195;0.34476504
10:33:06:175;-0.38307226;9.251195;0.34476504
10:33:06:175;-0.38307226;9.251195;0.34476504
10:33:06:175;-0.38307226;9.251195;0.34476504
10:33:06:175;-0.38307226;9.251195;0.34476504
10:33:06:279;-0.11492168;9.749189;0.40222588
10:33:06:279;-0.11492168;9.749189;0.40222588
10:33:06:279;-0.11492168;9.749189;0.40222588
10:33:06:279;-0.11492168;9.749189;0.40222588
10:33:06:279;-0.11492168;9.749189;0.40222588
10:33:06:279;-0.11492168;9.749189;0.40222588
10:33:06:279;-0.11492168;9.749189;0.40222588
10:33:06:279;-0.11492168;9.749189;0.40222588
10:33:06:279;-0.11492168;9.749189;0.40222588
10:33:06:279;-0.11492168;9.749189;0.40222588
10:33:06:279;-0.11492168;9.749189;0.40222588
10:33:06:279;-0.11492168;9.749189;0.40222588
10:33:06:279;-0.11492168;9.749189;0.40222588
10:33:06:382;-0.45968673;10.247183;0.45968673
10:33:06:382;-0.45968673;10.247183;0.45968673
10:33:06:382;-0.45968673;10.247183;0.45968673
10:33:06:382;-0.45968673;10.247183;0.45968673
10:33:06:382;-0.45968673;10.247183;0.45968673
10:33:06:382;-0.45968673;10.247183;0.45968673
10:33:06:382;-0.45968673;10.247183;0.45968673
10:33:06:382;-0.45968673;10.247183;0.45968673
10:33:06:382;-0.45968673;10.247183;0.45968673
10:33:06:382;-0.45968673;10.247183;0.45968673
10:33:06:382;-0.45968673;10.247183;0.45968673
10:33:06:382;-0.45968673;10.247183;0.45968673
10:33:06:382;-0.45968673;10.247183;0.45968673
10:33:06:382;-0.45968673;10.247183;0.45968673
10:33:06:485;-0.7086837;9.864111;0.17238252
10:33:06:485;-0.7086837;9.864111;0.17238252
10:33:06:485;-0.7086837;9.864111;0.17238252
10:33:06:485;-0.7086837;9.864111;0.17238252
10:33:06:485;-0.7086837;9.864111;0.17238252
10:33:06:485;-0.7086837;9.864111;0.17238252
10:33:06:485;-0.7086837;9.864111;0.17238252
10:33:06:485;-0.7086837;9.864111;0.17238252
10:33:06:485;-0.7086837;9.864111;0.17238252
10:33:06:485;-0.7086837;9.864111;0.17238252
10:33:06:485;-0.7086837;9.864111;0.17238252
10:33:06:485;-0.7086837;9.864111;0.17238252
10:33:06:485;-0.7086837;9.864111;0.17238252
10:33:06:485;-0.7086837;9.864111;0.17238252
10:33:06:485;-0.7086837;9.864111;0.17238252
10:33:06:602;-0.45968673;10.055647;0.11492168
10:33:06:602;-0.45968673;10.055647;0.11492168
10:33:06:602;-0.45968673;10.055647;0.11492168
10:33:06:602;-0.45968673;10.055647;0.11492168
10:33:06:602;-0.45968673;10.055647;0.11492168
10:33:06:602;-0.45968673;10.055647;0.11492168
10:33:06:602;-0.45968673;10.055647;0.11492168
10:33:06:602;-0.45968673;10.055647;0.11492168
10:33:06:602;-0.45968673;10.055647;0.11492168
10:33:06:602;-0.45968673;10.055647;0.11492168
10:33:06:602;-0.45968673;10.055647;0.11492168
10:33:06:602;-0.45968673;10.055647;0.11492168
10:33:06:602;-0.45968673;10.055647;0.11492168
10:33:06:602;-0.45968673;10.055647;0.11492168
10:33:06:602;-0.45968673;10.055647;0.11492168
10:33:06:722;-0.095768064;9.959879;0.11492168
10:33:06:722;-0.095768064;9.959879;0.11492168
10:33:06:722;-0.095768064;9.959879;0.11492168
10:33:06:722;-0.095768064;9.959879;0.11492168
10:33:06:722;-0.095768064;9.959879;0.11492168
10:33:06:722;-0.095768064;9.959879;0.11492168
10:33:06:722;-0.095768064;9.959879;0.11492168
10:33:06:722;-0.095768064;9.959879;0.11492168
10:33:06:722;-0.095768064;9.959879;0.11492168
10:33:06:722;-0.095768064;9.959879;0.11492168
10:33:06:722;-0.095768064;9.959879;0.11492168
10:33:06:722;-0.095768064;9.959879;0.11492168
10:33:06:722;-0.095768064;9.959879;0.11492168
10:33:06:722;-0.095768064;9.959879;0.11492168
10:33:06:722;-0.095768064;9.959879;0.11492168
10:33:06:838;-0.038307227;9.385271;0.32561144
10:33:06:838;-0.038307227;9.385271;0.32561144
10:33:06:838;-0.038307227;9.385271;0.32561144
10:33:06:838;-0.038307227;9.385271;0.32561144
10:33:06:838;-0.038307227;9.385271;0.32561144
10:33:06:838;-0.038307227;9.385271;0.32561144
10:33:06:838;-0.038307227;9.385271;0.32561144
10:33:06:838;-0.038307227;9.385271;0.32561144
10:33:06:838;-0.038307227;9.385271;0.32561144
10:33:06:838;-0.038307227;9.385271;0.32561144
10:33:06:838;-0.038307227;9.385271;0.32561144
10:33:06:838;-0.038307227;9.385271;0.32561144
10:33:06:838;-0.038307227;9.385271;0.32561144
10:33:06:942;-0.5746084;10.01734;0.80445176
10:33:06:942;-0.5746084;10.01734;0.80445176
10:33:06:942;-0.5746084;10.01734;0.80445176
10:33:06:942;-0.5746084;10.01734;0.80445176
10:33:06:942;-0.5746084;10.01734;0.80445176
10:33:06:942;-0.5746084;10.01734;0.80445176
10:33:06:942;-0.5746084;10.01734;0.80445176
10:33:06:942;-0.5746084;10.01734;0.80445176
10:33:06:942;-0.5746084;10.01734;0.80445176
10:33:06:942;-0.5746084;10.01734;0.80445176
10:33:06:942;-0.5746084;10.01734;0.80445176
10:33:06:942;-0.5746084;10.01734;0.80445176
10:33:06:942;-0.5746084;10.01734;0.80445176
10:33:07:043;-0.4405331;11.109096;0.21068975
10:33:07:043;-0.4405331;11.109096;0.21068975
10:33:07:043;-0.4405331;11.109096;0.21068975
10:33:07:043;-0.4405331;11.109096;0.21068975
10:33:07:043;-0.4405331;11.109096;0.21068975
10:33:07:043;-0.4405331;11.109096;0.21068975
10:33:07:043;-0.4405331;11.109096;0.21068975
10:33:07:043;-0.4405331;11.109096;0.21068975
10:33:07:043;-0.4405331;11.109096;0.21068975
10:33:07:043;-0.4405331;11.109096;0.21068975
10:33:07:043;-0.4405331;11.109096;0.21068975
10:33:07:043;-0.4405331;11.109096;0.21068975
10:33:07:043;-0.4405331;11.109096;0.21068975
10:33:07:043;-0.4405331;11.109096;0.21068975
10:33:07:043;-0.4405331;11.109096;0.21068975
10:33:07:162;0.019153614;11.051635;-0.8810662
10:33:07:162;0.019153614;11.051635;-0.8810662
10:33:07:162;0.019153614;11.051635;-0.8810662
10:33:07:162;0.019153614;11.051635;-0.8810662
10:33:07:162;0.019153614;11.051635;-0.8810662
10:33:07:162;0.019153614;11.051635;-0.8810662
10:33:07:162;0.019153614;11.051635;-0.8810662
10:33:07:162;0.019153614;11.051635;-0.8810662
10:33:07:162;0.019153614;11.051635;-0.8810662
10:33:07:162;0.019153614;11.051635;-0.8810662
10:33:07:162;0.019153614;11.051635;-0.8810662
10:33:07:162;0.019153614;11.051635;-0.8810662
10:33:07:162;0.019153614;11.051635;-0.8810662
10:33:07:162;0.019153614;11.051635;-0.8810662
10:33:07:162;0.019153614;11.051635;-0.8810662
10:33:07:162;0.019153614;11.051635;-0.8810662
10:33:07:162;0.019153614;11.051635;-0.8810662
10:33:07:162;0.019153614;11.051635;-0.8810662
10:33:07:162;0.019153614;11.051635;-0.8810662
10:33:07:162;0.019153614;11.051635;-0.8810662
10:33:07:162;0.019153614;11.051635;-0.8810662
10:33:07:322;-0.1340753;9.461885;0.15322891
10:33:07:322;-0.1340753;9.461885;0.15322891
10:33:07:322;-0.1340753;9.461885;0.15322891
10:33:07:322;-0.1340753;9.461885;0.15322891
10:33:07:322;-0.1340753;9.461885;0.15322891
10:33:07:322;-0.1340753;9.461885;0.15322891
10:33:07:322;-0.1340753;9.461885;0.15322891
10:33:07:322;-0.1340753;9.461885;0.15322891
10:33:07:322;-0.1340753;9.461885;0.15322891
10:33:07:322;-0.1340753;9.461885;0.15322891
10:33:07:322;-0.1340753;9.461885;0.15322891
10:33:07:322;-0.1340753;9.461885;0.15322891
10:33:07:322;-0.1340753;9.461885;0.15322891
10:33:07:428;-0.15322891;10.457873;-0.1340753
10:33:07:428;-0.15322891;10.457873;-0.1340753
10:33:07:428;-0.15322891;10.457873;-0.1340753
10:33:07:428;-0.15322891;10.457873;-0.1340753
10:33:07:428;-0.15322891;10.457873;-0.1340753
10:33:07:428;-0.15322891;10.457873;-0.1340753
10:33:07:428;-0.15322891;10.457873;-0.1340753
10:33:07:428;-0.15322891;10.457873;-0.1340753
10:33:07:428;-0.15322891;10.457873;-0.1340753
10:33:07:428;-0.15322891;10.457873;-0.1340753
10:33:07:428;-0.15322891;10.457873;-0.1340753
10:33:07:428;-0.15322891;10.457873;-0.1340753
10:33:07:428;-0.15322891;10.457873;-0.1340753
10:33:07:428;-0.15322891;10.457873;-0.1340753
10:33:07:539;0.91937345;9.3661175;1.2066777
10:33:07:539;0.91937345;9.3661175;1.2066777
10:33:07:539;0.91937345;9.3661175;1.2066777
10:33:07:539;0.91937345;9.3661175;1.2066777
10:33:07:539;0.91937345;9.3661175;1.2066777
10:33:07:539;0.91937345;9.3661175;1.2066777
10:33:07:539;0.91937345;9.3661175;1.2066777
10:33:07:539;0.91937345;9.3661175;1.2066777
10:33:07:539;0.91937345;9.3661175;1.2066777
10:33:07:539;0.91937345;9.3661175;1.2066777
10:33:07:539;0.91937345;9.3661175;1.2066777
10:33:07:539;0.91937345;9.3661175;1.2066777
10:33:07:539;0.91937345;9.3661175;1.2066777
10:33:07:539;0.91937345;9.3661175;1.2066777
10:33:07:642;-0.095768064;10.477027;0.019153614
10:33:07:642;-0.095768064;10.477027;0.019153614
10:33:07:642;-0.095768064;10.477027;0.019153614
10:33:07:642;-0.095768064;10.477027;0.019153614
10:33:07:642;-0.095768064;10.477027;0.019153614
10:33:07:642;-0.095768064;10.477027;0.019153614
10:33:07:642;-0.095768064;10.477027;0.019153614
10:33:07:642;-0.095768064;10.477027;0.019153614
10:33:07:642;-0.095768064;10.477027;0.019153614
10:33:07:642;-0.095768064;10.477027;0.019153614
10:33:07:642;-0.095768064;10.477027;0.019153614
10:33:07:642;-0.095768064;10.477027;0.019153614
10:33:07:642;-0.095768064;10.477027;0.019153614
10:33:07:642;-0.095768064;10.477027;0.019153614
10:33:07:642;-0.095768064;10.477027;0.019153614
10:33:07:760;-0.40222588;8.178593;0.7469909
10:33:07:760;-0.40222588;8.178593;0.7469909
10:33:07:760;-0.40222588;8.178593;0.7469909
10:33:07:760;-0.40222588;8.178593;0.7469909
10:33:07:760;-0.40222588;8.178593;0.7469909
10:33:07:760;-0.40222588;8.178593;0.7469909
10:33:07:760;-0.40222588;8.178593;0.7469909
10:33:07:760;-0.40222588;8.178593;0.7469909
10:33:07:760;-0.40222588;8.178593;0.7469909
10:33:07:760;-0.40222588;8.178593;0.7469909
10:33:07:760;-0.40222588;8.178593;0.7469909
10:33:07:760;-0.40222588;8.178593;0.7469909
10:33:07:760;-0.40222588;8.178593;0.7469909
10:33:07:760;-0.40222588;8.178593;0.7469909
10:33:07:760;-0.40222588;8.178593;0.7469909
10:33:07:877;-0.63206923;11.243171;-0.8810662
10:33:07:877;-0.63206923;11.243171;-0.8810662
10:33:07:877;-0.63206923;11.243171;-0.8810662
10:33:07:877;-0.63206923;11.243171;-0.8810662
10:33:07:877;-0.63206923;11.243171;-0.8810662
10:33:07:877;-0.63206923;11.243171;-0.8810662
10:33:07:877;-0.63206923;11.243171;-0.8810662
10:33:07:877;-0.63206923;11.243171;-0.8810662
10:33:07:877;-0.63206923;11.243171;-0.8810662
10:33:07:877;-0.63206923;11.243171;-0.8810662
10:33:07:877;-0.63206923;11.243171;-0.8810662
10:33:07:877;-0.63206923;11.243171;-0.8810662
10:33:07:877;-0.63206923;11.243171;-0.8810662
10:33:07:877;-0.63206923;11.243171;-0.8810662
10:33:07:877;-0.63206923;11.243171;-0.8810662
10:33:07:994;0.5746084;9.442732;0.40222588
10:33:07:994;0.5746084;9.442732;0.40222588
10:33:07:994;0.5746084;9.442732;0.40222588
10:33:07:994;0.5746084;9.442732;0.40222588
10:33:07:994;0.5746084;9.442732;0.40222588
10:33:07:994;0.5746084;9.442732;0.40222588
10:33:07:994;0.5746084;9.442732;0.40222588
10:33:07:994;0.5746084;9.442732;0.40222588
10:33:07:994;0.5746084;9.442732;0.40222588
10:33:07:994;0.5746084;9.442732;0.40222588
10:33:07:994;0.5746084;9.442732;0.40222588
10:33:07:994;0.5746084;9.442732;0.40222588
10:33:07:994;0.5746084;9.442732;0.40222588
10:33:07:994;0.5746084;9.442732;0.40222588
10:33:07:994;0.5746084;9.442732;0.40222588
10:33:08:112;-0.7469909;9.251195;0.1340753
10:33:08:112;-0.7469909;9.251195;0.1340753
10:33:08:112;-0.7469909;9.251195;0.1340753
10:33:08:112;-0.7469909;9.251195;0.1340753
10:33:08:112;-0.7469909;9.251195;0.1340753
10:33:08:112;-0.7469909;9.251195;0.1340753
10:33:08:112;-0.7469909;9.251195;0.1340753
10:33:08:112;-0.7469909;9.251195;0.1340753
10:33:08:112;-0.7469909;9.251195;0.1340753
10:33:08:112;-0.7469909;9.251195;0.1340753
10:33:08:112;-0.7469909;9.251195;0.1340753
10:33:08:112;-0.7469909;9.251195;0.1340753
10:33:08:112;-0.7469909;9.251195;0.1340753
10:33:08:112;-0.7469909;9.251195;0.1340753
10:33:08:221;-0.22984336;9.902418;-0.36391866
10:33:08:221;-0.22984336;9.902418;-0.36391866
10:33:08:221;-0.22984336;9.902418;-0.36391866
10:33:08:221;-0.22984336;9.902418;-0.36391866
10:33:08:221;-0.22984336;9.902418;-0.36391866
10:33:08:221;-0.22984336;9.902418;-0.36391866
10:33:08:221;-0.22984336;9.902418;-0.36391866
10:33:08:221;-0.22984336;9.902418;-0.36391866
10:33:08:221;-0.22984336;9.902418;-0.36391866
10:33:08:221;-0.22984336;9.902418;-0.36391866
10:33:08:221;-0.22984336;9.902418;-0.36391866
10:33:08:221;-0.22984336;9.902418;-0.36391866
10:33:08:221;-0.22984336;9.902418;-0.36391866
10:33:08:325;0.842759;11.779472;-1.9728222
10:33:08:325;0.842759;11.779472;-1.9728222
10:33:08:325;0.842759;11.779472;-1.9728222
10:33:08:325;0.842759;11.779472;-1.9728222
10:33:08:325;0.842759;11.779472;-1.9728222
10:33:08:325;0.842759;11.779472;-1.9728222
10:33:08:325;0.842759;11.779472;-1.9728222
10:33:08:325;0.842759;11.779472;-1.9728222
10:33:08:325;0.842759;11.779472;-1.9728222
10:33:08:325;0.842759;11.779472;-1.9728222
10:33:08:325;0.842759;11.779472;-1.9728222
10:33:08:325;0.842759;11.779472;-1.9728222
10:33:08:325;0.842759;11.779472;-1.9728222
10:33:08:429;0.21068975;12.430696;-1.4173675
10:33:08:429;0.21068975;12.430696;-1.4173675
10:33:08:429;0.21068975;12.430696;-1.4173675
10:33:08:429;0.21068975;12.430696;-1.4173675
10:33:08:429;0.21068975;12.430696;-1.4173675
10:33:08:429;0.21068975;12.430696;-1.4173675
10:33:08:429;0.21068975;12.430696;-1.4173675
10:33:08:429;0.21068975;12.430696;-1.4173675
10:33:08:429;0.21068975;12.430696;-1.4173675
10:33:08:429;0.21068975;12.430696;-1.4173675
10:33:08:429;0.21068975;12.430696;-1.4173675
10:33:08:429;0.21068975;12.430696;-1.4173675
10:33:08:429;0.21068975;12.430696;-1.4173675
10:33:08:429;0.21068975;12.430696;-1.4173675
10:33:08:429;0.21068975;12.430696;-1.4173675
10:33:08:429;0.21068975;12.430696;-1.4173675
10:33:08:547;-1.4556746;10.132261;1.3790601
10:33:08:547;-1.4556746;10.132261;1.3790601
10:33:08:547;-1.4556746;10.132261;1.3790601
10:33:08:547;-1.4556746;10.132261;1.3790601
10:33:08:547;-1.4556746;10.132261;1.3790601
10:33:08:547;-1.4556746;10.132261;1.3790601
10:33:08:547;-1.4556746;10.132261;1.3790601
10:33:08:547;-1.4556746;10.132261;1.3790601
10:33:08:547;-1.4556746;10.132261;1.3790601
10:33:08:547;-1.4556746;10.132261;1.3790601
10:33:08:547;-1.4556746;10.132261;1.3790601
10:33:08:547;-1.4556746;10.132261;1.3790601
10:33:08:547;-1.4556746;10.132261;1.3790601
10:33:08:547;-1.4556746;10.132261;1.3790601
10:33:08:547;-1.4556746;10.132261;1.3790601
10:33:08:665;0.2681506;8.408437;0.7278373
10:33:08:665;0.2681506;8.408437;0.7278373
10:33:08:665;0.2681506;8.408437;0.7278373
10:33:08:665;0.2681506;8.408437;0.7278373
10:33:08:665;0.2681506;8.408437;0.7278373
10:33:08:665;0.2681506;8.408437;0.7278373
10:33:08:665;0.2681506;8.408437;0.7278373
10:33:08:665;0.2681506;8.408437;0.7278373
10:33:08:665;0.2681506;8.408437;0.7278373
10:33:08:665;0.2681506;8.408437;0.7278373
10:33:08:665;0.2681506;8.408437;0.7278373
10:33:08:665;0.2681506;8.408437;0.7278373
10:33:08:665;0.2681506;8.408437;0.7278373
10:33:08:769;-0.076614454;9.500193;-0.2873042
10:33:08:769;-0.076614454;9.500193;-0.2873042
10:33:08:769;-0.076614454;9.500193;-0.2873042
10:33:08:769;-0.076614454;9.500193;-0.2873042
10:33:08:769;-0.076614454;9.500193;-0.2873042
10:33:08:769;-0.076614454;9.500193;-0.2873042
10:33:08:769;-0.076614454;9.500193;-0.2873042
10:33:08:769;-0.076614454;9.500193;-0.2873042
10:33:08:769;-0.076614454;9.500193;-0.2873042
10:33:08:769;-0.076614454;9.500193;-0.2873042
10:33:08:769;-0.076614454;9.500193;-0.2873042
10:33:08:769;-0.076614454;9.500193;-0.2873042
10:33:08:769;-0.076614454;9.500193;-0.2873042
10:33:08:769;-0.076614454;9.500193;-0.2873042
10:33:08:769;-0.076614454;9.500193;-0.2873042
10:33:08:887;-0.63206923;10.97502;-0.7661445
10:33:08:887;-0.63206923;10.97502;-0.7661445
10:33:08:887;-0.63206923;10.97502;-0.7661445
10:33:08:887;-0.63206923;10.97502;-0.7661445
10:33:08:887;-0.63206923;10.97502;-0.7661445
10:33:08:887;-0.63206923;10.97502;-0.7661445
10:33:08:887;-0.63206923;10.97502;-0.7661445
10:33:08:887;-0.63206923;10.97502;-0.7661445
10:33:08:887;-0.63206923;10.97502;-0.7661445
10:33:08:887;-0.63206923;10.97502;-0.7661445
10:33:08:887;-0.63206923;10.97502;-0.7661445
10:33:08:887;-0.63206923;10.97502;-0.7661445
10:33:08:887;-0.63206923;10.97502;-0.7661445
10:33:08:887;-0.63206923;10.97502;-0.7661445
10:33:08:887;-0.63206923;10.97502;-0.7661445
10:33:09:004;-0.30645782;8.599973;0.45968673
10:33:09:004;-0.30645782;8.599973;0.45968673
10:33:09:004;-0.30645782;8.599973;0.45968673
10:33:09:004;-0.30645782;8.599973;0.45968673
10:33:09:004;-0.30645782;8.599973;0.45968673
10:33:09:004;-0.30645782;8.599973;0.45968673
10:33:09:004;-0.30645782;8.599973;0.45968673
10:33:09:004;-0.30645782;8.599973;0.45968673
10:33:09:004;-0.30645782;8.599973;0.45968673
10:33:09:004;-0.30645782;8.599973;0.45968673
10:33:09:004;-0.30645782;8.599973;0.45968673
10:33:09:004;-0.30645782;8.599973;0.45968673
10:33:09:004;-0.30645782;8.599973;0.45968673
10:33:09:106;-0.32561144;9.940725;-0.019153614
10:33:09:106;-0.32561144;9.940725;-0.019153614
10:33:09:106;-0.32561144;9.940725;-0.019153614
10:33:09:106;-0.32561144;9.940725;-0.019153614
10:33:09:106;-0.32561144;9.940725;-0.019153614
10:33:09:106;-0.32561144;9.940725;-0.019153614
10:33:09:106;-0.32561144;9.940725;-0.019153614
10:33:09:106;-0.32561144;9.940725;-0.019153614
10:33:09:106;-0.32561144;9.940725;-0.019153614
10:33:09:106;-0.32561144;9.940725;-0.019153614
10:33:09:106;-0.32561144;9.940725;-0.019153614
10:33:09:106;-0.32561144;9.940725;-0.019153614
10:33:09:106;-0.32561144;9.940725;-0.019153614
10:33:09:207;0.1340753;9.940725;0.6512229
10:33:09:207;0.1340753;9.940725;0.6512229
10:33:09:207;0.1340753;9.940725;0.6512229
10:33:09:207;0.1340753;9.940725;0.6512229
10:33:09:207;0.1340753;9.940725;0.6512229
10:33:09:207;0.1340753;9.940725;0.6512229
10:33:09:207;0.1340753;9.940725;0.6512229
10:33:09:207;0.1340753;9.940725;0.6512229
10:33:09:207;0.1340753;9.940725;0.6512229
10:33:09:207;0.1340753;9.940725;0.6512229
10:33:09:207;0.1340753;9.940725;0.6512229
10:33:09:207;0.1340753;9.940725;0.6512229
10:33:09:207;0.1340753;9.940725;0.6512229
10:33:09:310;0.1340753;10.649409;-0.93852705
10:33:09:310;0.1340753;10.649409;-0.93852705
10:33:09:310;0.1340753;10.649409;-0.93852705
10:33:09:310;0.1340753;10.649409;-0.93852705
10:33:09:310;0.1340753;10.649409;-0.93852705
10:33:09:310;0.1340753;10.649409;-0.93852705
10:33:09:310;0.1340753;10.649409;-0.93852705
10:33:09:310;0.1340753;10.649409;-0.93852705
10:33:09:310;0.1340753;10.649409;-0.93852705
10:33:09:310;0.1340753;10.649409;-0.93852705
10:33:09:310;0.1340753;10.649409;-0.93852705
10:33:09:310;0.1340753;10.649409;-0.93852705
10:33:09:310;0.1340753;10.649409;-0.93852705
10:33:09:413;0.34476504;9.251195;0.11492168
10:33:09:413;0.34476504;9.251195;0.11492168
10:33:09:413;0.34476504;9.251195;0.11492168
10:33:09:413;0.34476504;9.251195;0.11492168
10:33:09:413;0.34476504;9.251195;0.11492168
10:33:09:413;0.34476504;9.251195;0.11492168
10:33:09:413;0.34476504;9.251195;0.11492168
10:33:09:413;0.34476504;9.251195;0.11492168
10:33:09:413;0.34476504;9.251195;0.11492168
10:33:09:413;0.34476504;9.251195;0.11492168
10:33:09:413;0.34476504;9.251195;0.11492168
10:33:09:413;0.34476504;9.251195;0.11492168
10:33:09:413;0.34476504;9.251195;0.11492168
10:33:09:413;0.34476504;9.251195;0.11492168
10:33:09:413;0.34476504;9.251195;0.11492168
10:33:09:413;0.34476504;9.251195;0.11492168
10:33:09:534;-0.5363012;10.362105;-0.2873042
10:33:09:534;-0.5363012;10.362105;-0.2873042
10:33:09:534;-0.5363012;10.362105;-0.2873042
10:33:09:534;-0.5363012;10.362105;-0.2873042
10:33:09:534;-0.5363012;10.362105;-0.2873042
10:33:09:534;-0.5363012;10.362105;-0.2873042
10:33:09:534;-0.5363012;10.362105;-0.2873042
10:33:09:534;-0.5363012;10.362105;-0.2873042
10:33:09:534;-0.5363012;10.362105;-0.2873042
10:33:09:534;-0.5363012;10.362105;-0.2873042
10:33:09:534;-0.5363012;10.362105;-0.2873042
10:33:09:534;-0.5363012;10.362105;-0.2873042
10:33:09:534;-0.5363012;10.362105;-0.2873042
10:33:09:534;-0.5363012;10.362105;-0.2873042
10:33:09:534;-0.5363012;10.362105;-0.2873042
10:33:09:652;-0.1340753;11.453861;-1.0534488
10:33:09:652;-0.1340753;11.453861;-1.0534488
10:33:09:652;-0.1340753;11.453861;-1.0534488
10:33:09:652;-0.1340753;11.453861;-1.0534488
10:33:09:652;-0.1340753;11.453861;-1.0534488
10:33:09:652;-0.1340753;11.453861;-1.0534488
10:33:09:652;-0.1340753;11.453861;-1.0534488
10:33:09:652;-0.1340753;11.453861;-1.0534488
10:33:09:652;-0.1340753;11.453861;-1.0534488
10:33:09:652;-0.1340753;11.453861;-1.0534488
10:33:09:652;-0.1340753;11.453861;-1.0534488
10:33:09:652;-0.1340753;11.453861;-1.0534488
10:33:09:652;-0.1340753;11.453861;-1.0534488
10:33:09:652;-0.1340753;11.453861;-1.0534488
10:33:09:652;-0.1340753;11.453861;-1.0534488
10:33:09:770;0.5554548;10.055647;-0.8810662
10:33:09:770;0.5554548;10.055647;-0.8810662
10:33:09:770;0.5554548;10.055647;-0.8810662
10:33:09:770;0.5554548;10.055647;-0.8810662
10:33:09:770;0.5554548;10.055647;-0.8810662
10:33:09:770;0.5554548;10.055647;-0.8810662
10:33:09:770;0.5554548;10.055647;-0.8810662
10:33:09:770;0.5554548;10.055647;-0.8810662
10:33:09:770;0.5554548;10.055647;-0.8810662
10:33:09:770;0.5554548;10.055647;-0.8810662
10:33:09:770;0.5554548;10.055647;-0.8810662
10:33:09:770;0.5554548;10.055647;-0.8810662
10:33:09:770;0.5554548;10.055647;-0.8810662
10:33:09:770;0.5554548;10.055647;-0.8810662
10:33:09:770;0.5554548;10.055647;-0.8810662
10:33:09:887;-0.21068975;8.734048;1.3982137
10:33:09:887;-0.21068975;8.734048;1.3982137
10:33:09:887;-0.21068975;8.734048;1.3982137
10:33:09:887;-0.21068975;8.734048;1.3982137
10:33:09:887;-0.21068975;8.734048;1.3982137
10:33:09:887;-0.21068975;8.734048;1.3982137
10:33:09:887;-0.21068975;8.734048;1.3982137
10:33:09:887;-0.21068975;8.734048;1.3982137
10:33:09:887;-0.21068975;8.734048;1.3982137
10:33:09:887;-0.21068975;8.734048;1.3982137
10:33:09:887;-0.21068975;8.734048;1.3982137
10:33:09:887;-0.21068975;8.734048;1.3982137
10:33:09:887;-0.21068975;8.734048;1.3982137
10:33:09:887;-0.21068975;8.734048;1.3982137
10:33:09:887;-0.21068975;8.734048;1.3982137
10:33:10:007;-0.40222588;10.151415;0.17238252
10:33:10:007;-0.40222588;10.151415;0.17238252
10:33:10:007;-0.40222588;10.151415;0.17238252
10:33:10:007;-0.40222588;10.151415;0.17238252
10:33:10:007;-0.40222588;10.151415;0.17238252
10:33:10:007;-0.40222588;10.151415;0.17238252
10:33:10:007;-0.40222588;10.151415;0.17238252
10:33:10:007;-0.40222588;10.151415;0.17238252
10:33:10:007;-0.40222588;10.151415;0.17238252
10:33:10:007;-0.40222588;10.151415;0.17238252
10:33:10:007;-0.40222588;10.151415;0.17238252
10:33:10:007;-0.40222588;10.151415;0.17238252
10:33:10:007;-0.40222588;10.151415;0.17238252
10:33:10:007;-0.40222588;10.151415;0.17238252
10:33:10:007;-0.40222588;10.151415;0.17238252
10:33:10:122;-0.076614454;10.496181;-0.4213795
10:33:10:122;-0.076614454;10.496181;-0.4213795
10:33:10:122;-0.076614454;10.496181;-0.4213795
10:33:10:122;-0.076614454;10.496181;-0.4213795
10:33:10:122;-0.076614454;10.496181;-0.4213795
10:33:10:122;-0.076614454;10.496181;-0.4213795
10:33:10:122;-0.076614454;10.496181;-0.4213795
10:33:10:122;-0.076614454;10.496181;-0.4213795
10:33:10:122;-0.076614454;10.496181;-0.4213795
10:33:10:122;-0.076614454;10.496181;-0.4213795
10:33:10:122;-0.076614454;10.496181;-0.4213795
10:33:10:122;-0.076614454;10.496181;-0.4213795
10:33:10:122;-0.076614454;10.496181;-0.4213795
10:33:10:225;0.45968673;11.243171;-0.63206923
10:33:10:225;0.45968673;11.243171;-0.63206923
10:33:10:225;0.45968673;11.243171;-0.63206923
10:33:10:225;0.45968673;11.243171;-0.63206923
10:33:10:225;0.45968673;11.243171;-0.63206923
10:33:10:225;0.45968673;11.243171;-0.63206923
10:33:10:225;0.45968673;11.243171;-0.63206923
10:33:10:225;0.45968673;11.243171;-0.63206923
10:33:10:225;0.45968673;11.243171;-0.63206923
10:33:10:225;0.45968673;11.243171;-0.63206923
10:33:10:225;0.45968673;11.243171;-0.63206923
10:33:10:225;0.45968673;11.243171;-0.63206923
10:33:10:225;0.45968673;11.243171;-0.63206923
10:33:10:225;0.45968673;11.243171;-0.63206923
10:33:10:331;-0.2681506;11.511322;-0.4213795
10:33:10:331;-0.2681506;11.511322;-0.4213795
10:33:10:331;-0.2681506;11.511322;-0.4213795
10:33:10:331;-0.2681506;11.511322;-0.4213795
10:33:10:331;-0.2681506;11.511322;-0.4213795
10:33:10:331;-0.2681506;11.511322;-0.4213795
10:33:10:331;-0.2681506;11.511322;-0.4213795
10:33:10:331;-0.2681506;11.511322;-0.4213795
10:33:10:331;-0.2681506;11.511322;-0.4213795
10:33:10:331;-0.2681506;11.511322;-0.4213795
10:33:10:331;-0.2681506;11.511322;-0.4213795
10:33:10:331;-0.2681506;11.511322;-0.4213795
10:33:10:331;-0.2681506;11.511322;-0.4213795
10:33:10:433;-0.34476504;10.0748005;-0.34476504
10:33:10:433;-0.34476504;10.0748005;-0.34476504
10:33:10:433;-0.34476504;10.0748005;-0.34476504
10:33:10:433;-0.34476504;10.0748005;-0.34476504
10:33:10:433;-0.34476504;10.0748005;-0.34476504
10:33:10:433;-0.34476504;10.0748005;-0.34476504
10:33:10:433;-0.34476504;10.0748005;-0.34476504
10:33:10:433;-0.34476504;10.0748005;-0.34476504
10:33:10:433;-0.34476504;10.0748005;-0.34476504
10:33:10:433;-0.34476504;10.0748005;-0.34476504
10:33:10:433;-0.34476504;10.0748005;-0.34476504
10:33:10:433;-0.34476504;10.0748005;-0.34476504
10:33:10:433;-0.34476504;10.0748005;-0.34476504
10:33:10:433;-0.34476504;10.0748005;-0.34476504
10:33:10:433;-0.34476504;10.0748005;-0.34476504
10:33:10:553;-0.59376204;11.3964;-0.6703765
10:33:10:553;-0.59376204;11.3964;-0.6703765
10:33:10:553;-0.59376204;11.3964;-0.6703765
10:33:10:553;-0.59376204;11.3964;-0.6703765
10:33:10:553;-0.59376204;11.3964;-0.6703765
10:33:10:553;-0.59376204;11.3964;-0.6703765
10:33:10:553;-0.59376204;11.3964;-0.6703765
10:33:10:553;-0.59376204;11.3964;-0.6703765
10:33:10:553;-0.59376204;11.3964;-0.6703765
10:33:10:553;-0.59376204;11.3964;-0.6703765
10:33:10:553;-0.59376204;11.3964;-0.6703765
10:33:10:553;-0.59376204;11.3964;-0.6703765
10:33:10:553;-0.59376204;11.3964;-0.6703765
10:33:10:553;-0.59376204;11.3964;-0.6703765
10:33:10:553;-0.59376204;11.3964;-0.6703765
10:33:10:553;-0.59376204;11.3964;-0.6703765
10:33:10:674;-0.7661445;11.377247;-0.9576807
10:33:10:674;-0.7661445;11.377247;-0.9576807
10:33:10:674;-0.7661445;11.377247;-0.9576807
10:33:10:674;-0.7661445;11.377247;-0.9576807
10:33:10:674;-0.7661445;11.377247;-0.9576807
10:33:10:674;-0.7661445;11.377247;-0.9576807
10:33:10:674;-0.7661445;11.377247;-0.9576807
10:33:10:674;-0.7661445;11.377247;-0.9576807
10:33:10:674;-0.7661445;11.377247;-0.9576807
10:33:10:674;-0.7661445;11.377247;-0.9576807
10:33:10:674;-0.7661445;11.377247;-0.9576807
10:33:10:674;-0.7661445;11.377247;-0.9576807
10:33:10:674;-0.7661445;11.377247;-0.9576807
10:33:10:674;-0.7661445;11.377247;-0.9576807
10:33:10:788;-0.6703765;8.676587;0.32561144
10:33:10:788;-0.6703765;8.676587;0.32561144
10:33:10:788;-0.6703765;8.676587;0.32561144
10:33:10:788;-0.6703765;8.676587;0.32561144
10:33:10:788;-0.6703765;8.676587;0.32561144
10:33:10:788;-0.6703765;8.676587;0.32561144
10:33:10:788;-0.6703765;8.676587;0.32561144
10:33:10:788;-0.6703765;8.676587;0.32561144
10:33:10:788;-0.6703765;8.676587;0.32561144
10:33:10:788;-0.6703765;8.676587;0.32561144
10:33:10:788;-0.6703765;8.676587;0.32561144
10:33:10:788;-0.6703765;8.676587;0.32561144
10:33:10:788;-0.6703765;8.676587;0.32561144
10:33:10:889;-0.59376204;9.308656;-0.47884035
10:33:10:889;-0.59376204;9.308656;-0.47884035
10:33:10:889;-0.59376204;9.308656;-0.47884035
10:33:10:889;-0.59376204;9.308656;-0.47884035
10:33:10:889;-0.59376204;9.308656;-0.47884035
10:33:10:889;-0.59376204;9.308656;-0.47884035
10:33:10:889;-0.59376204;9.308656;-0.47884035
10:33:10:889;-0.59376204;9.308656;-0.47884035
10:33:10:889;-0.59376204;9.308656;-0.47884035
10:33:10:889;-0.59376204;9.308656;-0.47884035
10:33:10:889;-0.59376204;9.308656;-0.47884035
10:33:10:889;-0.59376204;9.308656;-0.47884035
10:33:10:889;-0.59376204;9.308656;-0.47884035
10:33:10:889;-0.59376204;9.308656;-0.47884035
10:33:10:889;-0.59376204;9.308656;-0.47884035
10:33:11:006;-0.24899697;8.2169;0.4213795
10:33:11:006;-0.24899697;8.2169;0.4213795
10:33:11:006;-0.24899697;8.2169;0.4213795
10:33:11:006;-0.24899697;8.2169;0.4213795
10:33:11:006;-0.24899697;8.2169;0.4213795
10:33:11:006;-0.24899697;8.2169;0.4213795
10:33:11:006;-0.24899697;8.2169;0.4213795
10:33:11:006;-0.24899697;8.2169;0.4213795
10:33:11:006;-0.24899697;8.2169;0.4213795
10:33:11:006;-0.24899697;8.2169;0.4213795
10:33:11:006;-0.24899697;8.2169;0.4213795
10:33:11:006;-0.24899697;8.2169;0.4213795
10:33:11:006;-0.24899697;8.2169;0.4213795
10:33:11:006;-0.24899697;8.2169;0.4213795
10:33:11:006;-0.24899697;8.2169;0.4213795
10:33:11:123;-0.019153614;9.289502;0.15322891
10:33:11:123;-0.019153614;9.289502;0.15322891
10:33:11:123;-0.019153614;9.289502;0.15322891
10:33:11:123;-0.019153614;9.289502;0.15322891
10:33:11:123;-0.019153614;9.289502;0.15322891
10:33:11:123;-0.019153614;9.289502;0.15322891
10:33:11:123;-0.019153614;9.289502;0.15322891
10:33:11:123;-0.019153614;9.289502;0.15322891
10:33:11:123;-0.019153614;9.289502;0.15322891
10:33:11:123;-0.019153614;9.289502;0.15322891
10:33:11:123;-0.019153614;9.289502;0.15322891
10:33:11:123;-0.019153614;9.289502;0.15322891
10:33:11:123;-0.019153614;9.289502;0.15322891
10:33:11:123;-0.019153614;9.289502;0.15322891
10:33:11:123;-0.019153614;9.289502;0.15322891
10:33:11:242;-0.38307226;9.270349;0.17238252
10:33:11:242;-0.38307226;9.270349;0.17238252
10:33:11:242;-0.38307226;9.270349;0.17238252
10:33:11:242;-0.38307226;9.270349;0.17238252
10:33:11:242;-0.38307226;9.270349;0.17238252
10:33:11:242;-0.38307226;9.270349;0.17238252
10:33:11:242;-0.38307226;9.270349;0.17238252
10:33:11:242;-0.38307226;9.270349;0.17238252
10:33:11:242;-0.38307226;9.270349;0.17238252
10:33:11:242;-0.38307226;9.270349;0.17238252
10:33:11:242;-0.38307226;9.270349;0.17238252
10:33:11:242;-0.38307226;9.270349;0.17238252
10:33:11:242;-0.38307226;9.270349;0.17238252
10:33:11:242;-0.38307226;9.270349;0.17238252
10:33:11:242;-0.38307226;9.270349;0.17238252
10:33:11:242;-0.38307226;9.270349;0.17238252
10:33:11:361;-0.82360536;9.595961;-0.2681506
10:33:11:361;-0.82360536;9.595961;-0.2681506
10:33:11:361;-0.82360536;9.595961;-0.2681506
10:33:11:361;-0.82360536;9.595961;-0.2681506
10:33:11:361;-0.82360536;9.595961;-0.2681506
10:33:11:361;-0.82360536;9.595961;-0.2681506
10:33:11:361;-0.82360536;9.595961;-0.2681506
10:33:11:361;-0.82360536;9.595961;-0.2681506
10:33:11:361;-0.82360536;9.595961;-0.2681506
10:33:11:361;-0.82360536;9.595961;-0.2681506
10:33:11:361;-0.82360536;9.595961;-0.2681506
10:33:11:361;-0.82360536;9.595961;-0.2681506
10:33:11:361;-0.82360536;9.595961;-0.2681506
10:33:11:361;-0.82360536;9.595961;-0.2681506
10:33:11:470;-0.7661445;10.534488;-0.59376204
10:33:11:470;-0.7661445;10.534488;-0.59376204
10:33:11:470;-0.7661445;10.534488;-0.59376204
10:33:11:470;-0.7661445;10.534488;-0.59376204
10:33:11:470;-0.7661445;10.534488;-0.59376204
10:33:11:470;-0.7661445;10.534488;-0.59376204
10:33:11:470;-0.7661445;10.534488;-0.59376204
10:33:11:470;-0.7661445;10.534488;-0.59376204
10:33:11:470;-0.7661445;10.534488;-0.59376204
10:33:11:470;-0.7661445;10.534488;-0.59376204
10:33:11:470;-0.7661445;10.534488;-0.59376204
10:33:11:470;-0.7661445;10.534488;-0.59376204
10:33:11:470;-0.7661445;10.534488;-0.59376204
10:33:11:574;-0.2681506;9.691729;0.05746084
10:33:11:574;-0.2681506;9.691729;0.05746084
10:33:11:574;-0.2681506;9.691729;0.05746084
10:33:11:574;-0.2681506;9.691729;0.05746084
10:33:11:574;-0.2681506;9.691729;0.05746084
10:33:11:574;-0.2681506;9.691729;0.05746084
10:33:11:574;-0.2681506;9.691729;0.05746084
10:33:11:574;-0.2681506;9.691729;0.05746084
10:33:11:574;-0.2681506;9.691729;0.05746084
10:33:11:574;-0.2681506;9.691729;0.05746084
10:33:11:574;-0.2681506;9.691729;0.05746084
10:33:11:574;-0.2681506;9.691729;0.05746084
10:33:11:574;-0.2681506;9.691729;0.05746084
10:33:11:574;-0.2681506;9.691729;0.05746084
10:33:11:574;-0.2681506;9.691729;0.05746084
10:33:11:692;-0.17238252;10.323798;-0.5746084
10:33:11:692;-0.17238252;10.323798;-0.5746084
10:33:11:692;-0.17238252;10.323798;-0.5746084
10:33:11:692;-0.17238252;10.323798;-0.5746084
10:33:11:692;-0.17238252;10.323798;-0.5746084
10:33:11:692;-0.17238252;10.323798;-0.5746084
10:33:11:692;-0.17238252;10.323798;-0.5746084
10:33:11:692;-0.17238252;10.323798;-0.5746084
10:33:11:692;-0.17238252;10.323798;-0.5746084
10:33:11:692;-0.17238252;10.323798;-0.5746084
10:33:11:692;-0.17238252;10.323798;-0.5746084
10:33:11:692;-0.17238252;10.323798;-0.5746084
10:33:11:692;-0.17238252;10.323798;-0.5746084
10:33:11:692;-0.17238252;10.323798;-0.5746084
10:33:11:799;-0.36391866;9.576807;-0.4213795
10:33:11:799;-0.36391866;9.576807;-0.4213795
10:33:11:799;-0.36391866;9.576807;-0.4213795
10:33:11:799;-0.36391866;9.576807;-0.4213795
10:33:11:799;-0.36391866;9.576807;-0.4213795
10:33:11:799;-0.36391866;9.576807;-0.4213795
10:33:11:799;-0.36391866;9.576807;-0.4213795
10:33:11:799;-0.36391866;9.576807;-0.4213795
10:33:11:799;-0.36391866;9.576807;-0.4213795
10:33:11:799;-0.36391866;9.576807;-0.4213795
10:33:11:799;-0.36391866;9.576807;-0.4213795
10:33:11:799;-0.36391866;9.576807;-0.4213795
10:33:11:799;-0.36391866;9.576807;-0.4213795
10:33:11:799;-0.36391866;9.576807;-0.4213795
10:33:11:913;-0.47884035;9.32781;0.076614454
10:33:11:913;-0.47884035;9.32781;0.076614454
10:33:11:913;-0.47884035;9.32781;0.076614454
10:33:11:913;-0.47884035;9.32781;0.076614454
10:33:11:913;-0.47884035;9.32781;0.076614454
10:33:11:913;-0.47884035;9.32781;0.076614454
10:33:11:913;-0.47884035;9.32781;0.076614454
10:33:11:913;-0.47884035;9.32781;0.076614454
10:33:11:913;-0.47884035;9.32781;0.076614454
10:33:11:913;-0.47884035;9.32781;0.076614454
10:33:11:913;-0.47884035;9.32781;0.076614454
10:33:11:913;-0.47884035;9.32781;0.076614454
10:33:11:913;-0.47884035;9.32781;0.076614454
10:33:11:913;-0.47884035;9.32781;0.076614454
10:33:12:018;-0.91937345;10.304645;-0.19153613
10:33:12:018;-0.91937345;10.304645;-0.19153613
10:33:12:018;-0.91937345;10.304645;-0.19153613
10:33:12:018;-0.91937345;10.304645;-0.19153613
10:33:12:018;-0.91937345;10.304645;-0.19153613
10:33:12:018;-0.91937345;10.304645;-0.19153613
10:33:12:018;-0.91937345;10.304645;-0.19153613
10:33:12:018;-0.91937345;10.304645;-0.19153613
10:33:12:018;-0.91937345;10.304645;-0.19153613
10:33:12:018;-0.91937345;10.304645;-0.19153613
10:33:12:018;-0.91937345;10.304645;-0.19153613
10:33:12:018;-0.91937345;10.304645;-0.19153613
10:33:12:018;-0.91937345;10.304645;-0.19153613
10:33:12:018;-0.91937345;10.304645;-0.19153613
10:33:12:018;-0.91937345;10.304645;-0.19153613
10:33:12:018;-0.91937345;10.304645;-0.19153613
10:33:12:018;-0.91937345;10.304645;-0.19153613
10:33:12:018;-0.91937345;10.304645;-0.19153613
10:33:12:018;-0.91937345;10.304645;-0.19153613
10:33:12:018;-0.91937345;10.304645;-0.19153613
10:33:12:018;-0.91937345;10.304645;-0.19153613
