Time_Accel;AccelX;AccelY;AccelZ
11:30:35:954;-0.4213795;9.844957;0.49799395
11:30:35:954;-0.4213795;9.844957;0.49799395
11:30:35:954;-0.4213795;9.844957;0.49799395
11:30:35:954;-0.4213795;9.844957;0.49799395
11:30:35:954;-0.4213795;9.844957;0.49799395
11:30:35:954;-0.4213795;9.844957;0.49799395
11:30:35:954;-0.4213795;9.844957;0.49799395
11:30:35:954;-0.4213795;9.844957;0.49799395
11:30:36:064;-0.4213795;9.921572;0.47884035
11:30:36:064;-0.4213795;9.921572;0.47884035
11:30:36:064;-0.4213795;9.921572;0.47884035
11:30:36:064;-0.4213795;9.921572;0.47884035
11:30:36:064;-0.4213795;9.921572;0.47884035
11:30:36:064;-0.4213795;9.921572;0.47884035
11:30:36:064;-0.4213795;9.921572;0.47884035
11:30:36:064;-0.4213795;9.921572;0.47884035
11:30:36:064;-0.4213795;9.921572;0.47884035
11:30:36:064;-0.4213795;9.921572;0.47884035
11:30:36:064;-0.4213795;9.921572;0.47884035
11:30:36:064;-0.4213795;9.921572;0.47884035
11:30:36:064;-0.4213795;9.921572;0.47884035
11:30:36:168;-0.34476504;9.998186;0.4213795
11:30:36:168;-0.34476504;9.998186;0.4213795
11:30:36:168;-0.34476504;9.998186;0.4213795
11:30:36:168;-0.34476504;9.998186;0.4213795
11:30:36:168;-0.34476504;9.998186;0.4213795
11:30:36:168;-0.34476504;9.998186;0.4213795
11:30:36:168;-0.34476504;9.998186;0.4213795
11:30:36:168;-0.34476504;9.998186;0.4213795
11:30:36:168;-0.34476504;9.998186;0.4213795
11:30:36:168;-0.34476504;9.998186;0.4213795
11:30:36:168;-0.34476504;9.998186;0.4213795
11:30:36:168;-0.34476504;9.998186;0.4213795
11:30:36:168;-0.34476504;9.998186;0.4213795
11:30:36:168;-0.34476504;9.998186;0.4213795
11:30:36:168;-0.34476504;9.998186;0.4213795
11:30:36:168;-0.34476504;9.998186;0.4213795
11:30:36:168;-0.34476504;9.998186;0.4213795
11:30:36:298;-0.40222588;10.036493;0.32561144
11:30:36:298;-0.40222588;10.036493;0.32561144
11:30:36:298;-0.40222588;10.036493;0.32561144
11:30:36:298;-0.40222588;10.036493;0.32561144
11:30:36:298;-0.40222588;10.036493;0.32561144
11:30:36:298;-0.40222588;10.036493;0.32561144
11:30:36:298;-0.40222588;10.036493;0.32561144
11:30:36:298;-0.40222588;10.036493;0.32561144
11:30:36:298;-0.40222588;10.036493;0.32561144
11:30:36:298;-0.40222588;10.036493;0.32561144
11:30:36:298;-0.40222588;10.036493;0.32561144
11:30:36:298;-0.40222588;10.036493;0.32561144
11:30:36:298;-0.40222588;10.036493;0.32561144
11:30:36:298;-0.40222588;10.036493;0.32561144
11:30:36:411;-0.5363012;10.036493;0.59376204
11:30:36:411;-0.5363012;10.036493;0.59376204
11:30:36:411;-0.5363012;10.036493;0.59376204
11:30:36:411;-0.5363012;10.036493;0.59376204
11:30:36:411;-0.5363012;10.036493;0.59376204
11:30:36:411;-0.5363012;10.036493;0.59376204
11:30:36:411;-0.5363012;10.036493;0.59376204
11:30:36:411;-0.5363012;10.036493;0.59376204
11:30:36:411;-0.5363012;10.036493;0.59376204
11:30:36:411;-0.5363012;10.036493;0.59376204
11:30:36:411;-0.5363012;10.036493;0.59376204
11:30:36:411;-0.5363012;10.036493;0.59376204
11:30:36:411;-0.5363012;10.036493;0.59376204
11:30:36:411;-0.5363012;10.036493;0.59376204
11:30:36:411;-0.5363012;10.036493;0.59376204
11:30:36:411;-0.5363012;10.036493;0.59376204
11:30:36:411;-0.5363012;10.036493;0.59376204
11:30:36:544;-0.36391866;10.01734;0.36391866
11:30:36:544;-0.36391866;10.01734;0.36391866
11:30:36:544;-0.36391866;10.01734;0.36391866
11:30:36:544;-0.36391866;10.01734;0.36391866
11:30:36:544;-0.36391866;10.01734;0.36391866
11:30:36:544;-0.36391866;10.01734;0.36391866
11:30:36:544;-0.36391866;10.01734;0.36391866
11:30:36:544;-0.36391866;10.01734;0.36391866
11:30:36:544;-0.36391866;10.01734;0.36391866
11:30:36:544;-0.36391866;10.01734;0.36391866
11:30:36:544;-0.36391866;10.01734;0.36391866
11:30:36:544;-0.36391866;10.01734;0.36391866
11:30:36:544;-0.36391866;10.01734;0.36391866
11:30:36:646;-0.38307226;9.940725;0.5363012
11:30:36:646;-0.38307226;9.940725;0.5363012
11:30:36:646;-0.38307226;9.940725;0.5363012
11:30:36:646;-0.38307226;9.940725;0.5363012
11:30:36:646;-0.38307226;9.940725;0.5363012
11:30:36:646;-0.38307226;9.940725;0.5363012
11:30:36:646;-0.38307226;9.940725;0.5363012
11:30:36:646;-0.38307226;9.940725;0.5363012
11:30:36:646;-0.38307226;9.940725;0.5363012
11:30:36:646;-0.38307226;9.940725;0.5363012
11:30:36:646;-0.38307226;9.940725;0.5363012
11:30:36:646;-0.38307226;9.940725;0.5363012
11:30:36:646;-0.38307226;9.940725;0.5363012
11:30:36:646;-0.38307226;9.940725;0.5363012
11:30:36:646;-0.38307226;9.940725;0.5363012
11:30:36:764;-0.51714754;10.036493;0.2681506
11:30:36:764;-0.51714754;10.036493;0.2681506
11:30:36:764;-0.51714754;10.036493;0.2681506
11:30:36:764;-0.51714754;10.036493;0.2681506
11:30:36:764;-0.51714754;10.036493;0.2681506
11:30:36:764;-0.51714754;10.036493;0.2681506
11:30:36:764;-0.51714754;10.036493;0.2681506
11:30:36:764;-0.51714754;10.036493;0.2681506
11:30:36:764;-0.51714754;10.036493;0.2681506
11:30:36:764;-0.51714754;10.036493;0.2681506
11:30:36:764;-0.51714754;10.036493;0.2681506
11:30:36:764;-0.51714754;10.036493;0.2681506
11:30:36:764;-0.51714754;10.036493;0.2681506
11:30:36:764;-0.51714754;10.036493;0.2681506
11:30:36:764;-0.51714754;10.036493;0.2681506
11:30:36:881;-0.4405331;9.940725;0.34476504
11:30:36:881;-0.4405331;9.940725;0.34476504
11:30:36:881;-0.4405331;9.940725;0.34476504
11:30:36:881;-0.4405331;9.940725;0.34476504
11:30:36:881;-0.4405331;9.940725;0.34476504
11:30:36:881;-0.4405331;9.940725;0.34476504
11:30:36:881;-0.4405331;9.940725;0.34476504
11:30:36:881;-0.4405331;9.940725;0.34476504
11:30:36:881;-0.4405331;9.940725;0.34476504
11:30:36:881;-0.4405331;9.940725;0.34476504
11:30:36:881;-0.4405331;9.940725;0.34476504
11:30:36:881;-0.4405331;9.940725;0.34476504
11:30:36:881;-0.4405331;9.940725;0.34476504
11:30:36:881;-0.4405331;9.940725;0.34476504
11:30:36:988;-0.4405331;9.9790325;0.45968673
11:30:36:988;-0.4405331;9.9790325;0.45968673
11:30:36:988;-0.4405331;9.9790325;0.45968673
11:30:36:988;-0.4405331;9.9790325;0.45968673
11:30:36:988;-0.4405331;9.9790325;0.45968673
11:30:36:988;-0.4405331;9.9790325;0.45968673
11:30:36:988;-0.4405331;9.9790325;0.45968673
11:30:36:988;-0.4405331;9.9790325;0.45968673
11:30:36:988;-0.4405331;9.9790325;0.45968673
11:30:36:988;-0.4405331;9.9790325;0.45968673
11:30:36:988;-0.4405331;9.9790325;0.45968673
11:30:36:988;-0.4405331;9.9790325;0.45968673
11:30:36:988;-0.4405331;9.9790325;0.45968673
11:30:37:091;-0.38307226;9.940725;0.34476504
11:30:37:091;-0.38307226;9.940725;0.34476504
11:30:37:091;-0.38307226;9.940725;0.34476504
11:30:37:091;-0.38307226;9.940725;0.34476504
11:30:37:091;-0.38307226;9.940725;0.34476504
11:30:37:091;-0.38307226;9.940725;0.34476504
11:30:37:091;-0.38307226;9.940725;0.34476504
11:30:37:091;-0.38307226;9.940725;0.34476504
11:30:37:091;-0.38307226;9.940725;0.34476504
11:30:37:091;-0.38307226;9.940725;0.34476504
11:30:37:091;-0.38307226;9.940725;0.34476504
11:30:37:091;-0.38307226;9.940725;0.34476504
11:30:37:091;-0.38307226;9.940725;0.34476504
11:30:37:091;-0.38307226;9.940725;0.34476504
11:30:37:198;-0.4213795;9.998186;0.38307226
11:30:37:198;-0.4213795;9.998186;0.38307226
11:30:37:198;-0.4213795;9.998186;0.38307226
11:30:37:198;-0.4213795;9.998186;0.38307226
11:30:37:198;-0.4213795;9.998186;0.38307226
11:30:37:198;-0.4213795;9.998186;0.38307226
11:30:37:198;-0.4213795;9.998186;0.38307226
11:30:37:198;-0.4213795;9.998186;0.38307226
11:30:37:198;-0.4213795;9.998186;0.38307226
11:30:37:198;-0.4213795;9.998186;0.38307226
11:30:37:198;-0.4213795;9.998186;0.38307226
11:30:37:198;-0.4213795;9.998186;0.38307226
11:30:37:198;-0.4213795;9.998186;0.38307226
11:30:37:198;-0.4213795;9.998186;0.38307226
11:30:37:198;-0.4213795;9.998186;0.38307226
11:30:37:198;-0.4213795;9.998186;0.38307226
11:30:37:198;-0.4213795;9.998186;0.38307226
11:30:37:332;-0.47884035;9.883265;0.4213795
11:30:37:332;-0.47884035;9.883265;0.4213795
11:30:37:332;-0.47884035;9.883265;0.4213795
11:30:37:332;-0.47884035;9.883265;0.4213795
11:30:37:332;-0.47884035;9.883265;0.4213795
11:30:37:332;-0.47884035;9.883265;0.4213795
11:30:37:332;-0.47884035;9.883265;0.4213795
11:30:37:332;-0.47884035;9.883265;0.4213795
11:30:37:332;-0.47884035;9.883265;0.4213795
11:30:37:332;-0.47884035;9.883265;0.4213795
11:30:37:332;-0.47884035;9.883265;0.4213795
11:30:37:332;-0.47884035;9.883265;0.4213795
11:30:37:332;-0.47884035;9.883265;0.4213795
11:30:37:436;-0.49799395;9.940725;0.38307226
11:30:37:436;-0.49799395;9.940725;0.38307226
11:30:37:436;-0.49799395;9.940725;0.38307226
11:30:37:436;-0.49799395;9.940725;0.38307226
11:30:37:436;-0.49799395;9.940725;0.38307226
11:30:37:436;-0.49799395;9.940725;0.38307226
11:30:37:436;-0.49799395;9.940725;0.38307226
11:30:37:436;-0.49799395;9.940725;0.38307226
11:30:37:436;-0.49799395;9.940725;0.38307226
11:30:37:436;-0.49799395;9.940725;0.38307226
11:30:37:436;-0.49799395;9.940725;0.38307226
11:30:37:436;-0.49799395;9.940725;0.38307226
11:30:37:436;-0.49799395;9.940725;0.38307226
11:30:37:436;-0.49799395;9.940725;0.38307226
11:30:37:436;-0.49799395;9.940725;0.38307226
11:30:37:553;-0.34476504;9.921572;0.40222588
11:30:37:553;-0.34476504;9.921572;0.40222588
11:30:37:553;-0.34476504;9.921572;0.40222588
11:30:37:553;-0.34476504;9.921572;0.40222588
11:30:37:553;-0.34476504;9.921572;0.40222588
11:30:37:553;-0.34476504;9.921572;0.40222588
11:30:37:553;-0.34476504;9.921572;0.40222588
11:30:37:553;-0.34476504;9.921572;0.40222588
11:30:37:553;-0.34476504;9.921572;0.40222588
11:30:37:553;-0.34476504;9.921572;0.40222588
11:30:37:553;-0.34476504;9.921572;0.40222588
11:30:37:553;-0.34476504;9.921572;0.40222588
11:30:37:553;-0.34476504;9.921572;0.40222588
11:30:37:553;-0.34476504;9.921572;0.40222588
11:30:37:657;-0.5554548;10.036493;0.30645782
11:30:37:657;-0.5554548;10.036493;0.30645782
11:30:37:657;-0.5554548;10.036493;0.30645782
11:30:37:657;-0.5554548;10.036493;0.30645782
11:30:37:657;-0.5554548;10.036493;0.30645782
11:30:37:657;-0.5554548;10.036493;0.30645782
11:30:37:657;-0.5554548;10.036493;0.30645782
11:30:37:657;-0.5554548;10.036493;0.30645782
11:30:37:657;-0.5554548;10.036493;0.30645782
11:30:37:657;-0.5554548;10.036493;0.30645782
11:30:37:657;-0.5554548;10.036493;0.30645782
11:30:37:657;-0.5554548;10.036493;0.30645782
11:30:37:657;-0.5554548;10.036493;0.30645782
11:30:37:657;-0.5554548;10.036493;0.30645782
11:30:37:657;-0.5554548;10.036493;0.30645782
11:30:37:774;-0.49799395;9.9790325;0.36391866
11:30:37:774;-0.49799395;9.9790325;0.36391866
11:30:37:774;-0.49799395;9.9790325;0.36391866
11:30:37:774;-0.49799395;9.9790325;0.36391866
11:30:37:774;-0.49799395;9.9790325;0.36391866
11:30:37:774;-0.49799395;9.9790325;0.36391866
11:30:37:774;-0.49799395;9.9790325;0.36391866
11:30:37:774;-0.49799395;9.9790325;0.36391866
11:30:37:774;-0.49799395;9.9790325;0.36391866
11:30:37:774;-0.49799395;9.9790325;0.36391866
11:30:37:774;-0.49799395;9.9790325;0.36391866
11:30:37:774;-0.49799395;9.9790325;0.36391866
11:30:37:875;-0.4213795;9.921572;0.49799395
11:30:37:875;-0.4213795;9.921572;0.49799395
11:30:37:875;-0.4213795;9.921572;0.49799395
11:30:37:875;-0.4213795;9.921572;0.49799395
11:30:37:875;-0.4213795;9.921572;0.49799395
11:30:37:875;-0.4213795;9.921572;0.49799395
11:30:37:875;-0.4213795;9.921572;0.49799395
11:30:37:875;-0.4213795;9.921572;0.49799395
11:30:37:875;-0.4213795;9.921572;0.49799395
11:30:37:875;-0.4213795;9.921572;0.49799395
11:30:37:875;-0.4213795;9.921572;0.49799395
11:30:37:875;-0.4213795;9.921572;0.49799395
11:30:37:875;-0.4213795;9.921572;0.49799395
11:30:37:976;-0.5363012;9.844957;0.32561144
11:30:37:976;-0.5363012;9.844957;0.32561144
11:30:37:976;-0.5363012;9.844957;0.32561144
11:30:37:976;-0.5363012;9.844957;0.32561144
11:30:37:976;-0.5363012;9.844957;0.32561144
11:30:37:976;-0.5363012;9.844957;0.32561144
11:30:37:976;-0.5363012;9.844957;0.32561144
11:30:37:976;-0.5363012;9.844957;0.32561144
11:30:37:976;-0.5363012;9.844957;0.32561144
11:30:37:976;-0.5363012;9.844957;0.32561144
11:30:37:976;-0.5363012;9.844957;0.32561144
11:30:37:976;-0.5363012;9.844957;0.32561144
11:30:37:976;-0.5363012;9.844957;0.32561144
11:30:37:976;-0.5363012;9.844957;0.32561144
11:30:37:976;-0.5363012;9.844957;0.32561144
11:30:38:093;-0.47884035;9.921572;0.47884035
11:30:38:093;-0.47884035;9.921572;0.47884035
11:30:38:093;-0.47884035;9.921572;0.47884035
11:30:38:093;-0.47884035;9.921572;0.47884035
11:30:38:093;-0.47884035;9.921572;0.47884035
11:30:38:093;-0.47884035;9.921572;0.47884035
11:30:38:093;-0.47884035;9.921572;0.47884035
11:30:38:093;-0.47884035;9.921572;0.47884035
11:30:38:093;-0.47884035;9.921572;0.47884035
11:30:38:093;-0.47884035;9.921572;0.47884035
11:30:38:093;-0.47884035;9.921572;0.47884035
11:30:38:093;-0.47884035;9.921572;0.47884035
11:30:38:093;-0.47884035;9.921572;0.47884035
11:30:38:093;-0.47884035;9.921572;0.47884035
11:30:38:197;-0.4405331;10.01734;0.47884035
11:30:38:197;-0.4405331;10.01734;0.47884035
11:30:38:197;-0.4405331;10.01734;0.47884035
11:30:38:197;-0.4405331;10.01734;0.47884035
11:30:38:197;-0.4405331;10.01734;0.47884035
11:30:38:197;-0.4405331;10.01734;0.47884035
11:30:38:197;-0.4405331;10.01734;0.47884035
11:30:38:197;-0.4405331;10.01734;0.47884035
11:30:38:197;-0.4405331;10.01734;0.47884035
11:30:38:197;-0.4405331;10.01734;0.47884035
11:30:38:197;-0.4405331;10.01734;0.47884035
11:30:38:197;-0.4405331;10.01734;0.47884035
11:30:38:197;-0.4405331;10.01734;0.47884035
11:30:38:197;-0.4405331;10.01734;0.47884035
11:30:38:197;-0.4405331;10.01734;0.47884035
11:30:38:316;-0.40222588;10.01734;0.2873042
11:30:38:316;-0.40222588;10.01734;0.2873042
11:30:38:316;-0.40222588;10.01734;0.2873042
11:30:38:316;-0.40222588;10.01734;0.2873042
11:30:38:316;-0.40222588;10.01734;0.2873042
11:30:38:316;-0.40222588;10.01734;0.2873042
11:30:38:316;-0.40222588;10.01734;0.2873042
11:30:38:316;-0.40222588;10.01734;0.2873042
11:30:38:316;-0.40222588;10.01734;0.2873042
11:30:38:316;-0.40222588;10.01734;0.2873042
11:30:38:316;-0.40222588;10.01734;0.2873042
11:30:38:316;-0.40222588;10.01734;0.2873042
11:30:38:316;-0.40222588;10.01734;0.2873042
11:30:38:316;-0.40222588;10.01734;0.2873042
11:30:38:316;-0.40222588;10.01734;0.2873042
11:30:38:435;-0.49799395;9.940725;0.36391866
11:30:38:435;-0.49799395;9.940725;0.36391866
11:30:38:435;-0.49799395;9.940725;0.36391866
11:30:38:435;-0.49799395;9.940725;0.36391866
11:30:38:435;-0.49799395;9.940725;0.36391866
11:30:38:435;-0.49799395;9.940725;0.36391866
11:30:38:435;-0.49799395;9.940725;0.36391866
11:30:38:435;-0.49799395;9.940725;0.36391866
11:30:38:435;-0.49799395;9.940725;0.36391866
11:30:38:435;-0.49799395;9.940725;0.36391866
11:30:38:435;-0.49799395;9.940725;0.36391866
11:30:38:435;-0.49799395;9.940725;0.36391866
11:30:38:435;-0.49799395;9.940725;0.36391866
11:30:38:435;-0.49799395;9.940725;0.36391866
11:30:38:435;-0.49799395;9.940725;0.36391866
11:30:38:552;-0.49799395;9.940725;0.4405331
11:30:38:552;-0.49799395;9.940725;0.4405331
11:30:38:552;-0.49799395;9.940725;0.4405331
11:30:38:552;-0.49799395;9.940725;0.4405331
11:30:38:552;-0.49799395;9.940725;0.4405331
11:30:38:552;-0.49799395;9.940725;0.4405331
11:30:38:552;-0.49799395;9.940725;0.4405331
11:30:38:552;-0.49799395;9.940725;0.4405331
11:30:38:552;-0.49799395;9.940725;0.4405331
11:30:38:552;-0.49799395;9.940725;0.4405331
11:30:38:552;-0.49799395;9.940725;0.4405331
11:30:38:552;-0.49799395;9.940725;0.4405331
11:30:38:552;-0.49799395;9.940725;0.4405331
11:30:38:656;-0.36391866;9.883265;0.38307226
11:30:38:656;-0.36391866;9.883265;0.38307226
11:30:38:656;-0.36391866;9.883265;0.38307226
11:30:38:656;-0.36391866;9.883265;0.38307226
11:30:38:656;-0.36391866;9.883265;0.38307226
11:30:38:656;-0.36391866;9.883265;0.38307226
11:30:38:656;-0.36391866;9.883265;0.38307226
11:30:38:656;-0.36391866;9.883265;0.38307226
11:30:38:656;-0.36391866;9.883265;0.38307226
11:30:38:656;-0.36391866;9.883265;0.38307226
11:30:38:656;-0.36391866;9.883265;0.38307226
11:30:38:656;-0.36391866;9.883265;0.38307226
11:30:38:656;-0.36391866;9.883265;0.38307226
11:30:38:656;-0.36391866;9.883265;0.38307226
11:30:38:656;-0.36391866;9.883265;0.38307226
11:30:38:773;-0.49799395;9.959879;0.51714754
11:30:38:773;-0.49799395;9.959879;0.51714754
11:30:38:773;-0.49799395;9.959879;0.51714754
11:30:38:773;-0.49799395;9.959879;0.51714754
11:30:38:773;-0.49799395;9.959879;0.51714754
11:30:38:773;-0.49799395;9.959879;0.51714754
11:30:38:773;-0.49799395;9.959879;0.51714754
11:30:38:773;-0.49799395;9.959879;0.51714754
11:30:38:773;-0.49799395;9.959879;0.51714754
11:30:38:773;-0.49799395;9.959879;0.51714754
11:30:38:773;-0.49799395;9.959879;0.51714754
11:30:38:773;-0.49799395;9.959879;0.51714754
11:30:38:773;-0.49799395;9.959879;0.51714754
11:30:38:773;-0.49799395;9.959879;0.51714754
11:30:38:773;-0.49799395;9.959879;0.51714754
11:30:38:773;-0.49799395;9.959879;0.51714754
11:30:38:891;-0.4405331;10.036493;0.32561144
11:30:38:891;-0.4405331;10.036493;0.32561144
11:30:38:891;-0.4405331;10.036493;0.32561144
11:30:38:891;-0.4405331;10.036493;0.32561144
11:30:38:891;-0.4405331;10.036493;0.32561144
11:30:38:891;-0.4405331;10.036493;0.32561144
11:30:38:891;-0.4405331;10.036493;0.32561144
11:30:38:891;-0.4405331;10.036493;0.32561144
11:30:38:891;-0.4405331;10.036493;0.32561144
11:30:38:891;-0.4405331;10.036493;0.32561144
11:30:38:891;-0.4405331;10.036493;0.32561144
11:30:38:891;-0.4405331;10.036493;0.32561144
11:30:38:891;-0.4405331;10.036493;0.32561144
11:30:38:891;-0.4405331;10.036493;0.32561144
11:30:38:891;-0.4405331;10.036493;0.32561144
11:30:39:009;-0.45968673;9.998186;0.34476504
11:30:39:009;-0.45968673;9.998186;0.34476504
11:30:39:009;-0.45968673;9.998186;0.34476504
11:30:39:009;-0.45968673;9.998186;0.34476504
11:30:39:009;-0.45968673;9.998186;0.34476504
11:30:39:009;-0.45968673;9.998186;0.34476504
11:30:39:009;-0.45968673;9.998186;0.34476504
11:30:39:009;-0.45968673;9.998186;0.34476504
11:30:39:009;-0.45968673;9.998186;0.34476504
11:30:39:009;-0.45968673;9.998186;0.34476504
11:30:39:009;-0.45968673;9.998186;0.34476504
11:30:39:009;-0.45968673;9.998186;0.34476504
11:30:39:009;-0.45968673;9.998186;0.34476504
11:30:39:009;-0.45968673;9.998186;0.34476504
11:30:39:009;-0.45968673;9.998186;0.34476504
11:30:39:126;-0.51714754;9.921572;0.36391866
11:30:39:126;-0.51714754;9.921572;0.36391866
11:30:39:126;-0.51714754;9.921572;0.36391866
11:30:39:126;-0.51714754;9.921572;0.36391866
11:30:39:126;-0.51714754;9.921572;0.36391866
11:30:39:126;-0.51714754;9.921572;0.36391866
11:30:39:126;-0.51714754;9.921572;0.36391866
11:30:39:126;-0.51714754;9.921572;0.36391866
11:30:39:126;-0.51714754;9.921572;0.36391866
11:30:39:126;-0.51714754;9.921572;0.36391866
11:30:39:126;-0.51714754;9.921572;0.36391866
11:30:39:126;-0.51714754;9.921572;0.36391866
11:30:39:126;-0.51714754;9.921572;0.36391866
11:30:39:228;-0.5554548;9.998186;0.36391866
11:30:39:228;-0.5554548;9.998186;0.36391866
11:30:39:228;-0.5554548;9.998186;0.36391866
11:30:39:228;-0.5554548;9.998186;0.36391866
11:30:39:228;-0.5554548;9.998186;0.36391866
11:30:39:228;-0.5554548;9.998186;0.36391866
11:30:39:228;-0.5554548;9.998186;0.36391866
11:30:39:228;-0.5554548;9.998186;0.36391866
11:30:39:228;-0.5554548;9.998186;0.36391866
11:30:39:228;-0.5554548;9.998186;0.36391866
11:30:39:228;-0.5554548;9.998186;0.36391866
11:30:39:228;-0.5554548;9.998186;0.36391866
11:30:39:228;-0.5554548;9.998186;0.36391866
11:30:39:228;-0.5554548;9.998186;0.36391866
11:30:39:342;-0.47884035;9.959879;0.34476504
11:30:39:342;-0.47884035;9.959879;0.34476504
11:30:39:342;-0.47884035;9.959879;0.34476504
11:30:39:342;-0.47884035;9.959879;0.34476504
11:30:39:342;-0.47884035;9.959879;0.34476504
11:30:39:342;-0.47884035;9.959879;0.34476504
11:30:39:342;-0.47884035;9.959879;0.34476504
11:30:39:342;-0.47884035;9.959879;0.34476504
11:30:39:342;-0.47884035;9.959879;0.34476504
11:30:39:342;-0.47884035;9.959879;0.34476504
11:30:39:342;-0.47884035;9.959879;0.34476504
11:30:39:342;-0.47884035;9.959879;0.34476504
11:30:39:342;-0.47884035;9.959879;0.34476504
11:30:39:445;-0.4405331;9.883265;0.2681506
11:30:39:445;-0.4405331;9.883265;0.2681506
11:30:39:445;-0.4405331;9.883265;0.2681506
11:30:39:445;-0.4405331;9.883265;0.2681506
11:30:39:445;-0.4405331;9.883265;0.2681506
11:30:39:445;-0.4405331;9.883265;0.2681506
11:30:39:445;-0.4405331;9.883265;0.2681506
11:30:39:445;-0.4405331;9.883265;0.2681506
11:30:39:445;-0.4405331;9.883265;0.2681506
11:30:39:445;-0.4405331;9.883265;0.2681506
11:30:39:445;-0.4405331;9.883265;0.2681506
11:30:39:445;-0.4405331;9.883265;0.2681506
11:30:39:445;-0.4405331;9.883265;0.2681506
11:30:39:445;-0.4405331;9.883265;0.2681506
11:30:39:445;-0.4405331;9.883265;0.2681506
11:30:39:445;-0.4405331;9.883265;0.2681506
11:30:39:564;-0.4213795;10.036493;0.30645782
11:30:39:564;-0.4213795;10.036493;0.30645782
11:30:39:564;-0.4213795;10.036493;0.30645782
11:30:39:564;-0.4213795;10.036493;0.30645782
11:30:39:564;-0.4213795;10.036493;0.30645782
11:30:39:564;-0.4213795;10.036493;0.30645782
11:30:39:564;-0.4213795;10.036493;0.30645782
11:30:39:564;-0.4213795;10.036493;0.30645782
11:30:39:564;-0.4213795;10.036493;0.30645782
11:30:39:564;-0.4213795;10.036493;0.30645782
11:30:39:564;-0.4213795;10.036493;0.30645782
11:30:39:564;-0.4213795;10.036493;0.30645782
11:30:39:564;-0.4213795;10.036493;0.30645782
11:30:39:665;-0.40222588;10.036493;0.4213795
11:30:39:665;-0.40222588;10.036493;0.4213795
11:30:39:665;-0.40222588;10.036493;0.4213795
11:30:39:665;-0.40222588;10.036493;0.4213795
11:30:39:665;-0.40222588;10.036493;0.4213795
11:30:39:665;-0.40222588;10.036493;0.4213795
11:30:39:665;-0.40222588;10.036493;0.4213795
11:30:39:665;-0.40222588;10.036493;0.4213795
11:30:39:665;-0.40222588;10.036493;0.4213795
11:30:39:665;-0.40222588;10.036493;0.4213795
11:30:39:665;-0.40222588;10.036493;0.4213795
11:30:39:665;-0.40222588;10.036493;0.4213795
11:30:39:665;-0.40222588;10.036493;0.4213795
11:30:39:665;-0.40222588;10.036493;0.4213795
11:30:39:665;-0.40222588;10.036493;0.4213795
11:30:39:784;-0.4213795;10.01734;0.34476504
11:30:39:784;-0.4213795;10.01734;0.34476504
11:30:39:784;-0.4213795;10.01734;0.34476504
11:30:39:784;-0.4213795;10.01734;0.34476504
11:30:39:784;-0.4213795;10.01734;0.34476504
11:30:39:784;-0.4213795;10.01734;0.34476504
11:30:39:784;-0.4213795;10.01734;0.34476504
11:30:39:784;-0.4213795;10.01734;0.34476504
11:30:39:784;-0.4213795;10.01734;0.34476504
11:30:39:784;-0.4213795;10.01734;0.34476504
11:30:39:784;-0.4213795;10.01734;0.34476504
11:30:39:784;-0.4213795;10.01734;0.34476504
11:30:39:784;-0.4213795;10.01734;0.34476504
11:30:39:886;-0.49799395;9.998186;0.40222588
11:30:39:886;-0.49799395;9.998186;0.40222588
11:30:39:886;-0.49799395;9.998186;0.40222588
11:30:39:886;-0.49799395;9.998186;0.40222588
11:30:39:886;-0.49799395;9.998186;0.40222588
11:30:39:886;-0.49799395;9.998186;0.40222588
11:30:39:886;-0.49799395;9.998186;0.40222588
11:30:39:886;-0.49799395;9.998186;0.40222588
11:30:39:886;-0.49799395;9.998186;0.40222588
11:30:39:886;-0.49799395;9.998186;0.40222588
11:30:39:886;-0.49799395;9.998186;0.40222588
11:30:39:886;-0.49799395;9.998186;0.40222588
11:30:39:886;-0.49799395;9.998186;0.40222588
11:30:39:886;-0.49799395;9.998186;0.40222588
11:30:39:886;-0.49799395;9.998186;0.40222588
11:30:40:006;-0.5363012;9.864111;0.4213795
11:30:40:006;-0.5363012;9.864111;0.4213795
11:30:40:006;-0.5363012;9.864111;0.4213795
11:30:40:006;-0.5363012;9.864111;0.4213795
11:30:40:006;-0.5363012;9.864111;0.4213795
11:30:40:006;-0.5363012;9.864111;0.4213795
11:30:40:006;-0.5363012;9.864111;0.4213795
11:30:40:006;-0.5363012;9.864111;0.4213795
11:30:40:006;-0.5363012;9.864111;0.4213795
11:30:40:006;-0.5363012;9.864111;0.4213795
11:30:40:006;-0.5363012;9.864111;0.4213795
11:30:40:006;-0.5363012;9.864111;0.4213795
11:30:40:006;-0.5363012;9.864111;0.4213795
11:30:40:006;-0.5363012;9.864111;0.4213795
11:30:40:112;-0.45968673;9.998186;0.36391866
11:30:40:112;-0.45968673;9.998186;0.36391866
11:30:40:112;-0.45968673;9.998186;0.36391866
11:30:40:112;-0.45968673;9.998186;0.36391866
11:30:40:112;-0.45968673;9.998186;0.36391866
11:30:40:112;-0.45968673;9.998186;0.36391866
11:30:40:112;-0.45968673;9.998186;0.36391866
11:30:40:112;-0.45968673;9.998186;0.36391866
11:30:40:112;-0.45968673;9.998186;0.36391866
11:30:40:112;-0.45968673;9.998186;0.36391866
11:30:40:112;-0.45968673;9.998186;0.36391866
11:30:40:112;-0.45968673;9.998186;0.36391866
11:30:40:112;-0.45968673;9.998186;0.36391866
11:30:40:112;-0.45968673;9.998186;0.36391866
11:30:40:112;-0.45968673;9.998186;0.36391866
11:30:40:232;-0.47884035;9.9790325;0.40222588
11:30:40:232;-0.47884035;9.9790325;0.40222588
11:30:40:232;-0.47884035;9.9790325;0.40222588
11:30:40:232;-0.47884035;9.9790325;0.40222588
11:30:40:232;-0.47884035;9.9790325;0.40222588
11:30:40:232;-0.47884035;9.9790325;0.40222588
11:30:40:232;-0.47884035;9.9790325;0.40222588
11:30:40:232;-0.47884035;9.9790325;0.40222588
11:30:40:232;-0.47884035;9.9790325;0.40222588
11:30:40:232;-0.47884035;9.9790325;0.40222588
11:30:40:232;-0.47884035;9.9790325;0.40222588
11:30:40:232;-0.47884035;9.9790325;0.40222588
11:30:40:232;-0.47884035;9.9790325;0.40222588
11:30:40:232;-0.47884035;9.9790325;0.40222588
11:30:40:232;-0.47884035;9.9790325;0.40222588
11:30:40:351;-0.40222588;9.844957;0.4213795
11:30:40:351;-0.40222588;9.844957;0.4213795
11:30:40:351;-0.40222588;9.844957;0.4213795
11:30:40:351;-0.40222588;9.844957;0.4213795
11:30:40:351;-0.40222588;9.844957;0.4213795
11:30:40:351;-0.40222588;9.844957;0.4213795
11:30:40:351;-0.40222588;9.844957;0.4213795
11:30:40:351;-0.40222588;9.844957;0.4213795
11:30:40:351;-0.40222588;9.844957;0.4213795
11:30:40:351;-0.40222588;9.844957;0.4213795
11:30:40:351;-0.40222588;9.844957;0.4213795
11:30:40:351;-0.40222588;9.844957;0.4213795
11:30:40:351;-0.40222588;9.844957;0.4213795
11:30:40:351;-0.40222588;9.844957;0.4213795
11:30:40:457;-0.34476504;9.921572;0.38307226
11:30:40:457;-0.34476504;9.921572;0.38307226
11:30:40:457;-0.34476504;9.921572;0.38307226
11:30:40:457;-0.34476504;9.921572;0.38307226
11:30:40:457;-0.34476504;9.921572;0.38307226
11:30:40:457;-0.34476504;9.921572;0.38307226
11:30:40:457;-0.34476504;9.921572;0.38307226
11:30:40:457;-0.34476504;9.921572;0.38307226
11:30:40:457;-0.34476504;9.921572;0.38307226
11:30:40:457;-0.34476504;9.921572;0.38307226
11:30:40:457;-0.34476504;9.921572;0.38307226
11:30:40:457;-0.34476504;9.921572;0.38307226
11:30:40:457;-0.34476504;9.921572;0.38307226
11:30:40:457;-0.34476504;9.921572;0.38307226
11:30:40:457;-0.34476504;9.921572;0.38307226
11:30:40:575;-0.4213795;9.940725;0.36391866
11:30:40:575;-0.4213795;9.940725;0.36391866
11:30:40:575;-0.4213795;9.940725;0.36391866
11:30:40:575;-0.4213795;9.940725;0.36391866
11:30:40:575;-0.4213795;9.940725;0.36391866
11:30:40:575;-0.4213795;9.940725;0.36391866
11:30:40:575;-0.4213795;9.940725;0.36391866
11:30:40:575;-0.4213795;9.940725;0.36391866
11:30:40:575;-0.4213795;9.940725;0.36391866
11:30:40:575;-0.4213795;9.940725;0.36391866
11:30:40:575;-0.4213795;9.940725;0.36391866
11:30:40:575;-0.4213795;9.940725;0.36391866
11:30:40:575;-0.4213795;9.940725;0.36391866
11:30:40:575;-0.4213795;9.940725;0.36391866
11:30:40:575;-0.4213795;9.940725;0.36391866
11:30:40:695;-0.49799395;10.055647;0.4405331
11:30:40:695;-0.49799395;10.055647;0.4405331
11:30:40:695;-0.49799395;10.055647;0.4405331
11:30:40:695;-0.49799395;10.055647;0.4405331
11:30:40:695;-0.49799395;10.055647;0.4405331
11:30:40:695;-0.49799395;10.055647;0.4405331
11:30:40:695;-0.49799395;10.055647;0.4405331
11:30:40:695;-0.49799395;10.055647;0.4405331
11:30:40:695;-0.49799395;10.055647;0.4405331
11:30:40:695;-0.49799395;10.055647;0.4405331
11:30:40:695;-0.49799395;10.055647;0.4405331
11:30:40:695;-0.49799395;10.055647;0.4405331
11:30:40:695;-0.49799395;10.055647;0.4405331
11:30:40:695;-0.49799395;10.055647;0.4405331
11:30:40:695;-0.49799395;10.055647;0.4405331
11:30:40:695;-0.49799395;10.055647;0.4405331
11:30:40:695;-0.49799395;10.055647;0.4405331
11:30:40:695;-0.49799395;10.055647;0.4405331
11:30:40:830;-0.34476504;9.921572;0.32561144
11:30:40:830;-0.34476504;9.921572;0.32561144
11:30:40:830;-0.34476504;9.921572;0.32561144
11:30:40:830;-0.34476504;9.921572;0.32561144
11:30:40:830;-0.34476504;9.921572;0.32561144
11:30:40:830;-0.34476504;9.921572;0.32561144
11:30:40:830;-0.34476504;9.921572;0.32561144
11:30:40:830;-0.34476504;9.921572;0.32561144
11:30:40:830;-0.34476504;9.921572;0.32561144
11:30:40:830;-0.34476504;9.921572;0.32561144
11:30:40:830;-0.34476504;9.921572;0.32561144
11:30:40:830;-0.34476504;9.921572;0.32561144
11:30:40:830;-0.34476504;9.921572;0.32561144
11:30:40:935;-0.49799395;9.959879;0.4405331
11:30:40:935;-0.49799395;9.959879;0.4405331
11:30:40:935;-0.49799395;9.959879;0.4405331
11:30:40:935;-0.49799395;9.959879;0.4405331
11:30:40:935;-0.49799395;9.959879;0.4405331
11:30:40:935;-0.49799395;9.959879;0.4405331
11:30:40:935;-0.49799395;9.959879;0.4405331
11:30:40:935;-0.49799395;9.959879;0.4405331
11:30:40:935;-0.49799395;9.959879;0.4405331
11:30:40:935;-0.49799395;9.959879;0.4405331
11:30:40:935;-0.49799395;9.959879;0.4405331
11:30:40:935;-0.49799395;9.959879;0.4405331
11:30:40:935;-0.49799395;9.959879;0.4405331
11:30:41:039;-0.36391866;9.825804;0.2873042
11:30:41:039;-0.36391866;9.825804;0.2873042
11:30:41:039;-0.36391866;9.825804;0.2873042
11:30:41:039;-0.36391866;9.825804;0.2873042
11:30:41:039;-0.36391866;9.825804;0.2873042
11:30:41:039;-0.36391866;9.825804;0.2873042
11:30:41:039;-0.36391866;9.825804;0.2873042
11:30:41:039;-0.36391866;9.825804;0.2873042
11:30:41:039;-0.36391866;9.825804;0.2873042
11:30:41:039;-0.36391866;9.825804;0.2873042
11:30:41:039;-0.36391866;9.825804;0.2873042
11:30:41:039;-0.36391866;9.825804;0.2873042
11:30:41:039;-0.36391866;9.825804;0.2873042
11:30:41:039;-0.36391866;9.825804;0.2873042
11:30:41:147;-0.36391866;9.9790325;0.34476504
11:30:41:147;-0.36391866;9.9790325;0.34476504
11:30:41:147;-0.36391866;9.9790325;0.34476504
11:30:41:147;-0.36391866;9.9790325;0.34476504
11:30:41:147;-0.36391866;9.9790325;0.34476504
11:30:41:147;-0.36391866;9.9790325;0.34476504
11:30:41:147;-0.36391866;9.9790325;0.34476504
11:30:41:147;-0.36391866;9.9790325;0.34476504
11:30:41:147;-0.36391866;9.9790325;0.34476504
11:30:41:147;-0.36391866;9.9790325;0.34476504
11:30:41:147;-0.36391866;9.9790325;0.34476504
11:30:41:147;-0.36391866;9.9790325;0.34476504
11:30:41:147;-0.36391866;9.9790325;0.34476504
11:30:41:147;-0.36391866;9.9790325;0.34476504
11:30:41:147;-0.36391866;9.9790325;0.34476504
11:30:41:259;-0.4405331;10.151415;0.24899697
11:30:41:259;-0.4405331;10.151415;0.24899697
11:30:41:259;-0.4405331;10.151415;0.24899697
11:30:41:259;-0.4405331;10.151415;0.24899697
11:30:41:259;-0.4405331;10.151415;0.24899697
11:30:41:259;-0.4405331;10.151415;0.24899697
11:30:41:259;-0.4405331;10.151415;0.24899697
11:30:41:259;-0.4405331;10.151415;0.24899697
11:30:41:259;-0.4405331;10.151415;0.24899697
11:30:41:259;-0.4405331;10.151415;0.24899697
11:30:41:259;-0.4405331;10.151415;0.24899697
11:30:41:259;-0.4405331;10.151415;0.24899697
11:30:41:259;-0.4405331;10.151415;0.24899697
11:30:41:259;-0.4405331;10.151415;0.24899697
11:30:41:259;-0.4405331;10.151415;0.24899697
11:30:41:377;-0.47884035;9.959879;0.34476504
11:30:41:377;-0.47884035;9.959879;0.34476504
11:30:41:377;-0.47884035;9.959879;0.34476504
11:30:41:377;-0.47884035;9.959879;0.34476504
11:30:41:377;-0.47884035;9.959879;0.34476504
11:30:41:377;-0.47884035;9.959879;0.34476504
11:30:41:377;-0.47884035;9.959879;0.34476504
11:30:41:377;-0.47884035;9.959879;0.34476504
11:30:41:377;-0.47884035;9.959879;0.34476504
11:30:41:377;-0.47884035;9.959879;0.34476504
11:30:41:377;-0.47884035;9.959879;0.34476504
11:30:41:377;-0.47884035;9.959879;0.34476504
11:30:41:377;-0.47884035;9.959879;0.34476504
11:30:41:478;-0.34476504;9.844957;0.49799395
11:30:41:478;-0.34476504;9.844957;0.49799395
11:30:41:478;-0.34476504;9.844957;0.49799395
11:30:41:478;-0.34476504;9.844957;0.49799395
11:30:41:478;-0.34476504;9.844957;0.49799395
11:30:41:478;-0.34476504;9.844957;0.49799395
11:30:41:478;-0.34476504;9.844957;0.49799395
11:30:41:478;-0.34476504;9.844957;0.49799395
11:30:41:478;-0.34476504;9.844957;0.49799395
11:30:41:478;-0.34476504;9.844957;0.49799395
11:30:41:478;-0.34476504;9.844957;0.49799395
11:30:41:478;-0.34476504;9.844957;0.49799395
11:30:41:478;-0.34476504;9.844957;0.49799395
11:30:41:478;-0.34476504;9.844957;0.49799395
11:30:41:478;-0.34476504;9.844957;0.49799395
11:30:41:595;-0.51714754;9.921572;0.47884035
11:30:41:595;-0.51714754;9.921572;0.47884035
11:30:41:595;-0.51714754;9.921572;0.47884035
11:30:41:595;-0.51714754;9.921572;0.47884035
11:30:41:595;-0.51714754;9.921572;0.47884035
11:30:41:595;-0.51714754;9.921572;0.47884035
11:30:41:595;-0.51714754;9.921572;0.47884035
11:30:41:595;-0.51714754;9.921572;0.47884035
11:30:41:595;-0.51714754;9.921572;0.47884035
11:30:41:595;-0.51714754;9.921572;0.47884035
11:30:41:595;-0.51714754;9.921572;0.47884035
11:30:41:595;-0.51714754;9.921572;0.47884035
11:30:41:595;-0.51714754;9.921572;0.47884035
11:30:41:595;-0.51714754;9.921572;0.47884035
11:30:41:595;-0.51714754;9.921572;0.47884035
11:30:41:713;-0.51714754;9.9790325;0.34476504
11:30:41:713;-0.51714754;9.9790325;0.34476504
11:30:41:713;-0.51714754;9.9790325;0.34476504
11:30:41:713;-0.51714754;9.9790325;0.34476504
11:30:41:713;-0.51714754;9.9790325;0.34476504
11:30:41:713;-0.51714754;9.9790325;0.34476504
11:30:41:713;-0.51714754;9.9790325;0.34476504
11:30:41:713;-0.51714754;9.9790325;0.34476504
11:30:41:713;-0.51714754;9.9790325;0.34476504
11:30:41:713;-0.51714754;9.9790325;0.34476504
11:30:41:713;-0.51714754;9.9790325;0.34476504
11:30:41:713;-0.51714754;9.9790325;0.34476504
11:30:41:713;-0.51714754;9.9790325;0.34476504
11:30:41:713;-0.51714754;9.9790325;0.34476504
11:30:41:713;-0.51714754;9.9790325;0.34476504
11:30:41:713;-0.51714754;9.9790325;0.34476504
11:30:41:836;-0.49799395;9.998186;0.4405331
11:30:41:836;-0.49799395;9.998186;0.4405331
11:30:41:836;-0.49799395;9.998186;0.4405331
11:30:41:836;-0.49799395;9.998186;0.4405331
11:30:41:836;-0.49799395;9.998186;0.4405331
11:30:41:836;-0.49799395;9.998186;0.4405331
11:30:41:836;-0.49799395;9.998186;0.4405331
11:30:41:836;-0.49799395;9.998186;0.4405331
11:30:41:836;-0.49799395;9.998186;0.4405331
11:30:41:836;-0.49799395;9.998186;0.4405331
11:30:41:836;-0.49799395;9.998186;0.4405331
11:30:41:836;-0.49799395;9.998186;0.4405331
11:30:41:836;-0.49799395;9.998186;0.4405331
11:30:41:836;-0.49799395;9.998186;0.4405331
11:30:41:948;-0.47884035;9.844957;0.40222588
11:30:41:948;-0.47884035;9.844957;0.40222588
11:30:41:948;-0.47884035;9.844957;0.40222588
11:30:41:948;-0.47884035;9.844957;0.40222588
11:30:41:948;-0.47884035;9.844957;0.40222588
11:30:41:948;-0.47884035;9.844957;0.40222588
11:30:41:948;-0.47884035;9.844957;0.40222588
11:30:41:948;-0.47884035;9.844957;0.40222588
11:30:41:948;-0.47884035;9.844957;0.40222588
11:30:41:948;-0.47884035;9.844957;0.40222588
11:30:41:948;-0.47884035;9.844957;0.40222588
11:30:41:948;-0.47884035;9.844957;0.40222588
11:30:41:948;-0.47884035;9.844957;0.40222588
11:30:41:948;-0.47884035;9.844957;0.40222588
11:30:41:948;-0.47884035;9.844957;0.40222588
11:30:42:065;-0.5746084;9.940725;0.4213795
11:30:42:065;-0.5746084;9.940725;0.4213795
11:30:42:065;-0.5746084;9.940725;0.4213795
11:30:42:065;-0.5746084;9.940725;0.4213795
11:30:42:065;-0.5746084;9.940725;0.4213795
11:30:42:065;-0.5746084;9.940725;0.4213795
11:30:42:065;-0.5746084;9.940725;0.4213795
11:30:42:065;-0.5746084;9.940725;0.4213795
11:30:42:065;-0.5746084;9.940725;0.4213795
11:30:42:065;-0.5746084;9.940725;0.4213795
11:30:42:065;-0.5746084;9.940725;0.4213795
11:30:42:065;-0.5746084;9.940725;0.4213795
11:30:42:065;-0.5746084;9.940725;0.4213795
11:30:42:065;-0.5746084;9.940725;0.4213795
11:30:42:065;-0.5746084;9.940725;0.4213795
11:30:42:184;-0.36391866;9.998186;0.4405331
11:30:42:184;-0.36391866;9.998186;0.4405331
11:30:42:184;-0.36391866;9.998186;0.4405331
11:30:42:184;-0.36391866;9.998186;0.4405331
11:30:42:184;-0.36391866;9.998186;0.4405331
11:30:42:184;-0.36391866;9.998186;0.4405331
11:30:42:184;-0.36391866;9.998186;0.4405331
11:30:42:184;-0.36391866;9.998186;0.4405331
11:30:42:184;-0.36391866;9.998186;0.4405331
11:30:42:184;-0.36391866;9.998186;0.4405331
11:30:42:184;-0.36391866;9.998186;0.4405331
11:30:42:184;-0.36391866;9.998186;0.4405331
11:30:42:184;-0.36391866;9.998186;0.4405331
11:30:42:184;-0.36391866;9.998186;0.4405331
11:30:42:184;-0.36391866;9.998186;0.4405331
11:30:42:303;-0.4213795;9.883265;0.4213795
11:30:42:303;-0.4213795;9.883265;0.4213795
11:30:42:303;-0.4213795;9.883265;0.4213795
11:30:42:303;-0.4213795;9.883265;0.4213795
11:30:42:303;-0.4213795;9.883265;0.4213795
11:30:42:303;-0.4213795;9.883265;0.4213795
11:30:42:303;-0.4213795;9.883265;0.4213795
11:30:42:303;-0.4213795;9.883265;0.4213795
11:30:42:303;-0.4213795;9.883265;0.4213795
11:30:42:303;-0.4213795;9.883265;0.4213795
11:30:42:303;-0.4213795;9.883265;0.4213795
11:30:42:303;-0.4213795;9.883265;0.4213795
11:30:42:303;-0.4213795;9.883265;0.4213795
11:30:42:303;-0.4213795;9.883265;0.4213795
11:30:42:303;-0.4213795;9.883265;0.4213795
11:30:42:419;-0.30645782;10.01734;0.49799395
11:30:42:419;-0.30645782;10.01734;0.49799395
11:30:42:419;-0.30645782;10.01734;0.49799395
11:30:42:419;-0.30645782;10.01734;0.49799395
11:30:42:419;-0.30645782;10.01734;0.49799395
11:30:42:419;-0.30645782;10.01734;0.49799395
11:30:42:419;-0.30645782;10.01734;0.49799395
11:30:42:419;-0.30645782;10.01734;0.49799395
11:30:42:419;-0.30645782;10.01734;0.49799395
11:30:42:419;-0.30645782;10.01734;0.49799395
11:30:42:419;-0.30645782;10.01734;0.49799395
11:30:42:419;-0.30645782;10.01734;0.49799395
11:30:42:419;-0.30645782;10.01734;0.49799395
11:30:42:522;-0.51714754;10.01734;0.4213795
11:30:42:522;-0.51714754;10.01734;0.4213795
11:30:42:522;-0.51714754;10.01734;0.4213795
11:30:42:522;-0.51714754;10.01734;0.4213795
11:30:42:522;-0.51714754;10.01734;0.4213795
11:30:42:522;-0.51714754;10.01734;0.4213795
11:30:42:522;-0.51714754;10.01734;0.4213795
11:30:42:522;-0.51714754;10.01734;0.4213795
11:30:42:522;-0.51714754;10.01734;0.4213795
11:30:42:522;-0.51714754;10.01734;0.4213795
11:30:42:522;-0.51714754;10.01734;0.4213795
11:30:42:522;-0.51714754;10.01734;0.4213795
11:30:42:522;-0.51714754;10.01734;0.4213795
11:30:42:623;-0.51714754;9.998186;0.32561144
11:30:42:623;-0.51714754;9.998186;0.32561144
11:30:42:623;-0.51714754;9.998186;0.32561144
11:30:42:623;-0.51714754;9.998186;0.32561144
11:30:42:623;-0.51714754;9.998186;0.32561144
11:30:42:623;-0.51714754;9.998186;0.32561144
11:30:42:623;-0.51714754;9.998186;0.32561144
11:30:42:623;-0.51714754;9.998186;0.32561144
11:30:42:623;-0.51714754;9.998186;0.32561144
11:30:42:623;-0.51714754;9.998186;0.32561144
11:30:42:623;-0.51714754;9.998186;0.32561144
11:30:42:623;-0.51714754;9.998186;0.32561144
11:30:42:623;-0.51714754;9.998186;0.32561144
11:30:42:623;-0.51714754;9.998186;0.32561144
11:30:42:623;-0.51714754;9.998186;0.32561144
11:30:42:741;-0.51714754;9.9790325;0.21068975
11:30:42:741;-0.51714754;9.9790325;0.21068975
11:30:42:741;-0.51714754;9.9790325;0.21068975
11:30:42:741;-0.51714754;9.9790325;0.21068975
11:30:42:741;-0.51714754;9.9790325;0.21068975
11:30:42:741;-0.51714754;9.9790325;0.21068975
11:30:42:741;-0.51714754;9.9790325;0.21068975
11:30:42:741;-0.51714754;9.9790325;0.21068975
11:30:42:741;-0.51714754;9.9790325;0.21068975
11:30:42:741;-0.51714754;9.9790325;0.21068975
11:30:42:741;-0.51714754;9.9790325;0.21068975
11:30:42:741;-0.51714754;9.9790325;0.21068975
11:30:42:741;-0.51714754;9.9790325;0.21068975
11:30:42:741;-0.51714754;9.9790325;0.21068975
11:30:42:741;-0.51714754;9.9790325;0.21068975
11:30:42:741;-0.51714754;9.9790325;0.21068975
11:30:42:741;-0.51714754;9.9790325;0.21068975
11:30:42:872;-0.49799395;9.9790325;0.4405331
11:30:42:872;-0.49799395;9.9790325;0.4405331
11:30:42:872;-0.49799395;9.9790325;0.4405331
11:30:42:872;-0.49799395;9.9790325;0.4405331
11:30:42:872;-0.49799395;9.9790325;0.4405331
11:30:42:872;-0.49799395;9.9790325;0.4405331
11:30:42:872;-0.49799395;9.9790325;0.4405331
11:30:42:872;-0.49799395;9.9790325;0.4405331
11:30:42:872;-0.49799395;9.9790325;0.4405331
11:30:42:872;-0.49799395;9.9790325;0.4405331
11:30:42:872;-0.49799395;9.9790325;0.4405331
11:30:42:872;-0.49799395;9.9790325;0.4405331
11:30:42:872;-0.49799395;9.9790325;0.4405331
11:30:42:872;-0.49799395;9.9790325;0.4405331
11:30:42:980;-0.40222588;9.883265;0.2681506
11:30:42:980;-0.40222588;9.883265;0.2681506
11:30:42:980;-0.40222588;9.883265;0.2681506
11:30:42:980;-0.40222588;9.883265;0.2681506
11:30:42:980;-0.40222588;9.883265;0.2681506
11:30:42:980;-0.40222588;9.883265;0.2681506
11:30:42:980;-0.40222588;9.883265;0.2681506
11:30:42:980;-0.40222588;9.883265;0.2681506
11:30:42:980;-0.40222588;9.883265;0.2681506
11:30:42:980;-0.40222588;9.883265;0.2681506
11:30:42:980;-0.40222588;9.883265;0.2681506
11:30:42:980;-0.40222588;9.883265;0.2681506
11:30:42:980;-0.40222588;9.883265;0.2681506
11:30:42:980;-0.40222588;9.883265;0.2681506
11:30:42:980;-0.40222588;9.883265;0.2681506
11:30:42:980;-0.40222588;9.883265;0.2681506
11:30:43:109;-0.4213795;9.940725;0.49799395
11:30:43:109;-0.4213795;9.940725;0.49799395
11:30:43:109;-0.4213795;9.940725;0.49799395
11:30:43:109;-0.4213795;9.940725;0.49799395
11:30:43:109;-0.4213795;9.940725;0.49799395
11:30:43:109;-0.4213795;9.940725;0.49799395
11:30:43:109;-0.4213795;9.940725;0.49799395
11:30:43:109;-0.4213795;9.940725;0.49799395
11:30:43:109;-0.4213795;9.940725;0.49799395
11:30:43:109;-0.4213795;9.940725;0.49799395
11:30:43:109;-0.4213795;9.940725;0.49799395
11:30:43:109;-0.4213795;9.940725;0.49799395
11:30:43:109;-0.4213795;9.940725;0.49799395
11:30:43:109;-0.4213795;9.940725;0.49799395
11:30:43:109;-0.4213795;9.940725;0.49799395
11:30:43:221;-0.38307226;9.864111;0.38307226
11:30:43:221;-0.38307226;9.864111;0.38307226
11:30:43:221;-0.38307226;9.864111;0.38307226
11:30:43:221;-0.38307226;9.864111;0.38307226
11:30:43:221;-0.38307226;9.864111;0.38307226
11:30:43:221;-0.38307226;9.864111;0.38307226
11:30:43:221;-0.38307226;9.864111;0.38307226
11:30:43:221;-0.38307226;9.864111;0.38307226
11:30:43:221;-0.38307226;9.864111;0.38307226
11:30:43:221;-0.38307226;9.864111;0.38307226
11:30:43:221;-0.38307226;9.864111;0.38307226
11:30:43:221;-0.38307226;9.864111;0.38307226
11:30:43:221;-0.38307226;9.864111;0.38307226
11:30:43:221;-0.38307226;9.864111;0.38307226
11:30:43:334;-0.40222588;9.959879;0.40222588
11:30:43:334;-0.40222588;9.959879;0.40222588
11:30:43:334;-0.40222588;9.959879;0.40222588
11:30:43:334;-0.40222588;9.959879;0.40222588
11:30:43:334;-0.40222588;9.959879;0.40222588
11:30:43:334;-0.40222588;9.959879;0.40222588
11:30:43:334;-0.40222588;9.959879;0.40222588
11:30:43:334;-0.40222588;9.959879;0.40222588
11:30:43:334;-0.40222588;9.959879;0.40222588
11:30:43:334;-0.40222588;9.959879;0.40222588
11:30:43:334;-0.40222588;9.959879;0.40222588
11:30:43:334;-0.40222588;9.959879;0.40222588
11:30:43:334;-0.40222588;9.959879;0.40222588
11:30:43:334;-0.40222588;9.959879;0.40222588
11:30:43:334;-0.40222588;9.959879;0.40222588
11:30:43:453;-0.49799395;9.959879;0.40222588
11:30:43:453;-0.49799395;9.959879;0.40222588
11:30:43:453;-0.49799395;9.959879;0.40222588
11:30:43:453;-0.49799395;9.959879;0.40222588
11:30:43:453;-0.49799395;9.959879;0.40222588
11:30:43:453;-0.49799395;9.959879;0.40222588
11:30:43:453;-0.49799395;9.959879;0.40222588
11:30:43:453;-0.49799395;9.959879;0.40222588
11:30:43:453;-0.49799395;9.959879;0.40222588
11:30:43:453;-0.49799395;9.959879;0.40222588
11:30:43:453;-0.49799395;9.959879;0.40222588
11:30:43:453;-0.49799395;9.959879;0.40222588
11:30:43:453;-0.49799395;9.959879;0.40222588
11:30:43:453;-0.49799395;9.959879;0.40222588
11:30:43:453;-0.49799395;9.959879;0.40222588
11:30:43:569;-0.38307226;9.902418;0.38307226
11:30:43:569;-0.38307226;9.902418;0.38307226
11:30:43:569;-0.38307226;9.902418;0.38307226
11:30:43:569;-0.38307226;9.902418;0.38307226
11:30:43:569;-0.38307226;9.902418;0.38307226
11:30:43:569;-0.38307226;9.902418;0.38307226
11:30:43:569;-0.38307226;9.902418;0.38307226
11:30:43:569;-0.38307226;9.902418;0.38307226
11:30:43:569;-0.38307226;9.902418;0.38307226
11:30:43:569;-0.38307226;9.902418;0.38307226
11:30:43:569;-0.38307226;9.902418;0.38307226
11:30:43:569;-0.38307226;9.902418;0.38307226
11:30:43:569;-0.38307226;9.902418;0.38307226
11:30:43:569;-0.38307226;9.902418;0.38307226
11:30:43:569;-0.38307226;9.902418;0.38307226
11:30:43:569;-0.38307226;9.902418;0.38307226
11:30:43:690;-0.40222588;9.902418;0.24899697
11:30:43:690;-0.40222588;9.902418;0.24899697
11:30:43:690;-0.40222588;9.902418;0.24899697
11:30:43:690;-0.40222588;9.902418;0.24899697
11:30:43:690;-0.40222588;9.902418;0.24899697
11:30:43:690;-0.40222588;9.902418;0.24899697
11:30:43:690;-0.40222588;9.902418;0.24899697
11:30:43:690;-0.40222588;9.902418;0.24899697
11:30:43:690;-0.40222588;9.902418;0.24899697
11:30:43:690;-0.40222588;9.902418;0.24899697
11:30:43:690;-0.40222588;9.902418;0.24899697
11:30:43:690;-0.40222588;9.902418;0.24899697
11:30:43:690;-0.40222588;9.902418;0.24899697
11:30:43:690;-0.40222588;9.902418;0.24899697
11:30:43:798;-0.47884035;9.902418;0.36391866
11:30:43:798;-0.47884035;9.902418;0.36391866
11:30:43:798;-0.47884035;9.902418;0.36391866
11:30:43:798;-0.47884035;9.902418;0.36391866
11:30:43:798;-0.47884035;9.902418;0.36391866
11:30:43:798;-0.47884035;9.902418;0.36391866
11:30:43:798;-0.47884035;9.902418;0.36391866
11:30:43:798;-0.47884035;9.902418;0.36391866
11:30:43:798;-0.47884035;9.902418;0.36391866
11:30:43:798;-0.47884035;9.902418;0.36391866
11:30:43:798;-0.47884035;9.902418;0.36391866
11:30:43:798;-0.47884035;9.902418;0.36391866
11:30:43:798;-0.47884035;9.902418;0.36391866
11:30:43:798;-0.47884035;9.902418;0.36391866
11:30:43:798;-0.47884035;9.902418;0.36391866
11:30:43:917;-0.45968673;9.902418;0.45968673
11:30:43:917;-0.45968673;9.902418;0.45968673
11:30:43:917;-0.45968673;9.902418;0.45968673
11:30:43:917;-0.45968673;9.902418;0.45968673
11:30:43:917;-0.45968673;9.902418;0.45968673
11:30:43:917;-0.45968673;9.902418;0.45968673
11:30:43:917;-0.45968673;9.902418;0.45968673
11:30:43:917;-0.45968673;9.902418;0.45968673
11:30:43:917;-0.45968673;9.902418;0.45968673
11:30:43:917;-0.45968673;9.902418;0.45968673
11:30:43:917;-0.45968673;9.902418;0.45968673
11:30:43:917;-0.45968673;9.902418;0.45968673
11:30:43:917;-0.45968673;9.902418;0.45968673
11:30:43:917;-0.45968673;9.902418;0.45968673
11:30:43:917;-0.45968673;9.902418;0.45968673
11:30:43:917;-0.45968673;9.902418;0.45968673
11:30:43:917;-0.45968673;9.902418;0.45968673
11:30:43:917;-0.45968673;9.902418;0.45968673
11:30:43:917;-0.45968673;9.902418;0.45968673
11:30:44:067;-0.51714754;9.959879;0.30645782
11:30:44:067;-0.51714754;9.959879;0.30645782
11:30:44:067;-0.51714754;9.959879;0.30645782
11:30:44:067;-0.51714754;9.959879;0.30645782
11:30:44:067;-0.51714754;9.959879;0.30645782
11:30:44:067;-0.51714754;9.959879;0.30645782
11:30:44:067;-0.51714754;9.959879;0.30645782
11:30:44:067;-0.51714754;9.959879;0.30645782
11:30:44:067;-0.51714754;9.959879;0.30645782
11:30:44:067;-0.51714754;9.959879;0.30645782
11:30:44:067;-0.51714754;9.959879;0.30645782
11:30:44:067;-0.51714754;9.959879;0.30645782
11:30:44:067;-0.51714754;9.959879;0.30645782
11:30:44:067;-0.51714754;9.959879;0.30645782
11:30:44:067;-0.51714754;9.959879;0.30645782
11:30:44:183;-0.49799395;9.9790325;0.40222588
11:30:44:183;-0.49799395;9.9790325;0.40222588
11:30:44:183;-0.49799395;9.9790325;0.40222588
11:30:44:183;-0.49799395;9.9790325;0.40222588
11:30:44:183;-0.49799395;9.9790325;0.40222588
11:30:44:183;-0.49799395;9.9790325;0.40222588
11:30:44:183;-0.49799395;9.9790325;0.40222588
11:30:44:183;-0.49799395;9.9790325;0.40222588
11:30:44:183;-0.49799395;9.9790325;0.40222588
11:30:44:183;-0.49799395;9.9790325;0.40222588
11:30:44:183;-0.49799395;9.9790325;0.40222588
11:30:44:183;-0.49799395;9.9790325;0.40222588
11:30:44:183;-0.49799395;9.9790325;0.40222588
11:30:44:183;-0.49799395;9.9790325;0.40222588
11:30:44:183;-0.49799395;9.9790325;0.40222588
11:30:44:183;-0.49799395;9.9790325;0.40222588
11:30:44:183;-0.49799395;9.9790325;0.40222588
11:30:44:183;-0.49799395;9.9790325;0.40222588
11:30:44:183;-0.49799395;9.9790325;0.40222588
11:30:44:183;-0.49799395;9.9790325;0.40222588
11:30:44:183;-0.49799395;9.9790325;0.40222588
11:30:44:351;-0.40222588;9.864111;0.45968673
11:30:44:351;-0.40222588;9.864111;0.45968673
11:30:44:351;-0.40222588;9.864111;0.45968673
11:30:44:351;-0.40222588;9.864111;0.45968673
11:30:44:351;-0.40222588;9.864111;0.45968673
11:30:44:351;-0.40222588;9.864111;0.45968673
11:30:44:351;-0.40222588;9.864111;0.45968673
11:30:44:351;-0.40222588;9.864111;0.45968673
11:30:44:351;-0.40222588;9.864111;0.45968673
11:30:44:351;-0.40222588;9.864111;0.45968673
11:30:44:351;-0.40222588;9.864111;0.45968673
11:30:44:351;-0.40222588;9.864111;0.45968673
11:30:44:351;-0.40222588;9.864111;0.45968673
11:30:44:453;-0.45968673;9.921572;0.45968673
11:30:44:453;-0.45968673;9.921572;0.45968673
11:30:44:453;-0.45968673;9.921572;0.45968673
11:30:44:453;-0.45968673;9.921572;0.45968673
11:30:44:453;-0.45968673;9.921572;0.45968673
11:30:44:453;-0.45968673;9.921572;0.45968673
11:30:44:453;-0.45968673;9.921572;0.45968673
11:30:44:453;-0.45968673;9.921572;0.45968673
11:30:44:453;-0.45968673;9.921572;0.45968673
11:30:44:453;-0.45968673;9.921572;0.45968673
11:30:44:453;-0.45968673;9.921572;0.45968673
11:30:44:453;-0.45968673;9.921572;0.45968673
11:30:44:453;-0.45968673;9.921572;0.45968673
11:30:44:453;-0.45968673;9.921572;0.45968673
11:30:44:453;-0.45968673;9.921572;0.45968673
11:30:44:565;-0.5554548;9.959879;0.59376204
11:30:44:565;-0.5554548;9.959879;0.59376204
11:30:44:565;-0.5554548;9.959879;0.59376204
11:30:44:565;-0.5554548;9.959879;0.59376204
11:30:44:565;-0.5554548;9.959879;0.59376204
11:30:44:565;-0.5554548;9.959879;0.59376204
11:30:44:565;-0.5554548;9.959879;0.59376204
11:30:44:565;-0.5554548;9.959879;0.59376204
11:30:44:565;-0.5554548;9.959879;0.59376204
11:30:44:565;-0.5554548;9.959879;0.59376204
11:30:44:565;-0.5554548;9.959879;0.59376204
11:30:44:565;-0.5554548;9.959879;0.59376204
11:30:44:565;-0.5554548;9.959879;0.59376204
11:30:44:565;-0.5554548;9.959879;0.59376204
11:30:44:565;-0.5554548;9.959879;0.59376204
11:30:44:684;-0.4213795;9.902418;0.40222588
11:30:44:684;-0.4213795;9.902418;0.40222588
11:30:44:684;-0.4213795;9.902418;0.40222588
11:30:44:684;-0.4213795;9.902418;0.40222588
11:30:44:684;-0.4213795;9.902418;0.40222588
11:30:44:684;-0.4213795;9.902418;0.40222588
11:30:44:684;-0.4213795;9.902418;0.40222588
11:30:44:684;-0.4213795;9.902418;0.40222588
11:30:44:684;-0.4213795;9.902418;0.40222588
11:30:44:684;-0.4213795;9.902418;0.40222588
11:30:44:684;-0.4213795;9.902418;0.40222588
11:30:44:684;-0.4213795;9.902418;0.40222588
11:30:44:684;-0.4213795;9.902418;0.40222588
11:30:44:788;-0.4405331;10.036493;0.36391866
11:30:44:788;-0.4405331;10.036493;0.36391866
11:30:44:788;-0.4405331;10.036493;0.36391866
11:30:44:788;-0.4405331;10.036493;0.36391866
11:30:44:788;-0.4405331;10.036493;0.36391866
11:30:44:788;-0.4405331;10.036493;0.36391866
11:30:44:788;-0.4405331;10.036493;0.36391866
11:30:44:788;-0.4405331;10.036493;0.36391866
11:30:44:788;-0.4405331;10.036493;0.36391866
11:30:44:788;-0.4405331;10.036493;0.36391866
11:30:44:788;-0.4405331;10.036493;0.36391866
11:30:44:788;-0.4405331;10.036493;0.36391866
11:30:44:788;-0.4405331;10.036493;0.36391866
11:30:44:788;-0.4405331;10.036493;0.36391866
11:30:44:788;-0.4405331;10.036493;0.36391866
11:30:44:904;-0.4405331;9.883265;0.4213795
11:30:44:904;-0.4405331;9.883265;0.4213795
11:30:44:904;-0.4405331;9.883265;0.4213795
11:30:44:904;-0.4405331;9.883265;0.4213795
11:30:44:904;-0.4405331;9.883265;0.4213795
11:30:44:904;-0.4405331;9.883265;0.4213795
11:30:44:904;-0.4405331;9.883265;0.4213795
11:30:44:904;-0.4405331;9.883265;0.4213795
11:30:44:904;-0.4405331;9.883265;0.4213795
11:30:44:904;-0.4405331;9.883265;0.4213795
11:30:44:904;-0.4405331;9.883265;0.4213795
11:30:44:904;-0.4405331;9.883265;0.4213795
11:30:44:904;-0.4405331;9.883265;0.4213795
11:30:44:904;-0.4405331;9.883265;0.4213795
11:30:44:904;-0.4405331;9.883265;0.4213795
11:30:44:904;-0.4405331;9.883265;0.4213795
11:30:44:904;-0.4405331;9.883265;0.4213795
11:30:44:904;-0.4405331;9.883265;0.4213795
11:30:45:041;-0.47884035;9.902418;0.51714754
11:30:45:041;-0.47884035;9.902418;0.51714754
11:30:45:041;-0.47884035;9.902418;0.51714754
11:30:45:041;-0.47884035;9.902418;0.51714754
11:30:45:041;-0.47884035;9.902418;0.51714754
11:30:45:041;-0.47884035;9.902418;0.51714754
11:30:45:041;-0.47884035;9.902418;0.51714754
11:30:45:041;-0.47884035;9.902418;0.51714754
11:30:45:041;-0.47884035;9.902418;0.51714754
11:30:45:041;-0.47884035;9.902418;0.51714754
11:30:45:041;-0.47884035;9.902418;0.51714754
11:30:45:041;-0.47884035;9.902418;0.51714754
11:30:45:041;-0.47884035;9.902418;0.51714754
11:30:45:041;-0.47884035;9.902418;0.51714754
11:30:45:041;-0.47884035;9.902418;0.51714754
11:30:45:041;-0.47884035;9.902418;0.51714754
11:30:45:041;-0.47884035;9.902418;0.51714754
11:30:45:175;-0.45968673;10.01734;0.49799395
11:30:45:175;-0.45968673;10.01734;0.49799395
11:30:45:175;-0.45968673;10.01734;0.49799395
11:30:45:175;-0.45968673;10.01734;0.49799395
11:30:45:175;-0.45968673;10.01734;0.49799395
11:30:45:175;-0.45968673;10.01734;0.49799395
11:30:45:175;-0.45968673;10.01734;0.49799395
11:30:45:175;-0.45968673;10.01734;0.49799395
11:30:45:175;-0.45968673;10.01734;0.49799395
11:30:45:175;-0.45968673;10.01734;0.49799395
11:30:45:175;-0.45968673;10.01734;0.49799395
11:30:45:175;-0.45968673;10.01734;0.49799395
11:30:45:175;-0.45968673;10.01734;0.49799395
11:30:45:276;-0.45968673;9.998186;0.40222588
11:30:45:276;-0.45968673;9.998186;0.40222588
11:30:45:276;-0.45968673;9.998186;0.40222588
11:30:45:276;-0.45968673;9.998186;0.40222588
11:30:45:276;-0.45968673;9.998186;0.40222588
11:30:45:276;-0.45968673;9.998186;0.40222588
11:30:45:276;-0.45968673;9.998186;0.40222588
11:30:45:276;-0.45968673;9.998186;0.40222588
11:30:45:276;-0.45968673;9.998186;0.40222588
11:30:45:276;-0.45968673;9.998186;0.40222588
11:30:45:276;-0.45968673;9.998186;0.40222588
11:30:45:276;-0.45968673;9.998186;0.40222588
11:30:45:276;-0.45968673;9.998186;0.40222588
11:30:45:276;-0.45968673;9.998186;0.40222588
11:30:45:276;-0.45968673;9.998186;0.40222588
11:30:45:276;-0.45968673;9.998186;0.40222588
11:30:45:276;-0.45968673;9.998186;0.40222588
11:30:45:276;-0.45968673;9.998186;0.40222588
11:30:45:276;-0.45968673;9.998186;0.40222588
11:30:45:427;-0.38307226;9.959879;0.38307226
11:30:45:427;-0.38307226;9.959879;0.38307226
11:30:45:427;-0.38307226;9.959879;0.38307226
11:30:45:427;-0.38307226;9.959879;0.38307226
11:30:45:427;-0.38307226;9.959879;0.38307226
11:30:45:427;-0.38307226;9.959879;0.38307226
11:30:45:427;-0.38307226;9.959879;0.38307226
11:30:45:427;-0.38307226;9.959879;0.38307226
11:30:45:427;-0.38307226;9.959879;0.38307226
11:30:45:427;-0.38307226;9.959879;0.38307226
11:30:45:427;-0.38307226;9.959879;0.38307226
11:30:45:427;-0.38307226;9.959879;0.38307226
11:30:45:427;-0.38307226;9.959879;0.38307226
11:30:45:427;-0.38307226;9.959879;0.38307226
11:30:45:427;-0.38307226;9.959879;0.38307226
11:30:45:545;-0.45968673;9.883265;0.30645782
11:30:45:545;-0.45968673;9.883265;0.30645782
11:30:45:545;-0.45968673;9.883265;0.30645782
11:30:45:545;-0.45968673;9.883265;0.30645782
11:30:45:545;-0.45968673;9.883265;0.30645782
11:30:45:545;-0.45968673;9.883265;0.30645782
11:30:45:545;-0.45968673;9.883265;0.30645782
11:30:45:545;-0.45968673;9.883265;0.30645782
11:30:45:545;-0.45968673;9.883265;0.30645782
11:30:45:545;-0.45968673;9.883265;0.30645782
11:30:45:545;-0.45968673;9.883265;0.30645782
11:30:45:545;-0.45968673;9.883265;0.30645782
11:30:45:545;-0.45968673;9.883265;0.30645782
11:30:45:545;-0.45968673;9.883265;0.30645782
11:30:45:545;-0.45968673;9.883265;0.30645782
11:30:45:663;-0.5363012;9.921572;0.45968673
11:30:45:663;-0.5363012;9.921572;0.45968673
11:30:45:663;-0.5363012;9.921572;0.45968673
11:30:45:663;-0.5363012;9.921572;0.45968673
11:30:45:663;-0.5363012;9.921572;0.45968673
11:30:45:663;-0.5363012;9.921572;0.45968673
11:30:45:663;-0.5363012;9.921572;0.45968673
11:30:45:663;-0.5363012;9.921572;0.45968673
11:30:45:663;-0.5363012;9.921572;0.45968673
11:30:45:663;-0.5363012;9.921572;0.45968673
11:30:45:663;-0.5363012;9.921572;0.45968673
11:30:45:663;-0.5363012;9.921572;0.45968673
11:30:45:663;-0.5363012;9.921572;0.45968673
11:30:45:663;-0.5363012;9.921572;0.45968673
11:30:45:663;-0.5363012;9.921572;0.45968673
11:30:45:781;-0.4405331;9.940725;0.40222588
11:30:45:781;-0.4405331;9.940725;0.40222588
11:30:45:781;-0.4405331;9.940725;0.40222588
11:30:45:781;-0.4405331;9.940725;0.40222588
11:30:45:781;-0.4405331;9.940725;0.40222588
11:30:45:781;-0.4405331;9.940725;0.40222588
11:30:45:781;-0.4405331;9.940725;0.40222588
11:30:45:781;-0.4405331;9.940725;0.40222588
11:30:45:781;-0.4405331;9.940725;0.40222588
11:30:45:781;-0.4405331;9.940725;0.40222588
11:30:45:781;-0.4405331;9.940725;0.40222588
11:30:45:781;-0.4405331;9.940725;0.40222588
11:30:45:781;-0.4405331;9.940725;0.40222588
11:30:45:781;-0.4405331;9.940725;0.40222588
11:30:45:781;-0.4405331;9.940725;0.40222588
11:30:45:781;-0.4405331;9.940725;0.40222588
11:30:45:901;-0.40222588;9.844957;0.4213795
11:30:45:901;-0.40222588;9.844957;0.4213795
11:30:45:901;-0.40222588;9.844957;0.4213795
11:30:45:901;-0.40222588;9.844957;0.4213795
11:30:45:901;-0.40222588;9.844957;0.4213795
11:30:45:901;-0.40222588;9.844957;0.4213795
11:30:45:901;-0.40222588;9.844957;0.4213795
11:30:45:901;-0.40222588;9.844957;0.4213795
11:30:45:901;-0.40222588;9.844957;0.4213795
11:30:45:901;-0.40222588;9.844957;0.4213795
11:30:45:901;-0.40222588;9.844957;0.4213795
11:30:45:901;-0.40222588;9.844957;0.4213795
11:30:45:901;-0.40222588;9.844957;0.4213795
11:30:46:007;-0.49799395;9.921572;0.47884035
11:30:46:007;-0.49799395;9.921572;0.47884035
11:30:46:007;-0.49799395;9.921572;0.47884035
11:30:46:007;-0.49799395;9.921572;0.47884035
11:30:46:007;-0.49799395;9.921572;0.47884035
11:30:46:007;-0.49799395;9.921572;0.47884035
11:30:46:007;-0.49799395;9.921572;0.47884035
11:30:46:007;-0.49799395;9.921572;0.47884035
11:30:46:007;-0.49799395;9.921572;0.47884035
11:30:46:007;-0.49799395;9.921572;0.47884035
11:30:46:007;-0.49799395;9.921572;0.47884035
11:30:46:007;-0.49799395;9.921572;0.47884035
11:30:46:007;-0.49799395;9.921572;0.47884035
11:30:46:007;-0.49799395;9.921572;0.47884035
11:30:46:007;-0.49799395;9.921572;0.47884035
11:30:46:125;-0.49799395;9.921572;0.38307226
11:30:46:125;-0.49799395;9.921572;0.38307226
11:30:46:125;-0.49799395;9.921572;0.38307226
11:30:46:125;-0.49799395;9.921572;0.38307226
11:30:46:125;-0.49799395;9.921572;0.38307226
11:30:46:125;-0.49799395;9.921572;0.38307226
11:30:46:125;-0.49799395;9.921572;0.38307226
11:30:46:125;-0.49799395;9.921572;0.38307226
11:30:46:125;-0.49799395;9.921572;0.38307226
11:30:46:125;-0.49799395;9.921572;0.38307226
11:30:46:125;-0.49799395;9.921572;0.38307226
11:30:46:125;-0.49799395;9.921572;0.38307226
11:30:46:125;-0.49799395;9.921572;0.38307226
11:30:46:125;-0.49799395;9.921572;0.38307226
11:30:46:125;-0.49799395;9.921572;0.38307226
11:30:46:237;-0.34476504;10.01734;0.38307226
11:30:46:237;-0.34476504;10.01734;0.38307226
11:30:46:237;-0.34476504;10.01734;0.38307226
11:30:46:237;-0.34476504;10.01734;0.38307226
11:30:46:237;-0.34476504;10.01734;0.38307226
11:30:46:237;-0.34476504;10.01734;0.38307226
11:30:46:237;-0.34476504;10.01734;0.38307226
11:30:46:237;-0.34476504;10.01734;0.38307226
11:30:46:237;-0.34476504;10.01734;0.38307226
11:30:46:237;-0.34476504;10.01734;0.38307226
11:30:46:237;-0.34476504;10.01734;0.38307226
11:30:46:237;-0.34476504;10.01734;0.38307226
11:30:46:237;-0.34476504;10.01734;0.38307226
11:30:46:237;-0.34476504;10.01734;0.38307226
11:30:46:237;-0.34476504;10.01734;0.38307226
11:30:46:356;-0.47884035;10.01734;0.49799395
11:30:46:356;-0.47884035;10.01734;0.49799395
11:30:46:356;-0.47884035;10.01734;0.49799395
11:30:46:356;-0.47884035;10.01734;0.49799395
11:30:46:356;-0.47884035;10.01734;0.49799395
11:30:46:356;-0.47884035;10.01734;0.49799395
11:30:46:356;-0.47884035;10.01734;0.49799395
11:30:46:356;-0.47884035;10.01734;0.49799395
11:30:46:356;-0.47884035;10.01734;0.49799395
11:30:46:356;-0.47884035;10.01734;0.49799395
11:30:46:356;-0.47884035;10.01734;0.49799395
11:30:46:356;-0.47884035;10.01734;0.49799395
11:30:46:356;-0.47884035;10.01734;0.49799395
11:30:46:356;-0.47884035;10.01734;0.49799395
11:30:46:356;-0.47884035;10.01734;0.49799395
11:30:46:474;-0.61291564;9.959879;0.49799395
11:30:46:474;-0.61291564;9.959879;0.49799395
11:30:46:474;-0.61291564;9.959879;0.49799395
11:30:46:474;-0.61291564;9.959879;0.49799395
11:30:46:474;-0.61291564;9.959879;0.49799395
11:30:46:474;-0.61291564;9.959879;0.49799395
11:30:46:474;-0.61291564;9.959879;0.49799395
11:30:46:474;-0.61291564;9.959879;0.49799395
11:30:46:474;-0.61291564;9.959879;0.49799395
11:30:46:474;-0.61291564;9.959879;0.49799395
11:30:46:474;-0.61291564;9.959879;0.49799395
11:30:46:474;-0.61291564;9.959879;0.49799395
11:30:46:474;-0.61291564;9.959879;0.49799395
11:30:46:474;-0.61291564;9.959879;0.49799395
11:30:46:579;-0.4405331;9.998186;0.34476504
11:30:46:579;-0.4405331;9.998186;0.34476504
11:30:46:579;-0.4405331;9.998186;0.34476504
11:30:46:579;-0.4405331;9.998186;0.34476504
11:30:46:579;-0.4405331;9.998186;0.34476504
11:30:46:579;-0.4405331;9.998186;0.34476504
11:30:46:579;-0.4405331;9.998186;0.34476504
11:30:46:579;-0.4405331;9.998186;0.34476504
11:30:46:579;-0.4405331;9.998186;0.34476504
11:30:46:579;-0.4405331;9.998186;0.34476504
11:30:46:579;-0.4405331;9.998186;0.34476504
11:30:46:579;-0.4405331;9.998186;0.34476504
11:30:46:579;-0.4405331;9.998186;0.34476504
11:30:46:579;-0.4405331;9.998186;0.34476504
11:30:46:579;-0.4405331;9.998186;0.34476504
11:30:46:579;-0.4405331;9.998186;0.34476504
11:30:46:579;-0.4405331;9.998186;0.34476504
11:30:46:579;-0.4405331;9.998186;0.34476504
11:30:46:579;-0.4405331;9.998186;0.34476504
11:30:46:729;-0.4213795;9.940725;0.38307226
11:30:46:729;-0.4213795;9.940725;0.38307226
11:30:46:729;-0.4213795;9.940725;0.38307226
11:30:46:729;-0.4213795;9.940725;0.38307226
11:30:46:729;-0.4213795;9.940725;0.38307226
11:30:46:729;-0.4213795;9.940725;0.38307226
11:30:46:729;-0.4213795;9.940725;0.38307226
11:30:46:729;-0.4213795;9.940725;0.38307226
11:30:46:729;-0.4213795;9.940725;0.38307226
11:30:46:729;-0.4213795;9.940725;0.38307226
11:30:46:729;-0.4213795;9.940725;0.38307226
11:30:46:729;-0.4213795;9.940725;0.38307226
11:30:46:729;-0.4213795;9.940725;0.38307226
11:30:46:729;-0.4213795;9.940725;0.38307226
11:30:46:838;-0.4405331;10.01734;0.30645782
11:30:46:838;-0.4405331;10.01734;0.30645782
11:30:46:838;-0.4405331;10.01734;0.30645782
11:30:46:838;-0.4405331;10.01734;0.30645782
11:30:46:838;-0.4405331;10.01734;0.30645782
11:30:46:838;-0.4405331;10.01734;0.30645782
11:30:46:838;-0.4405331;10.01734;0.30645782
11:30:46:838;-0.4405331;10.01734;0.30645782
11:30:46:838;-0.4405331;10.01734;0.30645782
11:30:46:838;-0.4405331;10.01734;0.30645782
11:30:46:838;-0.4405331;10.01734;0.30645782
11:30:46:838;-0.4405331;10.01734;0.30645782
11:30:46:838;-0.4405331;10.01734;0.30645782
11:30:46:838;-0.4405331;10.01734;0.30645782
11:30:46:838;-0.4405331;10.01734;0.30645782
11:30:46:838;-0.4405331;10.01734;0.30645782
11:30:46:967;-0.4213795;9.902418;0.22984336
11:30:46:967;-0.4213795;9.902418;0.22984336
11:30:46:967;-0.4213795;9.902418;0.22984336
11:30:46:967;-0.4213795;9.902418;0.22984336
11:30:46:967;-0.4213795;9.902418;0.22984336
11:30:46:967;-0.4213795;9.902418;0.22984336
11:30:46:967;-0.4213795;9.902418;0.22984336
11:30:46:967;-0.4213795;9.902418;0.22984336
11:30:46:967;-0.4213795;9.902418;0.22984336
11:30:46:967;-0.4213795;9.902418;0.22984336
11:30:46:967;-0.4213795;9.902418;0.22984336
11:30:46:967;-0.4213795;9.902418;0.22984336
11:30:46:967;-0.4213795;9.902418;0.22984336
11:30:46:967;-0.4213795;9.902418;0.22984336
11:30:46:967;-0.4213795;9.902418;0.22984336
11:30:47:079;-0.36391866;10.132261;0.47884035
11:30:47:079;-0.36391866;10.132261;0.47884035
11:30:47:079;-0.36391866;10.132261;0.47884035
11:30:47:079;-0.36391866;10.132261;0.47884035
11:30:47:079;-0.36391866;10.132261;0.47884035
11:30:47:079;-0.36391866;10.132261;0.47884035
11:30:47:079;-0.36391866;10.132261;0.47884035
11:30:47:079;-0.36391866;10.132261;0.47884035
11:30:47:079;-0.36391866;10.132261;0.47884035
11:30:47:079;-0.36391866;10.132261;0.47884035
11:30:47:079;-0.36391866;10.132261;0.47884035
11:30:47:079;-0.36391866;10.132261;0.47884035
11:30:47:079;-0.36391866;10.132261;0.47884035
11:30:47:182;-0.5363012;10.055647;0.49799395
11:30:47:182;-0.5363012;10.055647;0.49799395
11:30:47:182;-0.5363012;10.055647;0.49799395
11:30:47:182;-0.5363012;10.055647;0.49799395
11:30:47:182;-0.5363012;10.055647;0.49799395
11:30:47:182;-0.5363012;10.055647;0.49799395
11:30:47:182;-0.5363012;10.055647;0.49799395
11:30:47:182;-0.5363012;10.055647;0.49799395
11:30:47:182;-0.5363012;10.055647;0.49799395
11:30:47:182;-0.5363012;10.055647;0.49799395
11:30:47:182;-0.5363012;10.055647;0.49799395
11:30:47:182;-0.5363012;10.055647;0.49799395
11:30:47:182;-0.5363012;10.055647;0.49799395
11:30:47:289;-0.45968673;9.902418;0.40222588
11:30:47:289;-0.45968673;9.902418;0.40222588
11:30:47:289;-0.45968673;9.902418;0.40222588
11:30:47:289;-0.45968673;9.902418;0.40222588
11:30:47:289;-0.45968673;9.902418;0.40222588
11:30:47:289;-0.45968673;9.902418;0.40222588
11:30:47:289;-0.45968673;9.902418;0.40222588
11:30:47:289;-0.45968673;9.902418;0.40222588
11:30:47:289;-0.45968673;9.902418;0.40222588
11:30:47:289;-0.45968673;9.902418;0.40222588
11:30:47:289;-0.45968673;9.902418;0.40222588
11:30:47:289;-0.45968673;9.902418;0.40222588
11:30:47:289;-0.45968673;9.902418;0.40222588
11:30:47:289;-0.45968673;9.902418;0.40222588
11:30:47:289;-0.45968673;9.902418;0.40222588
11:30:47:289;-0.45968673;9.902418;0.40222588
11:30:47:289;-0.45968673;9.902418;0.40222588
11:30:47:289;-0.45968673;9.902418;0.40222588
11:30:47:289;-0.45968673;9.902418;0.40222588
11:30:47:289;-0.45968673;9.902418;0.40222588
11:30:47:289;-0.45968673;9.902418;0.40222588
11:30:47:289;-0.45968673;9.902418;0.40222588
11:30:47:289;-0.45968673;9.902418;0.40222588
11:30:47:289;-0.45968673;9.902418;0.40222588
11:30:47:289;-0.45968673;9.902418;0.40222588
11:30:47:289;-0.45968673;9.902418;0.40222588
11:30:47:489;-0.40222588;9.883265;0.36391866
11:30:47:489;-0.40222588;9.883265;0.36391866
11:30:47:489;-0.40222588;9.883265;0.36391866
11:30:47:489;-0.40222588;9.883265;0.36391866
11:30:47:489;-0.40222588;9.883265;0.36391866
11:30:47:489;-0.40222588;9.883265;0.36391866
11:30:47:489;-0.40222588;9.883265;0.36391866
11:30:47:489;-0.40222588;9.883265;0.36391866
11:30:47:489;-0.40222588;9.883265;0.36391866
11:30:47:489;-0.40222588;9.883265;0.36391866
11:30:47:489;-0.40222588;9.883265;0.36391866
11:30:47:489;-0.40222588;9.883265;0.36391866
11:30:47:489;-0.40222588;9.883265;0.36391866
11:30:47:489;-0.40222588;9.883265;0.36391866
11:30:47:596;-0.47884035;10.0748005;0.47884035
11:30:47:596;-0.47884035;10.0748005;0.47884035
11:30:47:596;-0.47884035;10.0748005;0.47884035
11:30:47:596;-0.47884035;10.0748005;0.47884035
11:30:47:596;-0.47884035;10.0748005;0.47884035
11:30:47:596;-0.47884035;10.0748005;0.47884035
11:30:47:596;-0.47884035;10.0748005;0.47884035
11:30:47:596;-0.47884035;10.0748005;0.47884035
11:30:47:596;-0.47884035;10.0748005;0.47884035
11:30:47:596;-0.47884035;10.0748005;0.47884035
11:30:47:596;-0.47884035;10.0748005;0.47884035
11:30:47:596;-0.47884035;10.0748005;0.47884035
11:30:47:596;-0.47884035;10.0748005;0.47884035
11:30:47:596;-0.47884035;10.0748005;0.47884035
11:30:47:596;-0.47884035;10.0748005;0.47884035
11:30:47:714;-0.5746084;10.055647;0.24899697
11:30:47:714;-0.5746084;10.055647;0.24899697
11:30:47:714;-0.5746084;10.055647;0.24899697
11:30:47:714;-0.5746084;10.055647;0.24899697
11:30:47:714;-0.5746084;10.055647;0.24899697
11:30:47:714;-0.5746084;10.055647;0.24899697
11:30:47:714;-0.5746084;10.055647;0.24899697
11:30:47:714;-0.5746084;10.055647;0.24899697
11:30:47:714;-0.5746084;10.055647;0.24899697
11:30:47:714;-0.5746084;10.055647;0.24899697
11:30:47:714;-0.5746084;10.055647;0.24899697
11:30:47:714;-0.5746084;10.055647;0.24899697
11:30:47:714;-0.5746084;10.055647;0.24899697
11:30:47:714;-0.5746084;10.055647;0.24899697
11:30:47:714;-0.5746084;10.055647;0.24899697
11:30:47:834;-0.5746084;9.959879;0.40222588
11:30:47:834;-0.5746084;9.959879;0.40222588
11:30:47:834;-0.5746084;9.959879;0.40222588
11:30:47:834;-0.5746084;9.959879;0.40222588
11:30:47:834;-0.5746084;9.959879;0.40222588
11:30:47:834;-0.5746084;9.959879;0.40222588
11:30:47:834;-0.5746084;9.959879;0.40222588
11:30:47:834;-0.5746084;9.959879;0.40222588
11:30:47:834;-0.5746084;9.959879;0.40222588
11:30:47:834;-0.5746084;9.959879;0.40222588
11:30:47:834;-0.5746084;9.959879;0.40222588
11:30:47:834;-0.5746084;9.959879;0.40222588
11:30:47:834;-0.5746084;9.959879;0.40222588
11:30:47:834;-0.5746084;9.959879;0.40222588
11:30:47:834;-0.5746084;9.959879;0.40222588
11:30:47:953;-0.32561144;9.9790325;0.34476504
11:30:47:953;-0.32561144;9.9790325;0.34476504
11:30:47:953;-0.32561144;9.9790325;0.34476504
11:30:47:953;-0.32561144;9.9790325;0.34476504
11:30:47:953;-0.32561144;9.9790325;0.34476504
11:30:47:953;-0.32561144;9.9790325;0.34476504
11:30:47:953;-0.32561144;9.9790325;0.34476504
11:30:47:953;-0.32561144;9.9790325;0.34476504
11:30:47:953;-0.32561144;9.9790325;0.34476504
11:30:47:953;-0.32561144;9.9790325;0.34476504
11:30:47:953;-0.32561144;9.9790325;0.34476504
11:30:47:953;-0.32561144;9.9790325;0.34476504
11:30:47:953;-0.32561144;9.9790325;0.34476504
11:30:47:953;-0.32561144;9.9790325;0.34476504
11:30:47:953;-0.32561144;9.9790325;0.34476504
11:30:47:953;-0.32561144;9.9790325;0.34476504
11:30:48:072;-0.32561144;9.883265;0.34476504
11:30:48:072;-0.32561144;9.883265;0.34476504
11:30:48:072;-0.32561144;9.883265;0.34476504
11:30:48:072;-0.32561144;9.883265;0.34476504
11:30:48:072;-0.32561144;9.883265;0.34476504
11:30:48:072;-0.32561144;9.883265;0.34476504
11:30:48:072;-0.32561144;9.883265;0.34476504
11:30:48:072;-0.32561144;9.883265;0.34476504
11:30:48:072;-0.32561144;9.883265;0.34476504
11:30:48:072;-0.32561144;9.883265;0.34476504
11:30:48:072;-0.32561144;9.883265;0.34476504
11:30:48:072;-0.32561144;9.883265;0.34476504
11:30:48:072;-0.32561144;9.883265;0.34476504
11:30:48:072;-0.32561144;9.883265;0.34476504
11:30:48:072;-0.32561144;9.883265;0.34476504
11:30:48:192;-0.4405331;9.9790325;0.49799395
11:30:48:192;-0.4405331;9.9790325;0.49799395
11:30:48:192;-0.4405331;9.9790325;0.49799395
11:30:48:192;-0.4405331;9.9790325;0.49799395
11:30:48:192;-0.4405331;9.9790325;0.49799395
11:30:48:192;-0.4405331;9.9790325;0.49799395
11:30:48:192;-0.4405331;9.9790325;0.49799395
11:30:48:192;-0.4405331;9.9790325;0.49799395
11:30:48:192;-0.4405331;9.9790325;0.49799395
11:30:48:192;-0.4405331;9.9790325;0.49799395
11:30:48:192;-0.4405331;9.9790325;0.49799395
11:30:48:192;-0.4405331;9.9790325;0.49799395
11:30:48:192;-0.4405331;9.9790325;0.49799395
11:30:48:192;-0.4405331;9.9790325;0.49799395
11:30:48:192;-0.4405331;9.9790325;0.49799395
11:30:48:310;-0.36391866;9.940725;0.38307226
11:30:48:310;-0.36391866;9.940725;0.38307226
11:30:48:310;-0.36391866;9.940725;0.38307226
11:30:48:310;-0.36391866;9.940725;0.38307226
11:30:48:310;-0.36391866;9.940725;0.38307226
11:30:48:310;-0.36391866;9.940725;0.38307226
11:30:48:310;-0.36391866;9.940725;0.38307226
11:30:48:310;-0.36391866;9.940725;0.38307226
11:30:48:310;-0.36391866;9.940725;0.38307226
11:30:48:310;-0.36391866;9.940725;0.38307226
11:30:48:310;-0.36391866;9.940725;0.38307226
11:30:48:310;-0.36391866;9.940725;0.38307226
11:30:48:310;-0.36391866;9.940725;0.38307226
11:30:48:310;-0.36391866;9.940725;0.38307226
11:30:48:310;-0.36391866;9.940725;0.38307226
11:30:48:427;-0.32561144;10.055647;0.2873042
11:30:48:427;-0.32561144;10.055647;0.2873042
11:30:48:427;-0.32561144;10.055647;0.2873042
11:30:48:427;-0.32561144;10.055647;0.2873042
11:30:48:427;-0.32561144;10.055647;0.2873042
11:30:48:427;-0.32561144;10.055647;0.2873042
11:30:48:427;-0.32561144;10.055647;0.2873042
11:30:48:427;-0.32561144;10.055647;0.2873042
11:30:48:427;-0.32561144;10.055647;0.2873042
11:30:48:427;-0.32561144;10.055647;0.2873042
11:30:48:427;-0.32561144;10.055647;0.2873042
11:30:48:427;-0.32561144;10.055647;0.2873042
11:30:48:427;-0.32561144;10.055647;0.2873042
11:30:48:427;-0.32561144;10.055647;0.2873042
11:30:48:427;-0.32561144;10.055647;0.2873042
11:30:48:427;-0.32561144;10.055647;0.2873042
11:30:48:427;-0.32561144;10.055647;0.2873042
11:30:48:427;-0.32561144;10.055647;0.2873042
11:30:48:427;-0.32561144;10.055647;0.2873042
11:30:48:427;-0.32561144;10.055647;0.2873042
11:30:48:582;-0.47884035;10.0748005;0.47884035
11:30:48:582;-0.47884035;10.0748005;0.47884035
11:30:48:582;-0.47884035;10.0748005;0.47884035
11:30:48:582;-0.47884035;10.0748005;0.47884035
11:30:48:582;-0.47884035;10.0748005;0.47884035
11:30:48:582;-0.47884035;10.0748005;0.47884035
11:30:48:582;-0.47884035;10.0748005;0.47884035
11:30:48:582;-0.47884035;10.0748005;0.47884035
11:30:48:582;-0.47884035;10.0748005;0.47884035
11:30:48:582;-0.47884035;10.0748005;0.47884035
11:30:48:582;-0.47884035;10.0748005;0.47884035
11:30:48:582;-0.47884035;10.0748005;0.47884035
11:30:48:582;-0.47884035;10.0748005;0.47884035
11:30:48:582;-0.47884035;10.0748005;0.47884035
11:30:48:690;-0.45968673;10.036493;0.24899697
11:30:48:690;-0.45968673;10.036493;0.24899697
11:30:48:690;-0.45968673;10.036493;0.24899697
11:30:48:690;-0.45968673;10.036493;0.24899697
11:30:48:690;-0.45968673;10.036493;0.24899697
11:30:48:690;-0.45968673;10.036493;0.24899697
11:30:48:690;-0.45968673;10.036493;0.24899697
11:30:48:690;-0.45968673;10.036493;0.24899697
11:30:48:690;-0.45968673;10.036493;0.24899697
11:30:48:690;-0.45968673;10.036493;0.24899697
11:30:48:690;-0.45968673;10.036493;0.24899697
11:30:48:690;-0.45968673;10.036493;0.24899697
11:30:48:690;-0.45968673;10.036493;0.24899697
11:30:48:690;-0.45968673;10.036493;0.24899697
11:30:48:690;-0.45968673;10.036493;0.24899697
11:30:48:690;-0.45968673;10.036493;0.24899697
11:30:48:819;-0.4405331;9.959879;0.4213795
11:30:48:819;-0.4405331;9.959879;0.4213795
11:30:48:819;-0.4405331;9.959879;0.4213795
11:30:48:819;-0.4405331;9.959879;0.4213795
11:30:48:819;-0.4405331;9.959879;0.4213795
11:30:48:819;-0.4405331;9.959879;0.4213795
11:30:48:819;-0.4405331;9.959879;0.4213795
11:30:48:819;-0.4405331;9.959879;0.4213795
11:30:48:819;-0.4405331;9.959879;0.4213795
11:30:48:819;-0.4405331;9.959879;0.4213795
11:30:48:819;-0.4405331;9.959879;0.4213795
11:30:48:819;-0.4405331;9.959879;0.4213795
11:30:48:819;-0.4405331;9.959879;0.4213795
11:30:48:819;-0.4405331;9.959879;0.4213795
11:30:48:819;-0.4405331;9.959879;0.4213795
11:30:48:819;-0.4405331;9.959879;0.4213795
11:30:48:944;-0.4405331;9.921572;0.45968673
11:30:48:944;-0.4405331;9.921572;0.45968673
11:30:48:944;-0.4405331;9.921572;0.45968673
11:30:48:944;-0.4405331;9.921572;0.45968673
11:30:48:944;-0.4405331;9.921572;0.45968673
11:30:48:944;-0.4405331;9.921572;0.45968673
11:30:48:944;-0.4405331;9.921572;0.45968673
11:30:48:944;-0.4405331;9.921572;0.45968673
11:30:48:944;-0.4405331;9.921572;0.45968673
11:30:48:944;-0.4405331;9.921572;0.45968673
11:30:48:944;-0.4405331;9.921572;0.45968673
11:30:48:944;-0.4405331;9.921572;0.45968673
11:30:48:944;-0.4405331;9.921572;0.45968673
11:30:48:944;-0.4405331;9.921572;0.45968673
11:30:49:051;-0.45968673;9.998186;0.34476504
11:30:49:051;-0.45968673;9.998186;0.34476504
11:30:49:051;-0.45968673;9.998186;0.34476504
11:30:49:051;-0.45968673;9.998186;0.34476504
11:30:49:051;-0.45968673;9.998186;0.34476504
11:30:49:051;-0.45968673;9.998186;0.34476504
11:30:49:051;-0.45968673;9.998186;0.34476504
11:30:49:051;-0.45968673;9.998186;0.34476504
11:30:49:051;-0.45968673;9.998186;0.34476504
11:30:49:051;-0.45968673;9.998186;0.34476504
11:30:49:051;-0.45968673;9.998186;0.34476504
11:30:49:051;-0.45968673;9.998186;0.34476504
11:30:49:051;-0.45968673;9.998186;0.34476504
11:30:49:154;-0.45968673;9.9790325;0.47884035
11:30:49:154;-0.45968673;9.9790325;0.47884035
11:30:49:154;-0.45968673;9.9790325;0.47884035
11:30:49:154;-0.45968673;9.9790325;0.47884035
11:30:49:154;-0.45968673;9.9790325;0.47884035
11:30:49:154;-0.45968673;9.9790325;0.47884035
11:30:49:154;-0.45968673;9.9790325;0.47884035
11:30:49:154;-0.45968673;9.9790325;0.47884035
11:30:49:154;-0.45968673;9.9790325;0.47884035
11:30:49:154;-0.45968673;9.9790325;0.47884035
11:30:49:154;-0.45968673;9.9790325;0.47884035
11:30:49:154;-0.45968673;9.9790325;0.47884035
11:30:49:154;-0.45968673;9.9790325;0.47884035
11:30:49:154;-0.45968673;9.9790325;0.47884035
11:30:49:264;-0.4405331;9.940725;0.40222588
11:30:49:264;-0.4405331;9.940725;0.40222588
11:30:49:264;-0.4405331;9.940725;0.40222588
11:30:49:264;-0.4405331;9.940725;0.40222588
11:30:49:264;-0.4405331;9.940725;0.40222588
11:30:49:264;-0.4405331;9.940725;0.40222588
11:30:49:264;-0.4405331;9.940725;0.40222588
11:30:49:264;-0.4405331;9.940725;0.40222588
11:30:49:264;-0.4405331;9.940725;0.40222588
11:30:49:264;-0.4405331;9.940725;0.40222588
11:30:49:264;-0.4405331;9.940725;0.40222588
11:30:49:264;-0.4405331;9.940725;0.40222588
11:30:49:264;-0.4405331;9.940725;0.40222588
11:30:49:264;-0.4405331;9.940725;0.40222588
11:30:49:264;-0.4405331;9.940725;0.40222588
11:30:49:382;-0.49799395;9.9790325;0.38307226
11:30:49:382;-0.49799395;9.9790325;0.38307226
11:30:49:382;-0.49799395;9.9790325;0.38307226
11:30:49:382;-0.49799395;9.9790325;0.38307226
11:30:49:382;-0.49799395;9.9790325;0.38307226
11:30:49:382;-0.49799395;9.9790325;0.38307226
11:30:49:382;-0.49799395;9.9790325;0.38307226
11:30:49:382;-0.49799395;9.9790325;0.38307226
11:30:49:382;-0.49799395;9.9790325;0.38307226
11:30:49:382;-0.49799395;9.9790325;0.38307226
11:30:49:382;-0.49799395;9.9790325;0.38307226
11:30:49:382;-0.49799395;9.9790325;0.38307226
11:30:49:382;-0.49799395;9.9790325;0.38307226
11:30:49:382;-0.49799395;9.9790325;0.38307226
11:30:49:382;-0.49799395;9.9790325;0.38307226
11:30:49:500;-0.4405331;9.940725;0.45968673
11:30:49:500;-0.4405331;9.940725;0.45968673
11:30:49:500;-0.4405331;9.940725;0.45968673
11:30:49:500;-0.4405331;9.940725;0.45968673
11:30:49:500;-0.4405331;9.940725;0.45968673
11:30:49:500;-0.4405331;9.940725;0.45968673
11:30:49:500;-0.4405331;9.940725;0.45968673
11:30:49:500;-0.4405331;9.940725;0.45968673
11:30:49:500;-0.4405331;9.940725;0.45968673
11:30:49:500;-0.4405331;9.940725;0.45968673
11:30:49:500;-0.4405331;9.940725;0.45968673
11:30:49:500;-0.4405331;9.940725;0.45968673
11:30:49:500;-0.4405331;9.940725;0.45968673
11:30:49:500;-0.4405331;9.940725;0.45968673
11:30:49:500;-0.4405331;9.940725;0.45968673
11:30:49:500;-0.4405331;9.940725;0.45968673
11:30:49:624;-0.36391866;9.902418;0.4213795
11:30:49:624;-0.36391866;9.902418;0.4213795
11:30:49:624;-0.36391866;9.902418;0.4213795
11:30:49:624;-0.36391866;9.902418;0.4213795
11:30:49:624;-0.36391866;9.902418;0.4213795
11:30:49:624;-0.36391866;9.902418;0.4213795
11:30:49:624;-0.36391866;9.902418;0.4213795
11:30:49:624;-0.36391866;9.902418;0.4213795
11:30:49:624;-0.36391866;9.902418;0.4213795
11:30:49:624;-0.36391866;9.902418;0.4213795
11:30:49:624;-0.36391866;9.902418;0.4213795
11:30:49:624;-0.36391866;9.902418;0.4213795
11:30:49:624;-0.36391866;9.902418;0.4213795
11:30:49:624;-0.36391866;9.902418;0.4213795
11:30:49:624;-0.36391866;9.902418;0.4213795
11:30:49:740;-0.47884035;9.959879;0.5554548
11:30:49:740;-0.47884035;9.959879;0.5554548
11:30:49:740;-0.47884035;9.959879;0.5554548
11:30:49:740;-0.47884035;9.959879;0.5554548
11:30:49:740;-0.47884035;9.959879;0.5554548
11:30:49:740;-0.47884035;9.959879;0.5554548
11:30:49:740;-0.47884035;9.959879;0.5554548
11:30:49:740;-0.47884035;9.959879;0.5554548
11:30:49:740;-0.47884035;9.959879;0.5554548
11:30:49:740;-0.47884035;9.959879;0.5554548
11:30:49:740;-0.47884035;9.959879;0.5554548
11:30:49:740;-0.47884035;9.959879;0.5554548
11:30:49:740;-0.47884035;9.959879;0.5554548
11:30:49:842;-0.36391866;10.01734;0.38307226
11:30:49:842;-0.36391866;10.01734;0.38307226
11:30:49:842;-0.36391866;10.01734;0.38307226
11:30:49:842;-0.36391866;10.01734;0.38307226
11:30:49:842;-0.36391866;10.01734;0.38307226
11:30:49:842;-0.36391866;10.01734;0.38307226
11:30:49:842;-0.36391866;10.01734;0.38307226
11:30:49:842;-0.36391866;10.01734;0.38307226
11:30:49:842;-0.36391866;10.01734;0.38307226
11:30:49:842;-0.36391866;10.01734;0.38307226
11:30:49:842;-0.36391866;10.01734;0.38307226
11:30:49:842;-0.36391866;10.01734;0.38307226
11:30:49:842;-0.36391866;10.01734;0.38307226
11:30:49:842;-0.36391866;10.01734;0.38307226
11:30:49:842;-0.36391866;10.01734;0.38307226
11:30:49:842;-0.36391866;10.01734;0.38307226
11:30:49:963;-0.47884035;9.921572;0.24899697
11:30:49:963;-0.47884035;9.921572;0.24899697
11:30:49:963;-0.47884035;9.921572;0.24899697
11:30:49:963;-0.47884035;9.921572;0.24899697
11:30:49:963;-0.47884035;9.921572;0.24899697
11:30:49:963;-0.47884035;9.921572;0.24899697
11:30:49:963;-0.47884035;9.921572;0.24899697
11:30:49:963;-0.47884035;9.921572;0.24899697
11:30:49:963;-0.47884035;9.921572;0.24899697
11:30:49:963;-0.47884035;9.921572;0.24899697
11:30:49:963;-0.47884035;9.921572;0.24899697
11:30:49:963;-0.47884035;9.921572;0.24899697
11:30:49:963;-0.47884035;9.921572;0.24899697
11:30:50:063;-0.49799395;9.9790325;0.4213795
11:30:50:063;-0.49799395;9.9790325;0.4213795
11:30:50:063;-0.49799395;9.9790325;0.4213795
11:30:50:063;-0.49799395;9.9790325;0.4213795
11:30:50:063;-0.49799395;9.9790325;0.4213795
11:30:50:063;-0.49799395;9.9790325;0.4213795
11:30:50:063;-0.49799395;9.9790325;0.4213795
11:30:50:063;-0.49799395;9.9790325;0.4213795
11:30:50:063;-0.49799395;9.9790325;0.4213795
11:30:50:063;-0.49799395;9.9790325;0.4213795
11:30:50:063;-0.49799395;9.9790325;0.4213795
11:30:50:063;-0.49799395;9.9790325;0.4213795
11:30:50:063;-0.49799395;9.9790325;0.4213795
11:30:50:166;-0.40222588;9.864111;0.5363012
11:30:50:166;-0.40222588;9.864111;0.5363012
11:30:50:166;-0.40222588;9.864111;0.5363012
11:30:50:166;-0.40222588;9.864111;0.5363012
11:30:50:166;-0.40222588;9.864111;0.5363012
11:30:50:166;-0.40222588;9.864111;0.5363012
11:30:50:166;-0.40222588;9.864111;0.5363012
11:30:50:166;-0.40222588;9.864111;0.5363012
11:30:50:166;-0.40222588;9.864111;0.5363012
11:30:50:166;-0.40222588;9.864111;0.5363012
11:30:50:166;-0.40222588;9.864111;0.5363012
11:30:50:166;-0.40222588;9.864111;0.5363012
11:30:50:166;-0.40222588;9.864111;0.5363012
11:30:50:166;-0.40222588;9.864111;0.5363012
11:30:50:166;-0.40222588;9.864111;0.5363012
11:30:50:284;-0.45968673;9.921572;0.5363012
11:30:50:284;-0.45968673;9.921572;0.5363012
11:30:50:284;-0.45968673;9.921572;0.5363012
11:30:50:284;-0.45968673;9.921572;0.5363012
11:30:50:284;-0.45968673;9.921572;0.5363012
11:30:50:284;-0.45968673;9.921572;0.5363012
11:30:50:284;-0.45968673;9.921572;0.5363012
11:30:50:284;-0.45968673;9.921572;0.5363012
11:30:50:284;-0.45968673;9.921572;0.5363012
11:30:50:284;-0.45968673;9.921572;0.5363012
11:30:50:284;-0.45968673;9.921572;0.5363012
11:30:50:284;-0.45968673;9.921572;0.5363012
11:30:50:284;-0.45968673;9.921572;0.5363012
11:30:50:388;-0.47884035;9.9790325;0.36391866
11:30:50:388;-0.47884035;9.9790325;0.36391866
11:30:50:388;-0.47884035;9.9790325;0.36391866
11:30:50:388;-0.47884035;9.9790325;0.36391866
11:30:50:388;-0.47884035;9.9790325;0.36391866
11:30:50:388;-0.47884035;9.9790325;0.36391866
11:30:50:388;-0.47884035;9.9790325;0.36391866
11:30:50:388;-0.47884035;9.9790325;0.36391866
11:30:50:388;-0.47884035;9.9790325;0.36391866
11:30:50:388;-0.47884035;9.9790325;0.36391866
11:30:50:388;-0.47884035;9.9790325;0.36391866
11:30:50:388;-0.47884035;9.9790325;0.36391866
11:30:50:388;-0.47884035;9.9790325;0.36391866
11:30:50:388;-0.47884035;9.9790325;0.36391866
11:30:50:388;-0.47884035;9.9790325;0.36391866
11:30:50:506;-0.32561144;10.01734;0.40222588
11:30:50:506;-0.32561144;10.01734;0.40222588
11:30:50:506;-0.32561144;10.01734;0.40222588
11:30:50:506;-0.32561144;10.01734;0.40222588
11:30:50:506;-0.32561144;10.01734;0.40222588
11:30:50:506;-0.32561144;10.01734;0.40222588
11:30:50:506;-0.32561144;10.01734;0.40222588
11:30:50:506;-0.32561144;10.01734;0.40222588
11:30:50:506;-0.32561144;10.01734;0.40222588
11:30:50:506;-0.32561144;10.01734;0.40222588
11:30:50:506;-0.32561144;10.01734;0.40222588
11:30:50:506;-0.32561144;10.01734;0.40222588
11:30:50:506;-0.32561144;10.01734;0.40222588
11:30:50:506;-0.32561144;10.01734;0.40222588
11:30:50:614;-0.49799395;10.036493;0.45968673
11:30:50:614;-0.49799395;10.036493;0.45968673
11:30:50:614;-0.49799395;10.036493;0.45968673
11:30:50:614;-0.49799395;10.036493;0.45968673
11:30:50:614;-0.49799395;10.036493;0.45968673
11:30:50:614;-0.49799395;10.036493;0.45968673
11:30:50:614;-0.49799395;10.036493;0.45968673
11:30:50:614;-0.49799395;10.036493;0.45968673
11:30:50:614;-0.49799395;10.036493;0.45968673
11:30:50:614;-0.49799395;10.036493;0.45968673
11:30:50:614;-0.49799395;10.036493;0.45968673
11:30:50:614;-0.49799395;10.036493;0.45968673
11:30:50:614;-0.49799395;10.036493;0.45968673
11:30:50:614;-0.49799395;10.036493;0.45968673
11:30:50:719;-0.40222588;9.883265;0.45968673
11:30:50:719;-0.40222588;9.883265;0.45968673
11:30:50:719;-0.40222588;9.883265;0.45968673
11:30:50:719;-0.40222588;9.883265;0.45968673
11:30:50:719;-0.40222588;9.883265;0.45968673
11:30:50:719;-0.40222588;9.883265;0.45968673
11:30:50:719;-0.40222588;9.883265;0.45968673
11:30:50:719;-0.40222588;9.883265;0.45968673
11:30:50:719;-0.40222588;9.883265;0.45968673
11:30:50:719;-0.40222588;9.883265;0.45968673
11:30:50:719;-0.40222588;9.883265;0.45968673
11:30:50:719;-0.40222588;9.883265;0.45968673
11:30:50:719;-0.40222588;9.883265;0.45968673
11:30:50:827;-0.45968673;9.998186;0.4213795
11:30:50:827;-0.45968673;9.998186;0.4213795
11:30:50:827;-0.45968673;9.998186;0.4213795
11:30:50:827;-0.45968673;9.998186;0.4213795
11:30:50:827;-0.45968673;9.998186;0.4213795
11:30:50:827;-0.45968673;9.998186;0.4213795
11:30:50:827;-0.45968673;9.998186;0.4213795
11:30:50:827;-0.45968673;9.998186;0.4213795
11:30:50:827;-0.45968673;9.998186;0.4213795
11:30:50:827;-0.45968673;9.998186;0.4213795
11:30:50:827;-0.45968673;9.998186;0.4213795
11:30:50:827;-0.45968673;9.998186;0.4213795
11:30:50:827;-0.45968673;9.998186;0.4213795
11:30:50:827;-0.45968673;9.998186;0.4213795
11:30:50:932;-0.45968673;9.902418;0.4213795
11:30:50:932;-0.45968673;9.902418;0.4213795
11:30:50:932;-0.45968673;9.902418;0.4213795
11:30:50:932;-0.45968673;9.902418;0.4213795
11:30:50:932;-0.45968673;9.902418;0.4213795
11:30:50:932;-0.45968673;9.902418;0.4213795
11:30:50:932;-0.45968673;9.902418;0.4213795
11:30:50:932;-0.45968673;9.902418;0.4213795
11:30:50:932;-0.45968673;9.902418;0.4213795
11:30:50:932;-0.45968673;9.902418;0.4213795
11:30:50:932;-0.45968673;9.902418;0.4213795
11:30:50:932;-0.45968673;9.902418;0.4213795
11:30:50:932;-0.45968673;9.902418;0.4213795
11:30:50:932;-0.45968673;9.902418;0.4213795
11:30:50:932;-0.45968673;9.902418;0.4213795
11:30:50:932;-0.45968673;9.902418;0.4213795
11:30:50:932;-0.45968673;9.902418;0.4213795
11:30:51:067;-0.45968673;9.998186;0.4405331
11:30:51:067;-0.45968673;9.998186;0.4405331
11:30:51:067;-0.45968673;9.998186;0.4405331
11:30:51:067;-0.45968673;9.998186;0.4405331
11:30:51:067;-0.45968673;9.998186;0.4405331
11:30:51:067;-0.45968673;9.998186;0.4405331
11:30:51:067;-0.45968673;9.998186;0.4405331
11:30:51:067;-0.45968673;9.998186;0.4405331
11:30:51:067;-0.45968673;9.998186;0.4405331
11:30:51:067;-0.45968673;9.998186;0.4405331
11:30:51:067;-0.45968673;9.998186;0.4405331
11:30:51:067;-0.45968673;9.998186;0.4405331
11:30:51:067;-0.45968673;9.998186;0.4405331
11:30:51:067;-0.45968673;9.998186;0.4405331
11:30:51:067;-0.45968673;9.998186;0.4405331
11:30:51:185;-0.45968673;9.9790325;0.34476504
11:30:51:185;-0.45968673;9.9790325;0.34476504
11:30:51:185;-0.45968673;9.9790325;0.34476504
11:30:51:185;-0.45968673;9.9790325;0.34476504
11:30:51:185;-0.45968673;9.9790325;0.34476504
11:30:51:185;-0.45968673;9.9790325;0.34476504
11:30:51:185;-0.45968673;9.9790325;0.34476504
11:30:51:185;-0.45968673;9.9790325;0.34476504
11:30:51:185;-0.45968673;9.9790325;0.34476504
11:30:51:185;-0.45968673;9.9790325;0.34476504
11:30:51:185;-0.45968673;9.9790325;0.34476504
11:30:51:185;-0.45968673;9.9790325;0.34476504
11:30:51:185;-0.45968673;9.9790325;0.34476504
11:30:51:289;-0.4405331;9.902418;0.38307226
11:30:51:289;-0.4405331;9.902418;0.38307226
11:30:51:289;-0.4405331;9.902418;0.38307226
11:30:51:289;-0.4405331;9.902418;0.38307226
11:30:51:289;-0.4405331;9.902418;0.38307226
11:30:51:289;-0.4405331;9.902418;0.38307226
11:30:51:289;-0.4405331;9.902418;0.38307226
11:30:51:289;-0.4405331;9.902418;0.38307226
11:30:51:289;-0.4405331;9.902418;0.38307226
11:30:51:289;-0.4405331;9.902418;0.38307226
11:30:51:289;-0.4405331;9.902418;0.38307226
11:30:51:289;-0.4405331;9.902418;0.38307226
11:30:51:289;-0.4405331;9.902418;0.38307226
11:30:51:289;-0.4405331;9.902418;0.38307226
11:30:51:289;-0.4405331;9.902418;0.38307226
11:30:51:289;-0.4405331;9.902418;0.38307226
11:30:51:412;-0.4405331;10.093954;0.4213795
11:30:51:412;-0.4405331;10.093954;0.4213795
11:30:51:412;-0.4405331;10.093954;0.4213795
11:30:51:412;-0.4405331;10.093954;0.4213795
11:30:51:412;-0.4405331;10.093954;0.4213795
11:30:51:412;-0.4405331;10.093954;0.4213795
11:30:51:412;-0.4405331;10.093954;0.4213795
11:30:51:412;-0.4405331;10.093954;0.4213795
11:30:51:412;-0.4405331;10.093954;0.4213795
11:30:51:412;-0.4405331;10.093954;0.4213795
11:30:51:412;-0.4405331;10.093954;0.4213795
11:30:51:412;-0.4405331;10.093954;0.4213795
11:30:51:412;-0.4405331;10.093954;0.4213795
11:30:51:412;-0.4405331;10.093954;0.4213795
11:30:51:412;-0.4405331;10.093954;0.4213795
11:30:51:528;-0.36391866;10.055647;0.38307226
11:30:51:528;-0.36391866;10.055647;0.38307226
11:30:51:528;-0.36391866;10.055647;0.38307226
11:30:51:528;-0.36391866;10.055647;0.38307226
11:30:51:528;-0.36391866;10.055647;0.38307226
11:30:51:528;-0.36391866;10.055647;0.38307226
11:30:51:528;-0.36391866;10.055647;0.38307226
11:30:51:528;-0.36391866;10.055647;0.38307226
11:30:51:528;-0.36391866;10.055647;0.38307226
11:30:51:528;-0.36391866;10.055647;0.38307226
11:30:51:528;-0.36391866;10.055647;0.38307226
11:30:51:528;-0.36391866;10.055647;0.38307226
11:30:51:528;-0.36391866;10.055647;0.38307226
11:30:51:528;-0.36391866;10.055647;0.38307226
11:30:51:528;-0.36391866;10.055647;0.38307226
11:30:51:528;-0.36391866;10.055647;0.38307226
11:30:51:528;-0.36391866;10.055647;0.38307226
11:30:51:528;-0.36391866;10.055647;0.38307226
11:30:51:528;-0.36391866;10.055647;0.38307226
11:30:51:528;-0.36391866;10.055647;0.38307226
11:30:51:528;-0.36391866;10.055647;0.38307226
11:30:51:692;-0.4405331;9.921572;0.17238252
11:30:51:692;-0.4405331;9.921572;0.17238252
11:30:51:692;-0.4405331;9.921572;0.17238252
11:30:51:692;-0.4405331;9.921572;0.17238252
11:30:51:692;-0.4405331;9.921572;0.17238252
11:30:51:692;-0.4405331;9.921572;0.17238252
11:30:51:692;-0.4405331;9.921572;0.17238252
11:30:51:692;-0.4405331;9.921572;0.17238252
11:30:51:692;-0.4405331;9.921572;0.17238252
11:30:51:692;-0.4405331;9.921572;0.17238252
11:30:51:692;-0.4405331;9.921572;0.17238252
11:30:51:692;-0.4405331;9.921572;0.17238252
11:30:51:692;-0.4405331;9.921572;0.17238252
11:30:51:692;-0.4405331;9.921572;0.17238252
11:30:51:692;-0.4405331;9.921572;0.17238252
11:30:51:807;-0.47884035;9.825804;0.36391866
11:30:51:807;-0.47884035;9.825804;0.36391866
11:30:51:807;-0.47884035;9.825804;0.36391866
11:30:51:807;-0.47884035;9.825804;0.36391866
11:30:51:807;-0.47884035;9.825804;0.36391866
11:30:51:807;-0.47884035;9.825804;0.36391866
11:30:51:807;-0.47884035;9.825804;0.36391866
11:30:51:807;-0.47884035;9.825804;0.36391866
11:30:51:807;-0.47884035;9.825804;0.36391866
11:30:51:807;-0.47884035;9.825804;0.36391866
11:30:51:807;-0.47884035;9.825804;0.36391866
11:30:51:807;-0.47884035;9.825804;0.36391866
11:30:51:807;-0.47884035;9.825804;0.36391866
11:30:51:908;-0.45968673;9.902418;0.47884035
11:30:51:908;-0.45968673;9.902418;0.47884035
11:30:51:908;-0.45968673;9.902418;0.47884035
11:30:51:908;-0.45968673;9.902418;0.47884035
11:30:51:908;-0.45968673;9.902418;0.47884035
11:30:51:908;-0.45968673;9.902418;0.47884035
11:30:51:908;-0.45968673;9.902418;0.47884035
11:30:51:908;-0.45968673;9.902418;0.47884035
11:30:51:908;-0.45968673;9.902418;0.47884035
11:30:51:908;-0.45968673;9.902418;0.47884035
11:30:51:908;-0.45968673;9.902418;0.47884035
11:30:51:908;-0.45968673;9.902418;0.47884035
11:30:51:908;-0.45968673;9.902418;0.47884035
11:30:51:908;-0.45968673;9.902418;0.47884035
11:30:52:018;-0.4405331;10.036493;0.4405331
11:30:52:018;-0.4405331;10.036493;0.4405331
11:30:52:018;-0.4405331;10.036493;0.4405331
11:30:52:018;-0.4405331;10.036493;0.4405331
11:30:52:018;-0.4405331;10.036493;0.4405331
11:30:52:018;-0.4405331;10.036493;0.4405331
11:30:52:018;-0.4405331;10.036493;0.4405331
11:30:52:018;-0.4405331;10.036493;0.4405331
11:30:52:018;-0.4405331;10.036493;0.4405331
11:30:52:018;-0.4405331;10.036493;0.4405331
11:30:52:018;-0.4405331;10.036493;0.4405331
11:30:52:018;-0.4405331;10.036493;0.4405331
11:30:52:018;-0.4405331;10.036493;0.4405331
11:30:52:018;-0.4405331;10.036493;0.4405331
11:30:52:128;-0.5363012;9.902418;0.45968673
11:30:52:128;-0.5363012;9.902418;0.45968673
11:30:52:128;-0.5363012;9.902418;0.45968673
11:30:52:128;-0.5363012;9.902418;0.45968673
11:30:52:128;-0.5363012;9.902418;0.45968673
11:30:52:128;-0.5363012;9.902418;0.45968673
11:30:52:128;-0.5363012;9.902418;0.45968673
11:30:52:128;-0.5363012;9.902418;0.45968673
11:30:52:128;-0.5363012;9.902418;0.45968673
11:30:52:128;-0.5363012;9.902418;0.45968673
11:30:52:128;-0.5363012;9.902418;0.45968673
11:30:52:128;-0.5363012;9.902418;0.45968673
11:30:52:128;-0.5363012;9.902418;0.45968673
11:30:52:128;-0.5363012;9.902418;0.45968673
11:30:52:236;-0.45968673;10.036493;0.4213795
11:30:52:236;-0.45968673;10.036493;0.4213795
11:30:52:236;-0.45968673;10.036493;0.4213795
11:30:52:236;-0.45968673;10.036493;0.4213795
11:30:52:236;-0.45968673;10.036493;0.4213795
11:30:52:236;-0.45968673;10.036493;0.4213795
11:30:52:236;-0.45968673;10.036493;0.4213795
11:30:52:236;-0.45968673;10.036493;0.4213795
11:30:52:236;-0.45968673;10.036493;0.4213795
11:30:52:236;-0.45968673;10.036493;0.4213795
11:30:52:236;-0.45968673;10.036493;0.4213795
11:30:52:236;-0.45968673;10.036493;0.4213795
11:30:52:236;-0.45968673;10.036493;0.4213795
11:30:52:337;-0.40222588;9.998186;0.40222588
11:30:52:337;-0.40222588;9.998186;0.40222588
11:30:52:337;-0.40222588;9.998186;0.40222588
11:30:52:337;-0.40222588;9.998186;0.40222588
11:30:52:337;-0.40222588;9.998186;0.40222588
11:30:52:337;-0.40222588;9.998186;0.40222588
11:30:52:337;-0.40222588;9.998186;0.40222588
11:30:52:337;-0.40222588;9.998186;0.40222588
11:30:52:337;-0.40222588;9.998186;0.40222588
11:30:52:337;-0.40222588;9.998186;0.40222588
11:30:52:337;-0.40222588;9.998186;0.40222588
11:30:52:337;-0.40222588;9.998186;0.40222588
11:30:52:337;-0.40222588;9.998186;0.40222588
11:30:52:337;-0.40222588;9.998186;0.40222588
11:30:52:337;-0.40222588;9.998186;0.40222588
11:30:52:337;-0.40222588;9.998186;0.40222588
11:30:52:337;-0.40222588;9.998186;0.40222588
11:30:52:337;-0.40222588;9.998186;0.40222588
11:30:52:482;-0.49799395;10.01734;0.38307226
11:30:52:482;-0.49799395;10.01734;0.38307226
11:30:52:482;-0.49799395;10.01734;0.38307226
11:30:52:482;-0.49799395;10.01734;0.38307226
11:30:52:482;-0.49799395;10.01734;0.38307226
11:30:52:482;-0.49799395;10.01734;0.38307226
11:30:52:482;-0.49799395;10.01734;0.38307226
11:30:52:482;-0.49799395;10.01734;0.38307226
11:30:52:482;-0.49799395;10.01734;0.38307226
11:30:52:482;-0.49799395;10.01734;0.38307226
11:30:52:482;-0.49799395;10.01734;0.38307226
11:30:52:482;-0.49799395;10.01734;0.38307226
11:30:52:482;-0.49799395;10.01734;0.38307226
11:30:52:482;-0.49799395;10.01734;0.38307226
11:30:52:482;-0.49799395;10.01734;0.38307226
11:30:52:597;-0.5363012;9.959879;0.38307226
11:30:52:597;-0.5363012;9.959879;0.38307226
11:30:52:597;-0.5363012;9.959879;0.38307226
11:30:52:597;-0.5363012;9.959879;0.38307226
11:30:52:597;-0.5363012;9.959879;0.38307226
11:30:52:597;-0.5363012;9.959879;0.38307226
11:30:52:597;-0.5363012;9.959879;0.38307226
11:30:52:597;-0.5363012;9.959879;0.38307226
11:30:52:597;-0.5363012;9.959879;0.38307226
11:30:52:597;-0.5363012;9.959879;0.38307226
11:30:52:597;-0.5363012;9.959879;0.38307226
11:30:52:597;-0.5363012;9.959879;0.38307226
11:30:52:597;-0.5363012;9.959879;0.38307226
11:30:52:597;-0.5363012;9.959879;0.38307226
11:30:52:597;-0.5363012;9.959879;0.38307226
11:30:52:712;-0.40222588;10.01734;0.2873042
11:30:52:712;-0.40222588;10.01734;0.2873042
11:30:52:712;-0.40222588;10.01734;0.2873042
11:30:52:712;-0.40222588;10.01734;0.2873042
11:30:52:712;-0.40222588;10.01734;0.2873042
11:30:52:712;-0.40222588;10.01734;0.2873042
11:30:52:712;-0.40222588;10.01734;0.2873042
11:30:52:712;-0.40222588;10.01734;0.2873042
11:30:52:712;-0.40222588;10.01734;0.2873042
11:30:52:712;-0.40222588;10.01734;0.2873042
11:30:52:712;-0.40222588;10.01734;0.2873042
11:30:52:712;-0.40222588;10.01734;0.2873042
11:30:52:712;-0.40222588;10.01734;0.2873042
11:30:52:712;-0.40222588;10.01734;0.2873042
11:30:52:824;-0.40222588;10.01734;0.38307226
11:30:52:824;-0.40222588;10.01734;0.38307226
11:30:52:824;-0.40222588;10.01734;0.38307226
11:30:52:824;-0.40222588;10.01734;0.38307226
11:30:52:824;-0.40222588;10.01734;0.38307226
11:30:52:824;-0.40222588;10.01734;0.38307226
11:30:52:824;-0.40222588;10.01734;0.38307226
11:30:52:824;-0.40222588;10.01734;0.38307226
11:30:52:824;-0.40222588;10.01734;0.38307226
11:30:52:824;-0.40222588;10.01734;0.38307226
11:30:52:824;-0.40222588;10.01734;0.38307226
11:30:52:824;-0.40222588;10.01734;0.38307226
11:30:52:824;-0.40222588;10.01734;0.38307226
11:30:52:824;-0.40222588;10.01734;0.38307226
11:30:52:935;-0.4213795;9.902418;0.40222588
11:30:52:935;-0.4213795;9.902418;0.40222588
11:30:52:935;-0.4213795;9.902418;0.40222588
11:30:52:935;-0.4213795;9.902418;0.40222588
11:30:52:935;-0.4213795;9.902418;0.40222588
11:30:52:935;-0.4213795;9.902418;0.40222588
11:30:52:935;-0.4213795;9.902418;0.40222588
11:30:52:935;-0.4213795;9.902418;0.40222588
11:30:52:935;-0.4213795;9.902418;0.40222588
11:30:52:935;-0.4213795;9.902418;0.40222588
11:30:52:935;-0.4213795;9.902418;0.40222588
11:30:52:935;-0.4213795;9.902418;0.40222588
11:30:52:935;-0.4213795;9.902418;0.40222588
11:30:52:935;-0.4213795;9.902418;0.40222588
11:30:52:935;-0.4213795;9.902418;0.40222588
11:30:53:053;-0.4405331;9.940725;0.4405331
11:30:53:053;-0.4405331;9.940725;0.4405331
11:30:53:053;-0.4405331;9.940725;0.4405331
11:30:53:053;-0.4405331;9.940725;0.4405331
11:30:53:053;-0.4405331;9.940725;0.4405331
11:30:53:053;-0.4405331;9.940725;0.4405331
11:30:53:053;-0.4405331;9.940725;0.4405331
11:30:53:053;-0.4405331;9.940725;0.4405331
11:30:53:053;-0.4405331;9.940725;0.4405331
11:30:53:053;-0.4405331;9.940725;0.4405331
11:30:53:053;-0.4405331;9.940725;0.4405331
11:30:53:053;-0.4405331;9.940725;0.4405331
11:30:53:053;-0.4405331;9.940725;0.4405331
11:30:53:053;-0.4405331;9.940725;0.4405331
11:30:53:053;-0.4405331;9.940725;0.4405331
11:30:53:053;-0.4405331;9.940725;0.4405331
11:30:53:053;-0.4405331;9.940725;0.4405331
11:30:53:186;-0.47884035;9.959879;0.40222588
11:30:53:186;-0.47884035;9.959879;0.40222588
11:30:53:186;-0.47884035;9.959879;0.40222588
11:30:53:186;-0.47884035;9.959879;0.40222588
11:30:53:186;-0.47884035;9.959879;0.40222588
11:30:53:186;-0.47884035;9.959879;0.40222588
11:30:53:186;-0.47884035;9.959879;0.40222588
11:30:53:186;-0.47884035;9.959879;0.40222588
11:30:53:186;-0.47884035;9.959879;0.40222588
11:30:53:186;-0.47884035;9.959879;0.40222588
11:30:53:186;-0.47884035;9.959879;0.40222588
11:30:53:186;-0.47884035;9.959879;0.40222588
11:30:53:186;-0.47884035;9.959879;0.40222588
11:30:53:287;-0.51714754;10.01734;0.38307226
11:30:53:287;-0.51714754;10.01734;0.38307226
11:30:53:287;-0.51714754;10.01734;0.38307226
11:30:53:287;-0.51714754;10.01734;0.38307226
11:30:53:287;-0.51714754;10.01734;0.38307226
11:30:53:287;-0.51714754;10.01734;0.38307226
11:30:53:287;-0.51714754;10.01734;0.38307226
11:30:53:287;-0.51714754;10.01734;0.38307226
11:30:53:287;-0.51714754;10.01734;0.38307226
11:30:53:287;-0.51714754;10.01734;0.38307226
11:30:53:287;-0.51714754;10.01734;0.38307226
11:30:53:287;-0.51714754;10.01734;0.38307226
11:30:53:287;-0.51714754;10.01734;0.38307226
11:30:53:287;-0.51714754;10.01734;0.38307226
11:30:53:287;-0.51714754;10.01734;0.38307226
11:30:53:404;-0.34476504;10.055647;0.38307226
11:30:53:404;-0.34476504;10.055647;0.38307226
11:30:53:404;-0.34476504;10.055647;0.38307226
11:30:53:404;-0.34476504;10.055647;0.38307226
11:30:53:404;-0.34476504;10.055647;0.38307226
11:30:53:404;-0.34476504;10.055647;0.38307226
11:30:53:404;-0.34476504;10.055647;0.38307226
11:30:53:404;-0.34476504;10.055647;0.38307226
11:30:53:404;-0.34476504;10.055647;0.38307226
11:30:53:404;-0.34476504;10.055647;0.38307226
11:30:53:404;-0.34476504;10.055647;0.38307226
11:30:53:404;-0.34476504;10.055647;0.38307226
11:30:53:404;-0.34476504;10.055647;0.38307226
11:30:53:404;-0.34476504;10.055647;0.38307226
11:30:53:404;-0.34476504;10.055647;0.38307226
11:30:53:404;-0.34476504;10.055647;0.38307226
11:30:53:524;-0.4405331;9.921572;0.34476504
11:30:53:524;-0.4405331;9.921572;0.34476504
11:30:53:524;-0.4405331;9.921572;0.34476504
11:30:53:524;-0.4405331;9.921572;0.34476504
11:30:53:524;-0.4405331;9.921572;0.34476504
11:30:53:524;-0.4405331;9.921572;0.34476504
11:30:53:524;-0.4405331;9.921572;0.34476504
11:30:53:524;-0.4405331;9.921572;0.34476504
11:30:53:524;-0.4405331;9.921572;0.34476504
11:30:53:524;-0.4405331;9.921572;0.34476504
11:30:53:524;-0.4405331;9.921572;0.34476504
11:30:53:524;-0.4405331;9.921572;0.34476504
11:30:53:524;-0.4405331;9.921572;0.34476504
11:30:53:524;-0.4405331;9.921572;0.34476504
11:30:53:524;-0.4405331;9.921572;0.34476504
11:30:53:644;-0.38307226;10.0748005;0.5363012
11:30:53:644;-0.38307226;10.0748005;0.5363012
11:30:53:644;-0.38307226;10.0748005;0.5363012
11:30:53:644;-0.38307226;10.0748005;0.5363012
11:30:53:644;-0.38307226;10.0748005;0.5363012
11:30:53:644;-0.38307226;10.0748005;0.5363012
11:30:53:644;-0.38307226;10.0748005;0.5363012
11:30:53:644;-0.38307226;10.0748005;0.5363012
11:30:53:644;-0.38307226;10.0748005;0.5363012
11:30:53:644;-0.38307226;10.0748005;0.5363012
11:30:53:644;-0.38307226;10.0748005;0.5363012
11:30:53:644;-0.38307226;10.0748005;0.5363012
11:30:53:644;-0.38307226;10.0748005;0.5363012
11:30:53:644;-0.38307226;10.0748005;0.5363012
11:30:53:644;-0.38307226;10.0748005;0.5363012
11:30:53:762;-0.4405331;9.902418;0.45968673
11:30:53:762;-0.4405331;9.902418;0.45968673
11:30:53:762;-0.4405331;9.902418;0.45968673
11:30:53:762;-0.4405331;9.902418;0.45968673
11:30:53:762;-0.4405331;9.902418;0.45968673
11:30:53:762;-0.4405331;9.902418;0.45968673
11:30:53:762;-0.4405331;9.902418;0.45968673
11:30:53:762;-0.4405331;9.902418;0.45968673
11:30:53:762;-0.4405331;9.902418;0.45968673
11:30:53:762;-0.4405331;9.902418;0.45968673
11:30:53:762;-0.4405331;9.902418;0.45968673
11:30:53:762;-0.4405331;9.902418;0.45968673
11:30:53:762;-0.4405331;9.902418;0.45968673
11:30:53:762;-0.4405331;9.902418;0.45968673
11:30:53:762;-0.4405331;9.902418;0.45968673
11:30:53:762;-0.4405331;9.902418;0.45968673
11:30:53:762;-0.4405331;9.902418;0.45968673
11:30:53:762;-0.4405331;9.902418;0.45968673
11:30:53:762;-0.4405331;9.902418;0.45968673
11:30:53:762;-0.4405331;9.902418;0.45968673
11:30:53:919;-0.47884035;9.959879;0.2681506
11:30:53:919;-0.47884035;9.959879;0.2681506
11:30:53:919;-0.47884035;9.959879;0.2681506
11:30:53:919;-0.47884035;9.959879;0.2681506
11:30:53:919;-0.47884035;9.959879;0.2681506
11:30:53:919;-0.47884035;9.959879;0.2681506
11:30:53:919;-0.47884035;9.959879;0.2681506
11:30:53:919;-0.47884035;9.959879;0.2681506
11:30:53:919;-0.47884035;9.959879;0.2681506
11:30:53:919;-0.47884035;9.959879;0.2681506
11:30:53:919;-0.47884035;9.959879;0.2681506
11:30:53:919;-0.47884035;9.959879;0.2681506
11:30:53:919;-0.47884035;9.959879;0.2681506
11:30:53:919;-0.47884035;9.959879;0.2681506
11:30:54:024;-0.40222588;9.883265;0.36391866
11:30:54:024;-0.40222588;9.883265;0.36391866
11:30:54:024;-0.40222588;9.883265;0.36391866
11:30:54:024;-0.40222588;9.883265;0.36391866
11:30:54:024;-0.40222588;9.883265;0.36391866
11:30:54:024;-0.40222588;9.883265;0.36391866
11:30:54:024;-0.40222588;9.883265;0.36391866
11:30:54:024;-0.40222588;9.883265;0.36391866
11:30:54:024;-0.40222588;9.883265;0.36391866
11:30:54:024;-0.40222588;9.883265;0.36391866
11:30:54:024;-0.40222588;9.883265;0.36391866
11:30:54:024;-0.40222588;9.883265;0.36391866
11:30:54:024;-0.40222588;9.883265;0.36391866
11:30:54:127;-0.51714754;9.940725;0.49799395
11:30:54:127;-0.51714754;9.940725;0.49799395
11:30:54:127;-0.51714754;9.940725;0.49799395
11:30:54:127;-0.51714754;9.940725;0.49799395
11:30:54:127;-0.51714754;9.940725;0.49799395
11:30:54:127;-0.51714754;9.940725;0.49799395
11:30:54:127;-0.51714754;9.940725;0.49799395
11:30:54:127;-0.51714754;9.940725;0.49799395
11:30:54:127;-0.51714754;9.940725;0.49799395
11:30:54:127;-0.51714754;9.940725;0.49799395
11:30:54:127;-0.51714754;9.940725;0.49799395
11:30:54:127;-0.51714754;9.940725;0.49799395
11:30:54:127;-0.51714754;9.940725;0.49799395
11:30:54:127;-0.51714754;9.940725;0.49799395
11:30:54:235;-0.2681506;9.883265;0.34476504
11:30:54:235;-0.2681506;9.883265;0.34476504
11:30:54:235;-0.2681506;9.883265;0.34476504
11:30:54:235;-0.2681506;9.883265;0.34476504
11:30:54:235;-0.2681506;9.883265;0.34476504
11:30:54:235;-0.2681506;9.883265;0.34476504
11:30:54:235;-0.2681506;9.883265;0.34476504
11:30:54:235;-0.2681506;9.883265;0.34476504
11:30:54:235;-0.2681506;9.883265;0.34476504
11:30:54:235;-0.2681506;9.883265;0.34476504
11:30:54:235;-0.2681506;9.883265;0.34476504
11:30:54:235;-0.2681506;9.883265;0.34476504
11:30:54:235;-0.2681506;9.883265;0.34476504
11:30:54:235;-0.2681506;9.883265;0.34476504
11:30:54:235;-0.2681506;9.883265;0.34476504
11:30:54:353;-0.49799395;9.902418;0.51714754
11:30:54:353;-0.49799395;9.902418;0.51714754
11:30:54:353;-0.49799395;9.902418;0.51714754
11:30:54:353;-0.49799395;9.902418;0.51714754
11:30:54:353;-0.49799395;9.902418;0.51714754
11:30:54:353;-0.49799395;9.902418;0.51714754
11:30:54:353;-0.49799395;9.902418;0.51714754
11:30:54:353;-0.49799395;9.902418;0.51714754
11:30:54:353;-0.49799395;9.902418;0.51714754
11:30:54:353;-0.49799395;9.902418;0.51714754
11:30:54:353;-0.49799395;9.902418;0.51714754
11:30:54:353;-0.49799395;9.902418;0.51714754
11:30:54:353;-0.49799395;9.902418;0.51714754
11:30:54:353;-0.49799395;9.902418;0.51714754
11:30:54:353;-0.49799395;9.902418;0.51714754
11:30:54:470;-0.47884035;9.902418;0.22984336
11:30:54:470;-0.47884035;9.902418;0.22984336
11:30:54:470;-0.47884035;9.902418;0.22984336
11:30:54:470;-0.47884035;9.902418;0.22984336
11:30:54:470;-0.47884035;9.902418;0.22984336
11:30:54:470;-0.47884035;9.902418;0.22984336
11:30:54:470;-0.47884035;9.902418;0.22984336
11:30:54:470;-0.47884035;9.902418;0.22984336
11:30:54:470;-0.47884035;9.902418;0.22984336
11:30:54:470;-0.47884035;9.902418;0.22984336
11:30:54:470;-0.47884035;9.902418;0.22984336
11:30:54:470;-0.47884035;9.902418;0.22984336
11:30:54:470;-0.47884035;9.902418;0.22984336
11:30:54:470;-0.47884035;9.902418;0.22984336
11:30:54:470;-0.47884035;9.902418;0.22984336
11:30:54:470;-0.47884035;9.902418;0.22984336
11:30:54:470;-0.47884035;9.902418;0.22984336
11:30:54:470;-0.47884035;9.902418;0.22984336
11:30:54:470;-0.47884035;9.902418;0.22984336
11:30:54:624;-0.4213795;9.998186;0.2873042
11:30:54:624;-0.4213795;9.998186;0.2873042
11:30:54:624;-0.4213795;9.998186;0.2873042
11:30:54:624;-0.4213795;9.998186;0.2873042
11:30:54:624;-0.4213795;9.998186;0.2873042
11:30:54:624;-0.4213795;9.998186;0.2873042
11:30:54:624;-0.4213795;9.998186;0.2873042
11:30:54:624;-0.4213795;9.998186;0.2873042
11:30:54:624;-0.4213795;9.998186;0.2873042
11:30:54:624;-0.4213795;9.998186;0.2873042
11:30:54:624;-0.4213795;9.998186;0.2873042
11:30:54:624;-0.4213795;9.998186;0.2873042
11:30:54:624;-0.4213795;9.998186;0.2873042
11:30:54:624;-0.4213795;9.998186;0.2873042
11:30:54:728;-0.45968673;9.844957;0.4213795
11:30:54:728;-0.45968673;9.844957;0.4213795
11:30:54:728;-0.45968673;9.844957;0.4213795
11:30:54:728;-0.45968673;9.844957;0.4213795
11:30:54:728;-0.45968673;9.844957;0.4213795
11:30:54:728;-0.45968673;9.844957;0.4213795
11:30:54:728;-0.45968673;9.844957;0.4213795
11:30:54:728;-0.45968673;9.844957;0.4213795
11:30:54:728;-0.45968673;9.844957;0.4213795
11:30:54:728;-0.45968673;9.844957;0.4213795
11:30:54:728;-0.45968673;9.844957;0.4213795
11:30:54:728;-0.45968673;9.844957;0.4213795
11:30:54:728;-0.45968673;9.844957;0.4213795
11:30:54:728;-0.45968673;9.844957;0.4213795
11:30:54:728;-0.45968673;9.844957;0.4213795
11:30:54:851;-0.40222588;9.940725;0.36391866
11:30:54:851;-0.40222588;9.940725;0.36391866
11:30:54:851;-0.40222588;9.940725;0.36391866
11:30:54:851;-0.40222588;9.940725;0.36391866
11:30:54:851;-0.40222588;9.940725;0.36391866
11:30:54:851;-0.40222588;9.940725;0.36391866
11:30:54:851;-0.40222588;9.940725;0.36391866
11:30:54:851;-0.40222588;9.940725;0.36391866
11:30:54:851;-0.40222588;9.940725;0.36391866
11:30:54:851;-0.40222588;9.940725;0.36391866
11:30:54:851;-0.40222588;9.940725;0.36391866
11:30:54:851;-0.40222588;9.940725;0.36391866
11:30:54:851;-0.40222588;9.940725;0.36391866
11:30:54:851;-0.40222588;9.940725;0.36391866
11:30:54:851;-0.40222588;9.940725;0.36391866
11:30:54:963;-0.5363012;9.902418;0.40222588
11:30:54:963;-0.5363012;9.902418;0.40222588
11:30:54:963;-0.5363012;9.902418;0.40222588
11:30:54:963;-0.5363012;9.902418;0.40222588
11:30:54:963;-0.5363012;9.902418;0.40222588
11:30:54:963;-0.5363012;9.902418;0.40222588
11:30:54:963;-0.5363012;9.902418;0.40222588
11:30:54:963;-0.5363012;9.902418;0.40222588
11:30:54:963;-0.5363012;9.902418;0.40222588
11:30:54:963;-0.5363012;9.902418;0.40222588
11:30:54:963;-0.5363012;9.902418;0.40222588
11:30:54:963;-0.5363012;9.902418;0.40222588
11:30:54:963;-0.5363012;9.902418;0.40222588
11:30:55:064;-0.51714754;10.01734;0.45968673
11:30:55:064;-0.51714754;10.01734;0.45968673
11:30:55:064;-0.51714754;10.01734;0.45968673
11:30:55:064;-0.51714754;10.01734;0.45968673
11:30:55:064;-0.51714754;10.01734;0.45968673
11:30:55:064;-0.51714754;10.01734;0.45968673
11:30:55:064;-0.51714754;10.01734;0.45968673
11:30:55:064;-0.51714754;10.01734;0.45968673
11:30:55:064;-0.51714754;10.01734;0.45968673
11:30:55:064;-0.51714754;10.01734;0.45968673
11:30:55:064;-0.51714754;10.01734;0.45968673
11:30:55:064;-0.51714754;10.01734;0.45968673
11:30:55:064;-0.51714754;10.01734;0.45968673
11:30:55:167;-0.51714754;9.9790325;0.34476504
11:30:55:167;-0.51714754;9.9790325;0.34476504
11:30:55:167;-0.51714754;9.9790325;0.34476504
11:30:55:167;-0.51714754;9.9790325;0.34476504
11:30:55:167;-0.51714754;9.9790325;0.34476504
11:30:55:167;-0.51714754;9.9790325;0.34476504
11:30:55:167;-0.51714754;9.9790325;0.34476504
11:30:55:167;-0.51714754;9.9790325;0.34476504
11:30:55:167;-0.51714754;9.9790325;0.34476504
11:30:55:167;-0.51714754;9.9790325;0.34476504
11:30:55:167;-0.51714754;9.9790325;0.34476504
11:30:55:167;-0.51714754;9.9790325;0.34476504
11:30:55:167;-0.51714754;9.9790325;0.34476504
11:30:55:167;-0.51714754;9.9790325;0.34476504
11:30:55:167;-0.51714754;9.9790325;0.34476504
11:30:55:285;-0.4405331;9.921572;0.22984336
11:30:55:285;-0.4405331;9.921572;0.22984336
11:30:55:285;-0.4405331;9.921572;0.22984336
11:30:55:285;-0.4405331;9.921572;0.22984336
11:30:55:285;-0.4405331;9.921572;0.22984336
11:30:55:285;-0.4405331;9.921572;0.22984336
11:30:55:285;-0.4405331;9.921572;0.22984336
11:30:55:285;-0.4405331;9.921572;0.22984336
11:30:55:285;-0.4405331;9.921572;0.22984336
11:30:55:285;-0.4405331;9.921572;0.22984336
11:30:55:285;-0.4405331;9.921572;0.22984336
11:30:55:285;-0.4405331;9.921572;0.22984336
11:30:55:285;-0.4405331;9.921572;0.22984336
11:30:55:285;-0.4405331;9.921572;0.22984336
11:30:55:285;-0.4405331;9.921572;0.22984336
11:30:55:404;-0.45968673;9.940725;0.51714754
11:30:55:404;-0.45968673;9.940725;0.51714754
11:30:55:404;-0.45968673;9.940725;0.51714754
11:30:55:404;-0.45968673;9.940725;0.51714754
11:30:55:404;-0.45968673;9.940725;0.51714754
11:30:55:404;-0.45968673;9.940725;0.51714754
11:30:55:404;-0.45968673;9.940725;0.51714754
11:30:55:404;-0.45968673;9.940725;0.51714754
11:30:55:404;-0.45968673;9.940725;0.51714754
11:30:55:404;-0.45968673;9.940725;0.51714754
11:30:55:404;-0.45968673;9.940725;0.51714754
11:30:55:404;-0.45968673;9.940725;0.51714754
11:30:55:404;-0.45968673;9.940725;0.51714754
11:30:55:505;-0.40222588;9.998186;0.36391866
11:30:55:505;-0.40222588;9.998186;0.36391866
11:30:55:505;-0.40222588;9.998186;0.36391866
11:30:55:505;-0.40222588;9.998186;0.36391866
11:30:55:505;-0.40222588;9.998186;0.36391866
11:30:55:505;-0.40222588;9.998186;0.36391866
11:30:55:505;-0.40222588;9.998186;0.36391866
11:30:55:505;-0.40222588;9.998186;0.36391866
11:30:55:505;-0.40222588;9.998186;0.36391866
11:30:55:505;-0.40222588;9.998186;0.36391866
11:30:55:505;-0.40222588;9.998186;0.36391866
11:30:55:505;-0.40222588;9.998186;0.36391866
11:30:55:505;-0.40222588;9.998186;0.36391866
11:30:55:606;-0.40222588;9.883265;0.32561144
11:30:55:606;-0.40222588;9.883265;0.32561144
11:30:55:606;-0.40222588;9.883265;0.32561144
11:30:55:606;-0.40222588;9.883265;0.32561144
11:30:55:606;-0.40222588;9.883265;0.32561144
11:30:55:606;-0.40222588;9.883265;0.32561144
11:30:55:606;-0.40222588;9.883265;0.32561144
11:30:55:606;-0.40222588;9.883265;0.32561144
11:30:55:606;-0.40222588;9.883265;0.32561144
11:30:55:606;-0.40222588;9.883265;0.32561144
11:30:55:606;-0.40222588;9.883265;0.32561144
11:30:55:606;-0.40222588;9.883265;0.32561144
11:30:55:606;-0.40222588;9.883265;0.32561144
11:30:55:606;-0.40222588;9.883265;0.32561144
11:30:55:713;-0.4405331;9.768343;0.38307226
11:30:55:713;-0.4405331;9.768343;0.38307226
11:30:55:713;-0.4405331;9.768343;0.38307226
11:30:55:713;-0.4405331;9.768343;0.38307226
11:30:55:713;-0.4405331;9.768343;0.38307226
11:30:55:713;-0.4405331;9.768343;0.38307226
11:30:55:713;-0.4405331;9.768343;0.38307226
11:30:55:713;-0.4405331;9.768343;0.38307226
11:30:55:713;-0.4405331;9.768343;0.38307226
11:30:55:713;-0.4405331;9.768343;0.38307226
11:30:55:713;-0.4405331;9.768343;0.38307226
11:30:55:713;-0.4405331;9.768343;0.38307226
11:30:55:713;-0.4405331;9.768343;0.38307226
11:30:55:713;-0.4405331;9.768343;0.38307226
11:30:55:826;-0.4213795;9.864111;0.4213795
11:30:55:826;-0.4213795;9.864111;0.4213795
11:30:55:826;-0.4213795;9.864111;0.4213795
11:30:55:826;-0.4213795;9.864111;0.4213795
11:30:55:826;-0.4213795;9.864111;0.4213795
11:30:55:826;-0.4213795;9.864111;0.4213795
11:30:55:826;-0.4213795;9.864111;0.4213795
11:30:55:826;-0.4213795;9.864111;0.4213795
11:30:55:826;-0.4213795;9.864111;0.4213795
11:30:55:826;-0.4213795;9.864111;0.4213795
11:30:55:826;-0.4213795;9.864111;0.4213795
11:30:55:826;-0.4213795;9.864111;0.4213795
11:30:55:826;-0.4213795;9.864111;0.4213795
11:30:55:826;-0.4213795;9.864111;0.4213795
11:30:55:826;-0.4213795;9.864111;0.4213795
11:30:55:826;-0.4213795;9.864111;0.4213795
11:30:55:947;-0.47884035;9.921572;0.34476504
11:30:55:947;-0.47884035;9.921572;0.34476504
11:30:55:947;-0.47884035;9.921572;0.34476504
11:30:55:947;-0.47884035;9.921572;0.34476504
11:30:55:947;-0.47884035;9.921572;0.34476504
11:30:55:947;-0.47884035;9.921572;0.34476504
11:30:55:947;-0.47884035;9.921572;0.34476504
11:30:55:947;-0.47884035;9.921572;0.34476504
11:30:55:947;-0.47884035;9.921572;0.34476504
11:30:55:947;-0.47884035;9.921572;0.34476504
11:30:55:947;-0.47884035;9.921572;0.34476504
11:30:55:947;-0.47884035;9.921572;0.34476504
11:30:55:947;-0.47884035;9.921572;0.34476504
11:30:55:947;-0.47884035;9.921572;0.34476504
11:30:55:947;-0.47884035;9.921572;0.34476504
11:30:56:065;-0.4213795;10.036493;0.47884035
11:30:56:065;-0.4213795;10.036493;0.47884035
11:30:56:065;-0.4213795;10.036493;0.47884035
11:30:56:065;-0.4213795;10.036493;0.47884035
11:30:56:065;-0.4213795;10.036493;0.47884035
11:30:56:065;-0.4213795;10.036493;0.47884035
11:30:56:065;-0.4213795;10.036493;0.47884035
11:30:56:065;-0.4213795;10.036493;0.47884035
11:30:56:065;-0.4213795;10.036493;0.47884035
11:30:56:065;-0.4213795;10.036493;0.47884035
11:30:56:065;-0.4213795;10.036493;0.47884035
11:30:56:065;-0.4213795;10.036493;0.47884035
11:30:56:065;-0.4213795;10.036493;0.47884035
11:30:56:065;-0.4213795;10.036493;0.47884035
11:30:56:178;-0.47884035;9.902418;0.4405331
11:30:56:178;-0.47884035;9.902418;0.4405331
11:30:56:178;-0.47884035;9.902418;0.4405331
11:30:56:178;-0.47884035;9.902418;0.4405331
11:30:56:178;-0.47884035;9.902418;0.4405331
11:30:56:178;-0.47884035;9.902418;0.4405331
11:30:56:178;-0.47884035;9.902418;0.4405331
11:30:56:178;-0.47884035;9.902418;0.4405331
11:30:56:178;-0.47884035;9.902418;0.4405331
11:30:56:178;-0.47884035;9.902418;0.4405331
11:30:56:178;-0.47884035;9.902418;0.4405331
11:30:56:178;-0.47884035;9.902418;0.4405331
11:30:56:178;-0.47884035;9.902418;0.4405331
11:30:56:178;-0.47884035;9.902418;0.4405331
11:30:56:178;-0.47884035;9.902418;0.4405331
11:30:56:296;-0.47884035;9.844957;0.36391866
11:30:56:296;-0.47884035;9.844957;0.36391866
11:30:56:296;-0.47884035;9.844957;0.36391866
11:30:56:296;-0.47884035;9.844957;0.36391866
11:30:56:296;-0.47884035;9.844957;0.36391866
11:30:56:296;-0.47884035;9.844957;0.36391866
11:30:56:296;-0.47884035;9.844957;0.36391866
11:30:56:296;-0.47884035;9.844957;0.36391866
11:30:56:296;-0.47884035;9.844957;0.36391866
11:30:56:296;-0.47884035;9.844957;0.36391866
11:30:56:296;-0.47884035;9.844957;0.36391866
11:30:56:296;-0.47884035;9.844957;0.36391866
11:30:56:296;-0.47884035;9.844957;0.36391866
11:30:56:296;-0.47884035;9.844957;0.36391866
11:30:56:296;-0.47884035;9.844957;0.36391866
11:30:56:296;-0.47884035;9.844957;0.36391866
11:30:56:416;-0.38307226;9.940725;0.38307226
11:30:56:416;-0.38307226;9.940725;0.38307226
11:30:56:416;-0.38307226;9.940725;0.38307226
11:30:56:416;-0.38307226;9.940725;0.38307226
11:30:56:416;-0.38307226;9.940725;0.38307226
11:30:56:416;-0.38307226;9.940725;0.38307226
11:30:56:416;-0.38307226;9.940725;0.38307226
11:30:56:416;-0.38307226;9.940725;0.38307226
11:30:56:416;-0.38307226;9.940725;0.38307226
11:30:56:416;-0.38307226;9.940725;0.38307226
11:30:56:416;-0.38307226;9.940725;0.38307226
11:30:56:416;-0.38307226;9.940725;0.38307226
11:30:56:416;-0.38307226;9.940725;0.38307226
11:30:56:416;-0.38307226;9.940725;0.38307226
11:30:56:416;-0.38307226;9.940725;0.38307226
11:30:56:533;-0.34476504;10.01734;0.32561144
11:30:56:533;-0.34476504;10.01734;0.32561144
11:30:56:533;-0.34476504;10.01734;0.32561144
11:30:56:533;-0.34476504;10.01734;0.32561144
11:30:56:533;-0.34476504;10.01734;0.32561144
11:30:56:533;-0.34476504;10.01734;0.32561144
11:30:56:533;-0.34476504;10.01734;0.32561144
11:30:56:533;-0.34476504;10.01734;0.32561144
11:30:56:533;-0.34476504;10.01734;0.32561144
11:30:56:533;-0.34476504;10.01734;0.32561144
11:30:56:533;-0.34476504;10.01734;0.32561144
11:30:56:533;-0.34476504;10.01734;0.32561144
11:30:56:533;-0.34476504;10.01734;0.32561144
11:30:56:533;-0.34476504;10.01734;0.32561144
11:30:56:533;-0.34476504;10.01734;0.32561144
11:30:56:651;-0.49799395;10.036493;0.4405331
11:30:56:651;-0.49799395;10.036493;0.4405331
11:30:56:651;-0.49799395;10.036493;0.4405331
11:30:56:651;-0.49799395;10.036493;0.4405331
11:30:56:651;-0.49799395;10.036493;0.4405331
11:30:56:651;-0.49799395;10.036493;0.4405331
11:30:56:651;-0.49799395;10.036493;0.4405331
11:30:56:651;-0.49799395;10.036493;0.4405331
11:30:56:651;-0.49799395;10.036493;0.4405331
11:30:56:651;-0.49799395;10.036493;0.4405331
11:30:56:651;-0.49799395;10.036493;0.4405331
11:30:56:651;-0.49799395;10.036493;0.4405331
11:30:56:651;-0.49799395;10.036493;0.4405331
11:30:56:753;-0.47884035;9.883265;0.40222588
11:30:56:753;-0.47884035;9.883265;0.40222588
11:30:56:753;-0.47884035;9.883265;0.40222588
11:30:56:753;-0.47884035;9.883265;0.40222588
11:30:56:753;-0.47884035;9.883265;0.40222588
11:30:56:753;-0.47884035;9.883265;0.40222588
11:30:56:753;-0.47884035;9.883265;0.40222588
11:30:56:753;-0.47884035;9.883265;0.40222588
11:30:56:753;-0.47884035;9.883265;0.40222588
11:30:56:753;-0.47884035;9.883265;0.40222588
11:30:56:753;-0.47884035;9.883265;0.40222588
11:30:56:753;-0.47884035;9.883265;0.40222588
11:30:56:753;-0.47884035;9.883265;0.40222588
11:30:56:753;-0.47884035;9.883265;0.40222588
11:30:56:862;-0.45968673;10.01734;0.40222588
11:30:56:862;-0.45968673;10.01734;0.40222588
11:30:56:862;-0.45968673;10.01734;0.40222588
11:30:56:862;-0.45968673;10.01734;0.40222588
11:30:56:862;-0.45968673;10.01734;0.40222588
11:30:56:862;-0.45968673;10.01734;0.40222588
11:30:56:862;-0.45968673;10.01734;0.40222588
11:30:56:862;-0.45968673;10.01734;0.40222588
11:30:56:862;-0.45968673;10.01734;0.40222588
11:30:56:862;-0.45968673;10.01734;0.40222588
11:30:56:862;-0.45968673;10.01734;0.40222588
11:30:56:862;-0.45968673;10.01734;0.40222588
11:30:56:862;-0.45968673;10.01734;0.40222588
