Time_Accel;AccelX;AccelY;AccelZ
11:31:32:156;-0.91937345;9.097966;1.8195933
11:31:32:156;-0.91937345;9.097966;1.8195933
11:31:32:259;-0.4213795;11.300632;-0.32561144
11:31:32:259;-0.4213795;11.300632;-0.32561144
11:31:32:259;-0.4213795;11.300632;-0.32561144
11:31:32:259;-0.4213795;11.300632;-0.32561144
11:31:32:259;-0.4213795;11.300632;-0.32561144
11:31:32:259;-0.4213795;11.300632;-0.32561144
11:31:32:259;-0.4213795;11.300632;-0.32561144
11:31:32:259;-0.4213795;11.300632;-0.32561144
11:31:32:259;-0.4213795;11.300632;-0.32561144
11:31:32:259;-0.4213795;11.300632;-0.32561144
11:31:32:259;-0.4213795;11.300632;-0.32561144
11:31:32:259;-0.4213795;11.300632;-0.32561144
11:31:32:259;-0.4213795;11.300632;-0.32561144
11:31:32:259;-0.4213795;11.300632;-0.32561144
11:31:32:259;-0.4213795;11.300632;-0.32561144
11:31:32:377;-0.47884035;10.132261;-0.2681506
11:31:32:377;-0.47884035;10.132261;-0.2681506
11:31:32:377;-0.47884035;10.132261;-0.2681506
11:31:32:377;-0.47884035;10.132261;-0.2681506
11:31:32:377;-0.47884035;10.132261;-0.2681506
11:31:32:377;-0.47884035;10.132261;-0.2681506
11:31:32:377;-0.47884035;10.132261;-0.2681506
11:31:32:377;-0.47884035;10.132261;-0.2681506
11:31:32:377;-0.47884035;10.132261;-0.2681506
11:31:32:377;-0.47884035;10.132261;-0.2681506
11:31:32:377;-0.47884035;10.132261;-0.2681506
11:31:32:377;-0.47884035;10.132261;-0.2681506
11:31:32:377;-0.47884035;10.132261;-0.2681506
11:31:32:377;-0.47884035;10.132261;-0.2681506
11:31:32:377;-0.47884035;10.132261;-0.2681506
11:31:32:495;-0.38307226;10.342952;-1.2066777
11:31:32:495;-0.38307226;10.342952;-1.2066777
11:31:32:495;-0.38307226;10.342952;-1.2066777
11:31:32:495;-0.38307226;10.342952;-1.2066777
11:31:32:495;-0.38307226;10.342952;-1.2066777
11:31:32:495;-0.38307226;10.342952;-1.2066777
11:31:32:495;-0.38307226;10.342952;-1.2066777
11:31:32:495;-0.38307226;10.342952;-1.2066777
11:31:32:495;-0.38307226;10.342952;-1.2066777
11:31:32:495;-0.38307226;10.342952;-1.2066777
11:31:32:495;-0.38307226;10.342952;-1.2066777
11:31:32:495;-0.38307226;10.342952;-1.2066777
11:31:32:495;-0.38307226;10.342952;-1.2066777
11:31:32:495;-0.38307226;10.342952;-1.2066777
11:31:32:495;-0.38307226;10.342952;-1.2066777
11:31:32:612;-1.2258313;10.419566;-0.6512229
11:31:32:612;-1.2258313;10.419566;-0.6512229
11:31:32:612;-1.2258313;10.419566;-0.6512229
11:31:32:612;-1.2258313;10.419566;-0.6512229
11:31:32:612;-1.2258313;10.419566;-0.6512229
11:31:32:612;-1.2258313;10.419566;-0.6512229
11:31:32:612;-1.2258313;10.419566;-0.6512229
11:31:32:612;-1.2258313;10.419566;-0.6512229
11:31:32:612;-1.2258313;10.419566;-0.6512229
11:31:32:612;-1.2258313;10.419566;-0.6512229
11:31:32:612;-1.2258313;10.419566;-0.6512229
11:31:32:612;-1.2258313;10.419566;-0.6512229
11:31:32:612;-1.2258313;10.419566;-0.6512229
11:31:32:714;-0.4405331;8.197746;0.8619126
11:31:32:714;-0.4405331;8.197746;0.8619126
11:31:32:714;-0.4405331;8.197746;0.8619126
11:31:32:714;-0.4405331;8.197746;0.8619126
11:31:32:714;-0.4405331;8.197746;0.8619126
11:31:32:714;-0.4405331;8.197746;0.8619126
11:31:32:714;-0.4405331;8.197746;0.8619126
11:31:32:714;-0.4405331;8.197746;0.8619126
11:31:32:714;-0.4405331;8.197746;0.8619126
11:31:32:714;-0.4405331;8.197746;0.8619126
11:31:32:714;-0.4405331;8.197746;0.8619126
11:31:32:714;-0.4405331;8.197746;0.8619126
11:31:32:714;-0.4405331;8.197746;0.8619126
11:31:32:714;-0.4405331;8.197746;0.8619126
11:31:32:714;-0.4405331;8.197746;0.8619126
11:31:32:834;-0.095768064;9.5385;-0.095768064
11:31:32:834;-0.095768064;9.5385;-0.095768064
11:31:32:834;-0.095768064;9.5385;-0.095768064
11:31:32:834;-0.095768064;9.5385;-0.095768064
11:31:32:834;-0.095768064;9.5385;-0.095768064
11:31:32:834;-0.095768064;9.5385;-0.095768064
11:31:32:834;-0.095768064;9.5385;-0.095768064
11:31:32:834;-0.095768064;9.5385;-0.095768064
11:31:32:834;-0.095768064;9.5385;-0.095768064
11:31:32:834;-0.095768064;9.5385;-0.095768064
11:31:32:834;-0.095768064;9.5385;-0.095768064
11:31:32:834;-0.095768064;9.5385;-0.095768064
11:31:32:834;-0.095768064;9.5385;-0.095768064
11:31:32:834;-0.095768064;9.5385;-0.095768064
11:31:32:834;-0.095768064;9.5385;-0.095768064
11:31:32:950;0.19153613;10.70687;-0.38307226
11:31:32:950;0.19153613;10.70687;-0.38307226
11:31:32:950;0.19153613;10.70687;-0.38307226
11:31:32:950;0.19153613;10.70687;-0.38307226
11:31:32:950;0.19153613;10.70687;-0.38307226
11:31:32:950;0.19153613;10.70687;-0.38307226
11:31:32:950;0.19153613;10.70687;-0.38307226
11:31:32:950;0.19153613;10.70687;-0.38307226
11:31:32:950;0.19153613;10.70687;-0.38307226
11:31:32:950;0.19153613;10.70687;-0.38307226
11:31:32:950;0.19153613;10.70687;-0.38307226
11:31:32:950;0.19153613;10.70687;-0.38307226
11:31:32:950;0.19153613;10.70687;-0.38307226
11:31:32:950;0.19153613;10.70687;-0.38307226
11:31:32:950;0.19153613;10.70687;-0.38307226
11:31:33:070;0.21068975;10.611102;-0.842759
11:31:33:070;0.21068975;10.611102;-0.842759
11:31:33:070;0.21068975;10.611102;-0.842759
11:31:33:070;0.21068975;10.611102;-0.842759
11:31:33:070;0.21068975;10.611102;-0.842759
11:31:33:070;0.21068975;10.611102;-0.842759
11:31:33:070;0.21068975;10.611102;-0.842759
11:31:33:070;0.21068975;10.611102;-0.842759
11:31:33:070;0.21068975;10.611102;-0.842759
11:31:33:070;0.21068975;10.611102;-0.842759
11:31:33:070;0.21068975;10.611102;-0.842759
11:31:33:070;0.21068975;10.611102;-0.842759
11:31:33:070;0.21068975;10.611102;-0.842759
11:31:33:070;0.21068975;10.611102;-0.842759
11:31:33:174;-1.1109096;8.63828;1.2449849
11:31:33:174;-1.1109096;8.63828;1.2449849
11:31:33:174;-1.1109096;8.63828;1.2449849
11:31:33:174;-1.1109096;8.63828;1.2449849
11:31:33:174;-1.1109096;8.63828;1.2449849
11:31:33:174;-1.1109096;8.63828;1.2449849
11:31:33:174;-1.1109096;8.63828;1.2449849
11:31:33:174;-1.1109096;8.63828;1.2449849
11:31:33:174;-1.1109096;8.63828;1.2449849
11:31:33:174;-1.1109096;8.63828;1.2449849
11:31:33:174;-1.1109096;8.63828;1.2449849
11:31:33:174;-1.1109096;8.63828;1.2449849
11:31:33:174;-1.1109096;8.63828;1.2449849
11:31:33:279;-0.6703765;9.691729;0.21068975
11:31:33:279;-0.6703765;9.691729;0.21068975
11:31:33:279;-0.6703765;9.691729;0.21068975
11:31:33:279;-0.6703765;9.691729;0.21068975
11:31:33:279;-0.6703765;9.691729;0.21068975
11:31:33:279;-0.6703765;9.691729;0.21068975
11:31:33:279;-0.6703765;9.691729;0.21068975
11:31:33:279;-0.6703765;9.691729;0.21068975
11:31:33:279;-0.6703765;9.691729;0.21068975
11:31:33:279;-0.6703765;9.691729;0.21068975
11:31:33:279;-0.6703765;9.691729;0.21068975
11:31:33:279;-0.6703765;9.691729;0.21068975
11:31:33:279;-0.6703765;9.691729;0.21068975
11:31:33:279;-0.6703765;9.691729;0.21068975
11:31:33:279;-0.6703765;9.691729;0.21068975
11:31:33:397;-1.3215994;9.32781;0.19153613
11:31:33:397;-1.3215994;9.32781;0.19153613
11:31:33:397;-1.3215994;9.32781;0.19153613
11:31:33:397;-1.3215994;9.32781;0.19153613
11:31:33:397;-1.3215994;9.32781;0.19153613
11:31:33:397;-1.3215994;9.32781;0.19153613
11:31:33:397;-1.3215994;9.32781;0.19153613
11:31:33:397;-1.3215994;9.32781;0.19153613
11:31:33:397;-1.3215994;9.32781;0.19153613
11:31:33:397;-1.3215994;9.32781;0.19153613
11:31:33:397;-1.3215994;9.32781;0.19153613
11:31:33:397;-1.3215994;9.32781;0.19153613
11:31:33:397;-1.3215994;9.32781;0.19153613
11:31:33:397;-1.3215994;9.32781;0.19153613
11:31:33:397;-1.3215994;9.32781;0.19153613
11:31:33:397;-1.3215994;9.32781;0.19153613
11:31:33:397;-1.3215994;9.32781;0.19153613
11:31:33:397;-1.3215994;9.32781;0.19153613
11:31:33:397;-1.3215994;9.32781;0.19153613
11:31:33:541;-0.90021986;9.5385;0.6512229
11:31:33:541;-0.90021986;9.5385;0.6512229
11:31:33:541;-0.90021986;9.5385;0.6512229
11:31:33:541;-0.90021986;9.5385;0.6512229
11:31:33:541;-0.90021986;9.5385;0.6512229
11:31:33:541;-0.90021986;9.5385;0.6512229
11:31:33:541;-0.90021986;9.5385;0.6512229
11:31:33:541;-0.90021986;9.5385;0.6512229
11:31:33:541;-0.90021986;9.5385;0.6512229
11:31:33:541;-0.90021986;9.5385;0.6512229
11:31:33:541;-0.90021986;9.5385;0.6512229
11:31:33:541;-0.90021986;9.5385;0.6512229
11:31:33:541;-0.90021986;9.5385;0.6512229
11:31:33:541;-0.90021986;9.5385;0.6512229
11:31:33:650;-0.9576807;10.0748005;-0.30645782
11:31:33:650;-0.9576807;10.0748005;-0.30645782
11:31:33:650;-0.9576807;10.0748005;-0.30645782
11:31:33:650;-0.9576807;10.0748005;-0.30645782
11:31:33:650;-0.9576807;10.0748005;-0.30645782
11:31:33:650;-0.9576807;10.0748005;-0.30645782
11:31:33:650;-0.9576807;10.0748005;-0.30645782
11:31:33:650;-0.9576807;10.0748005;-0.30645782
11:31:33:650;-0.9576807;10.0748005;-0.30645782
11:31:33:650;-0.9576807;10.0748005;-0.30645782
11:31:33:650;-0.9576807;10.0748005;-0.30645782
11:31:33:650;-0.9576807;10.0748005;-0.30645782
11:31:33:650;-0.9576807;10.0748005;-0.30645782
11:31:33:650;-0.9576807;10.0748005;-0.30645782
11:31:33:650;-0.9576807;10.0748005;-0.30645782
11:31:33:650;-0.9576807;10.0748005;-0.30645782
11:31:33:650;-0.9576807;10.0748005;-0.30645782
11:31:33:650;-0.9576807;10.0748005;-0.30645782
11:31:33:650;-0.9576807;10.0748005;-0.30645782
11:31:33:801;-0.6895301;9.883265;-0.2873042
11:31:33:801;-0.6895301;9.883265;-0.2873042
11:31:33:801;-0.6895301;9.883265;-0.2873042
11:31:33:801;-0.6895301;9.883265;-0.2873042
11:31:33:801;-0.6895301;9.883265;-0.2873042
11:31:33:801;-0.6895301;9.883265;-0.2873042
11:31:33:801;-0.6895301;9.883265;-0.2873042
11:31:33:801;-0.6895301;9.883265;-0.2873042
11:31:33:801;-0.6895301;9.883265;-0.2873042
11:31:33:801;-0.6895301;9.883265;-0.2873042
11:31:33:801;-0.6895301;9.883265;-0.2873042
11:31:33:801;-0.6895301;9.883265;-0.2873042
11:31:33:801;-0.6895301;9.883265;-0.2873042
11:31:33:801;-0.6895301;9.883265;-0.2873042
11:31:33:913;-0.7469909;10.113108;-0.90021986
11:31:33:913;-0.7469909;10.113108;-0.90021986
11:31:33:913;-0.7469909;10.113108;-0.90021986
11:31:33:913;-0.7469909;10.113108;-0.90021986
11:31:33:913;-0.7469909;10.113108;-0.90021986
11:31:33:913;-0.7469909;10.113108;-0.90021986
11:31:33:913;-0.7469909;10.113108;-0.90021986
11:31:33:913;-0.7469909;10.113108;-0.90021986
11:31:33:913;-0.7469909;10.113108;-0.90021986
11:31:33:913;-0.7469909;10.113108;-0.90021986
11:31:33:913;-0.7469909;10.113108;-0.90021986
11:31:33:913;-0.7469909;10.113108;-0.90021986
11:31:33:913;-0.7469909;10.113108;-0.90021986
11:31:33:913;-0.7469909;10.113108;-0.90021986
11:31:33:913;-0.7469909;10.113108;-0.90021986
11:31:33:913;-0.7469909;10.113108;-0.90021986
11:31:33:913;-0.7469909;10.113108;-0.90021986
11:31:34:046;-0.5746084;9.32781;0.5746084
11:31:34:046;-0.5746084;9.32781;0.5746084
11:31:34:046;-0.5746084;9.32781;0.5746084
11:31:34:046;-0.5746084;9.32781;0.5746084
11:31:34:046;-0.5746084;9.32781;0.5746084
11:31:34:046;-0.5746084;9.32781;0.5746084
11:31:34:046;-0.5746084;9.32781;0.5746084
11:31:34:046;-0.5746084;9.32781;0.5746084
11:31:34:046;-0.5746084;9.32781;0.5746084
11:31:34:046;-0.5746084;9.32781;0.5746084
11:31:34:046;-0.5746084;9.32781;0.5746084
11:31:34:046;-0.5746084;9.32781;0.5746084
11:31:34:046;-0.5746084;9.32781;0.5746084
11:31:34:046;-0.5746084;9.32781;0.5746084
11:31:34:152;-0.8619126;10.457873;-0.80445176
11:31:34:152;-0.8619126;10.457873;-0.80445176
11:31:34:152;-0.8619126;10.457873;-0.80445176
11:31:34:152;-0.8619126;10.457873;-0.80445176
11:31:34:152;-0.8619126;10.457873;-0.80445176
11:31:34:152;-0.8619126;10.457873;-0.80445176
11:31:34:152;-0.8619126;10.457873;-0.80445176
11:31:34:152;-0.8619126;10.457873;-0.80445176
11:31:34:152;-0.8619126;10.457873;-0.80445176
11:31:34:152;-0.8619126;10.457873;-0.80445176
11:31:34:152;-0.8619126;10.457873;-0.80445176
11:31:34:152;-0.8619126;10.457873;-0.80445176
11:31:34:152;-0.8619126;10.457873;-0.80445176
11:31:34:256;-0.22984336;11.147403;-1.1875241
11:31:34:256;-0.22984336;11.147403;-1.1875241
11:31:34:256;-0.22984336;11.147403;-1.1875241
11:31:34:256;-0.22984336;11.147403;-1.1875241
11:31:34:256;-0.22984336;11.147403;-1.1875241
11:31:34:256;-0.22984336;11.147403;-1.1875241
11:31:34:256;-0.22984336;11.147403;-1.1875241
11:31:34:256;-0.22984336;11.147403;-1.1875241
11:31:34:256;-0.22984336;11.147403;-1.1875241
11:31:34:256;-0.22984336;11.147403;-1.1875241
11:31:34:256;-0.22984336;11.147403;-1.1875241
11:31:34:256;-0.22984336;11.147403;-1.1875241
11:31:34:256;-0.22984336;11.147403;-1.1875241
11:31:34:256;-0.22984336;11.147403;-1.1875241
11:31:34:256;-0.22984336;11.147403;-1.1875241
11:31:34:374;-1.8579005;12.947843;-1.5131354
11:31:34:374;-1.8579005;12.947843;-1.5131354
11:31:34:374;-1.8579005;12.947843;-1.5131354
11:31:34:374;-1.8579005;12.947843;-1.5131354
11:31:34:374;-1.8579005;12.947843;-1.5131354
11:31:34:374;-1.8579005;12.947843;-1.5131354
11:31:34:374;-1.8579005;12.947843;-1.5131354
11:31:34:374;-1.8579005;12.947843;-1.5131354
11:31:34:374;-1.8579005;12.947843;-1.5131354
11:31:34:374;-1.8579005;12.947843;-1.5131354
11:31:34:374;-1.8579005;12.947843;-1.5131354
11:31:34:374;-1.8579005;12.947843;-1.5131354
11:31:34:374;-1.8579005;12.947843;-1.5131354
11:31:34:374;-1.8579005;12.947843;-1.5131354
11:31:34:374;-1.8579005;12.947843;-1.5131354
11:31:34:492;-1.2258313;11.741165;-2.0685902
11:31:34:492;-1.2258313;11.741165;-2.0685902
11:31:34:492;-1.2258313;11.741165;-2.0685902
11:31:34:492;-1.2258313;11.741165;-2.0685902
11:31:34:492;-1.2258313;11.741165;-2.0685902
11:31:34:492;-1.2258313;11.741165;-2.0685902
11:31:34:492;-1.2258313;11.741165;-2.0685902
11:31:34:492;-1.2258313;11.741165;-2.0685902
11:31:34:492;-1.2258313;11.741165;-2.0685902
11:31:34:492;-1.2258313;11.741165;-2.0685902
11:31:34:492;-1.2258313;11.741165;-2.0685902
11:31:34:492;-1.2258313;11.741165;-2.0685902
11:31:34:492;-1.2258313;11.741165;-2.0685902
11:31:34:492;-1.2258313;11.741165;-2.0685902
11:31:34:595;-0.80445176;10.5919485;-1.8004397
11:31:34:595;-0.80445176;10.5919485;-1.8004397
11:31:34:595;-0.80445176;10.5919485;-1.8004397
11:31:34:595;-0.80445176;10.5919485;-1.8004397
11:31:34:595;-0.80445176;10.5919485;-1.8004397
11:31:34:595;-0.80445176;10.5919485;-1.8004397
11:31:34:595;-0.80445176;10.5919485;-1.8004397
11:31:34:595;-0.80445176;10.5919485;-1.8004397
11:31:34:595;-0.80445176;10.5919485;-1.8004397
11:31:34:595;-0.80445176;10.5919485;-1.8004397
11:31:34:595;-0.80445176;10.5919485;-1.8004397
11:31:34:595;-0.80445176;10.5919485;-1.8004397
11:31:34:595;-0.80445176;10.5919485;-1.8004397
11:31:34:595;-0.80445176;10.5919485;-1.8004397
11:31:34:595;-0.80445176;10.5919485;-1.8004397
11:31:34:716;-0.8619126;10.28549;-1.8004397
11:31:34:716;-0.8619126;10.28549;-1.8004397
11:31:34:716;-0.8619126;10.28549;-1.8004397
11:31:34:716;-0.8619126;10.28549;-1.8004397
11:31:34:716;-0.8619126;10.28549;-1.8004397
11:31:34:716;-0.8619126;10.28549;-1.8004397
11:31:34:716;-0.8619126;10.28549;-1.8004397
11:31:34:716;-0.8619126;10.28549;-1.8004397
11:31:34:716;-0.8619126;10.28549;-1.8004397
11:31:34:716;-0.8619126;10.28549;-1.8004397
11:31:34:716;-0.8619126;10.28549;-1.8004397
11:31:34:716;-0.8619126;10.28549;-1.8004397
11:31:34:716;-0.8619126;10.28549;-1.8004397
11:31:34:820;-1.1109096;10.879252;-1.9728222
11:31:34:820;-1.1109096;10.879252;-1.9728222
11:31:34:820;-1.1109096;10.879252;-1.9728222
11:31:34:820;-1.1109096;10.879252;-1.9728222
11:31:34:820;-1.1109096;10.879252;-1.9728222
11:31:34:820;-1.1109096;10.879252;-1.9728222
11:31:34:820;-1.1109096;10.879252;-1.9728222
11:31:34:820;-1.1109096;10.879252;-1.9728222
11:31:34:820;-1.1109096;10.879252;-1.9728222
11:31:34:820;-1.1109096;10.879252;-1.9728222
11:31:34:820;-1.1109096;10.879252;-1.9728222
11:31:34:820;-1.1109096;10.879252;-1.9728222
11:31:34:820;-1.1109096;10.879252;-1.9728222
11:31:34:820;-1.1109096;10.879252;-1.9728222
11:31:34:820;-1.1109096;10.879252;-1.9728222
11:31:34:820;-1.1109096;10.879252;-1.9728222
11:31:34:939;-1.2066777;12.679692;-3.0454245
11:31:34:939;-1.2066777;12.679692;-3.0454245
11:31:34:939;-1.2066777;12.679692;-3.0454245
11:31:34:939;-1.2066777;12.679692;-3.0454245
11:31:34:939;-1.2066777;12.679692;-3.0454245
11:31:34:939;-1.2066777;12.679692;-3.0454245
11:31:34:939;-1.2066777;12.679692;-3.0454245
11:31:34:939;-1.2066777;12.679692;-3.0454245
11:31:34:939;-1.2066777;12.679692;-3.0454245
11:31:34:939;-1.2066777;12.679692;-3.0454245
11:31:34:939;-1.2066777;12.679692;-3.0454245
11:31:34:939;-1.2066777;12.679692;-3.0454245
11:31:34:939;-1.2066777;12.679692;-3.0454245
11:31:34:939;-1.2066777;12.679692;-3.0454245
11:31:34:939;-1.2066777;12.679692;-3.0454245
11:31:35:056;-0.9768343;10.898406;-0.49799395
11:31:35:056;-0.9768343;10.898406;-0.49799395
11:31:35:056;-0.9768343;10.898406;-0.49799395
11:31:35:056;-0.9768343;10.898406;-0.49799395
11:31:35:056;-0.9768343;10.898406;-0.49799395
11:31:35:056;-0.9768343;10.898406;-0.49799395
11:31:35:056;-0.9768343;10.898406;-0.49799395
11:31:35:056;-0.9768343;10.898406;-0.49799395
11:31:35:056;-0.9768343;10.898406;-0.49799395
11:31:35:056;-0.9768343;10.898406;-0.49799395
11:31:35:056;-0.9768343;10.898406;-0.49799395
11:31:35:056;-0.9768343;10.898406;-0.49799395
11:31:35:056;-0.9768343;10.898406;-0.49799395
11:31:35:056;-0.9768343;10.898406;-0.49799395
11:31:35:165;-0.6512229;8.350976;-0.17238252
11:31:35:165;-0.6512229;8.350976;-0.17238252
11:31:35:165;-0.6512229;8.350976;-0.17238252
11:31:35:165;-0.6512229;8.350976;-0.17238252
11:31:35:165;-0.6512229;8.350976;-0.17238252
11:31:35:165;-0.6512229;8.350976;-0.17238252
11:31:35:165;-0.6512229;8.350976;-0.17238252
11:31:35:165;-0.6512229;8.350976;-0.17238252
11:31:35:165;-0.6512229;8.350976;-0.17238252
11:31:35:165;-0.6512229;8.350976;-0.17238252
11:31:35:165;-0.6512229;8.350976;-0.17238252
11:31:35:165;-0.6512229;8.350976;-0.17238252
11:31:35:165;-0.6512229;8.350976;-0.17238252
11:31:35:165;-0.6512229;8.350976;-0.17238252
11:31:35:165;-0.6512229;8.350976;-0.17238252
11:31:35:287;-1.2066777;9.078813;0.36391866
11:31:35:287;-1.2066777;9.078813;0.36391866
11:31:35:287;-1.2066777;9.078813;0.36391866
11:31:35:287;-1.2066777;9.078813;0.36391866
11:31:35:287;-1.2066777;9.078813;0.36391866
11:31:35:287;-1.2066777;9.078813;0.36391866
11:31:35:287;-1.2066777;9.078813;0.36391866
11:31:35:287;-1.2066777;9.078813;0.36391866
11:31:35:287;-1.2066777;9.078813;0.36391866
11:31:35:287;-1.2066777;9.078813;0.36391866
11:31:35:287;-1.2066777;9.078813;0.36391866
11:31:35:287;-1.2066777;9.078813;0.36391866
11:31:35:287;-1.2066777;9.078813;0.36391866
11:31:35:388;-1.8195933;10.151415;-0.038307227
11:31:35:388;-1.8195933;10.151415;-0.038307227
11:31:35:388;-1.8195933;10.151415;-0.038307227
11:31:35:388;-1.8195933;10.151415;-0.038307227
11:31:35:388;-1.8195933;10.151415;-0.038307227
11:31:35:388;-1.8195933;10.151415;-0.038307227
11:31:35:388;-1.8195933;10.151415;-0.038307227
11:31:35:388;-1.8195933;10.151415;-0.038307227
11:31:35:388;-1.8195933;10.151415;-0.038307227
11:31:35:388;-1.8195933;10.151415;-0.038307227
11:31:35:388;-1.8195933;10.151415;-0.038307227
11:31:35:388;-1.8195933;10.151415;-0.038307227
11:31:35:388;-1.8195933;10.151415;-0.038307227
11:31:35:388;-1.8195933;10.151415;-0.038307227
11:31:35:388;-1.8195933;10.151415;-0.038307227
11:31:35:388;-1.8195933;10.151415;-0.038307227
11:31:35:511;-1.3599066;10.840945;-0.5363012
11:31:35:511;-1.3599066;10.840945;-0.5363012
11:31:35:511;-1.3599066;10.840945;-0.5363012
11:31:35:511;-1.3599066;10.840945;-0.5363012
11:31:35:511;-1.3599066;10.840945;-0.5363012
11:31:35:511;-1.3599066;10.840945;-0.5363012
11:31:35:511;-1.3599066;10.840945;-0.5363012
11:31:35:511;-1.3599066;10.840945;-0.5363012
11:31:35:511;-1.3599066;10.840945;-0.5363012
11:31:35:511;-1.3599066;10.840945;-0.5363012
11:31:35:511;-1.3599066;10.840945;-0.5363012
11:31:35:511;-1.3599066;10.840945;-0.5363012
11:31:35:511;-1.3599066;10.840945;-0.5363012
11:31:35:511;-1.3599066;10.840945;-0.5363012
11:31:35:511;-1.3599066;10.840945;-0.5363012
11:31:35:511;-1.3599066;10.840945;-0.5363012
11:31:35:511;-1.3599066;10.840945;-0.5363012
11:31:35:511;-1.3599066;10.840945;-0.5363012
11:31:35:511;-1.3599066;10.840945;-0.5363012
11:31:35:511;-1.3599066;10.840945;-0.5363012
11:31:35:511;-1.3599066;10.840945;-0.5363012
11:31:35:511;-1.3599066;10.840945;-0.5363012
11:31:35:511;-1.3599066;10.840945;-0.5363012
11:31:35:695;-2.3942018;9.557653;0.7086837
11:31:35:695;-2.3942018;9.557653;0.7086837
11:31:35:695;-2.3942018;9.557653;0.7086837
11:31:35:695;-2.3942018;9.557653;0.7086837
11:31:35:695;-2.3942018;9.557653;0.7086837
11:31:35:695;-2.3942018;9.557653;0.7086837
11:31:35:695;-2.3942018;9.557653;0.7086837
11:31:35:695;-2.3942018;9.557653;0.7086837
11:31:35:695;-2.3942018;9.557653;0.7086837
11:31:35:695;-2.3942018;9.557653;0.7086837
11:31:35:695;-2.3942018;9.557653;0.7086837
11:31:35:695;-2.3942018;9.557653;0.7086837
11:31:35:695;-2.3942018;9.557653;0.7086837
11:31:35:695;-2.3942018;9.557653;0.7086837
11:31:35:804;-1.6280571;8.810662;0.21068975
11:31:35:804;-1.6280571;8.810662;0.21068975
11:31:35:804;-1.6280571;8.810662;0.21068975
11:31:35:804;-1.6280571;8.810662;0.21068975
11:31:35:804;-1.6280571;8.810662;0.21068975
11:31:35:804;-1.6280571;8.810662;0.21068975
11:31:35:804;-1.6280571;8.810662;0.21068975
11:31:35:804;-1.6280571;8.810662;0.21068975
11:31:35:804;-1.6280571;8.810662;0.21068975
11:31:35:804;-1.6280571;8.810662;0.21068975
11:31:35:804;-1.6280571;8.810662;0.21068975
11:31:35:804;-1.6280571;8.810662;0.21068975
11:31:35:804;-1.6280571;8.810662;0.21068975
11:31:35:804;-1.6280571;8.810662;0.21068975
11:31:35:804;-1.6280571;8.810662;0.21068975
11:31:35:804;-1.6280571;8.810662;0.21068975
11:31:35:929;-1.091756;9.959879;-1.2258313
11:31:35:929;-1.091756;9.959879;-1.2258313
11:31:35:929;-1.091756;9.959879;-1.2258313
11:31:35:929;-1.091756;9.959879;-1.2258313
11:31:35:929;-1.091756;9.959879;-1.2258313
11:31:35:929;-1.091756;9.959879;-1.2258313
11:31:35:929;-1.091756;9.959879;-1.2258313
11:31:35:929;-1.091756;9.959879;-1.2258313
11:31:35:929;-1.091756;9.959879;-1.2258313
11:31:35:929;-1.091756;9.959879;-1.2258313
11:31:35:929;-1.091756;9.959879;-1.2258313
11:31:35:929;-1.091756;9.959879;-1.2258313
11:31:35:929;-1.091756;9.959879;-1.2258313
11:31:35:929;-1.091756;9.959879;-1.2258313
11:31:36:033;-1.4173675;9.461885;0.19153613
11:31:36:033;-1.4173675;9.461885;0.19153613
11:31:36:033;-1.4173675;9.461885;0.19153613
11:31:36:033;-1.4173675;9.461885;0.19153613
11:31:36:033;-1.4173675;9.461885;0.19153613
11:31:36:033;-1.4173675;9.461885;0.19153613
11:31:36:033;-1.4173675;9.461885;0.19153613
11:31:36:033;-1.4173675;9.461885;0.19153613
11:31:36:033;-1.4173675;9.461885;0.19153613
11:31:36:033;-1.4173675;9.461885;0.19153613
11:31:36:033;-1.4173675;9.461885;0.19153613
11:31:36:033;-1.4173675;9.461885;0.19153613
11:31:36:033;-1.4173675;9.461885;0.19153613
11:31:36:033;-1.4173675;9.461885;0.19153613
11:31:36:033;-1.4173675;9.461885;0.19153613
11:31:36:150;-0.9768343;12.105083;-1.3982137
11:31:36:150;-0.9768343;12.105083;-1.3982137
11:31:36:150;-0.9768343;12.105083;-1.3982137
11:31:36:150;-0.9768343;12.105083;-1.3982137
11:31:36:150;-0.9768343;12.105083;-1.3982137
11:31:36:150;-0.9768343;12.105083;-1.3982137
11:31:36:150;-0.9768343;12.105083;-1.3982137
11:31:36:150;-0.9768343;12.105083;-1.3982137
11:31:36:150;-0.9768343;12.105083;-1.3982137
11:31:36:150;-0.9768343;12.105083;-1.3982137
11:31:36:150;-0.9768343;12.105083;-1.3982137
11:31:36:150;-0.9768343;12.105083;-1.3982137
11:31:36:150;-0.9768343;12.105083;-1.3982137
11:31:36:254;-0.842759;11.626244;-0.7661445
11:31:36:254;-0.842759;11.626244;-0.7661445
11:31:36:254;-0.842759;11.626244;-0.7661445
11:31:36:254;-0.842759;11.626244;-0.7661445
11:31:36:254;-0.842759;11.626244;-0.7661445
11:31:36:254;-0.842759;11.626244;-0.7661445
11:31:36:254;-0.842759;11.626244;-0.7661445
11:31:36:254;-0.842759;11.626244;-0.7661445
11:31:36:254;-0.842759;11.626244;-0.7661445
11:31:36:254;-0.842759;11.626244;-0.7661445
11:31:36:254;-0.842759;11.626244;-0.7661445
11:31:36:254;-0.842759;11.626244;-0.7661445
11:31:36:254;-0.842759;11.626244;-0.7661445
11:31:36:254;-0.842759;11.626244;-0.7661445
11:31:36:364;-0.6512229;10.400413;-1.0342951
11:31:36:364;-0.6512229;10.400413;-1.0342951
11:31:36:364;-0.6512229;10.400413;-1.0342951
11:31:36:364;-0.6512229;10.400413;-1.0342951
11:31:36:364;-0.6512229;10.400413;-1.0342951
11:31:36:364;-0.6512229;10.400413;-1.0342951
11:31:36:364;-0.6512229;10.400413;-1.0342951
11:31:36:364;-0.6512229;10.400413;-1.0342951
11:31:36:364;-0.6512229;10.400413;-1.0342951
11:31:36:364;-0.6512229;10.400413;-1.0342951
11:31:36:364;-0.6512229;10.400413;-1.0342951
11:31:36:364;-0.6512229;10.400413;-1.0342951
11:31:36:364;-0.6512229;10.400413;-1.0342951
11:31:36:364;-0.6512229;10.400413;-1.0342951
11:31:36:469;-1.0726024;11.147403;-2.27928
11:31:36:469;-1.0726024;11.147403;-2.27928
11:31:36:469;-1.0726024;11.147403;-2.27928
11:31:36:469;-1.0726024;11.147403;-2.27928
11:31:36:469;-1.0726024;11.147403;-2.27928
11:31:36:469;-1.0726024;11.147403;-2.27928
11:31:36:469;-1.0726024;11.147403;-2.27928
11:31:36:469;-1.0726024;11.147403;-2.27928
11:31:36:469;-1.0726024;11.147403;-2.27928
11:31:36:469;-1.0726024;11.147403;-2.27928
11:31:36:469;-1.0726024;11.147403;-2.27928
11:31:36:469;-1.0726024;11.147403;-2.27928
11:31:36:469;-1.0726024;11.147403;-2.27928
11:31:36:469;-1.0726024;11.147403;-2.27928
11:31:36:469;-1.0726024;11.147403;-2.27928
11:31:36:469;-1.0726024;11.147403;-2.27928
11:31:36:469;-1.0726024;11.147403;-2.27928
11:31:36:605;-1.0726024;7.8912888;1.3215994
11:31:36:605;-1.0726024;7.8912888;1.3215994
11:31:36:605;-1.0726024;7.8912888;1.3215994
11:31:36:605;-1.0726024;7.8912888;1.3215994
11:31:36:605;-1.0726024;7.8912888;1.3215994
11:31:36:605;-1.0726024;7.8912888;1.3215994
11:31:36:605;-1.0726024;7.8912888;1.3215994
11:31:36:605;-1.0726024;7.8912888;1.3215994
11:31:36:605;-1.0726024;7.8912888;1.3215994
11:31:36:605;-1.0726024;7.8912888;1.3215994
11:31:36:605;-1.0726024;7.8912888;1.3215994
11:31:36:605;-1.0726024;7.8912888;1.3215994
11:31:36:605;-1.0726024;7.8912888;1.3215994
11:31:36:707;0.15322891;8.025364;1.091756
11:31:36:707;0.15322891;8.025364;1.091756
11:31:36:707;0.15322891;8.025364;1.091756
11:31:36:707;0.15322891;8.025364;1.091756
11:31:36:707;0.15322891;8.025364;1.091756
11:31:36:707;0.15322891;8.025364;1.091756
11:31:36:707;0.15322891;8.025364;1.091756
11:31:36:707;0.15322891;8.025364;1.091756
11:31:36:707;0.15322891;8.025364;1.091756
11:31:36:707;0.15322891;8.025364;1.091756
11:31:36:707;0.15322891;8.025364;1.091756
11:31:36:707;0.15322891;8.025364;1.091756
11:31:36:707;0.15322891;8.025364;1.091756
11:31:36:707;0.15322891;8.025364;1.091756
11:31:36:707;0.15322891;8.025364;1.091756
11:31:36:707;0.15322891;8.025364;1.091756
11:31:36:834;-0.38307226;9.481039;0.91937345
11:31:36:834;-0.38307226;9.481039;0.91937345
11:31:36:834;-0.38307226;9.481039;0.91937345
11:31:36:834;-0.38307226;9.481039;0.91937345
11:31:36:834;-0.38307226;9.481039;0.91937345
11:31:36:834;-0.38307226;9.481039;0.91937345
11:31:36:834;-0.38307226;9.481039;0.91937345
11:31:36:834;-0.38307226;9.481039;0.91937345
11:31:36:834;-0.38307226;9.481039;0.91937345
11:31:36:834;-0.38307226;9.481039;0.91937345
11:31:36:834;-0.38307226;9.481039;0.91937345
11:31:36:834;-0.38307226;9.481039;0.91937345
11:31:36:834;-0.38307226;9.481039;0.91937345
11:31:36:834;-0.38307226;9.481039;0.91937345
11:31:36:834;-0.38307226;9.481039;0.91937345
11:31:36:948;-0.24899697;11.530476;-2.873042
11:31:36:948;-0.24899697;11.530476;-2.873042
11:31:36:948;-0.24899697;11.530476;-2.873042
11:31:36:948;-0.24899697;11.530476;-2.873042
11:31:36:948;-0.24899697;11.530476;-2.873042
11:31:36:948;-0.24899697;11.530476;-2.873042
11:31:36:948;-0.24899697;11.530476;-2.873042
11:31:36:948;-0.24899697;11.530476;-2.873042
11:31:36:948;-0.24899697;11.530476;-2.873042
11:31:36:948;-0.24899697;11.530476;-2.873042
11:31:36:948;-0.24899697;11.530476;-2.873042
11:31:36:948;-0.24899697;11.530476;-2.873042
11:31:36:948;-0.24899697;11.530476;-2.873042
11:31:36:948;-0.24899697;11.530476;-2.873042
11:31:36:948;-0.24899697;11.530476;-2.873042
11:31:37:065;-0.34476504;10.304645;-1.8387469
11:31:37:065;-0.34476504;10.304645;-1.8387469
11:31:37:065;-0.34476504;10.304645;-1.8387469
11:31:37:065;-0.34476504;10.304645;-1.8387469
11:31:37:065;-0.34476504;10.304645;-1.8387469
11:31:37:065;-0.34476504;10.304645;-1.8387469
11:31:37:065;-0.34476504;10.304645;-1.8387469
11:31:37:065;-0.34476504;10.304645;-1.8387469
11:31:37:065;-0.34476504;10.304645;-1.8387469
11:31:37:065;-0.34476504;10.304645;-1.8387469
11:31:37:065;-0.34476504;10.304645;-1.8387469
11:31:37:065;-0.34476504;10.304645;-1.8387469
11:31:37:065;-0.34476504;10.304645;-1.8387469
11:31:37:065;-0.34476504;10.304645;-1.8387469
11:31:37:065;-0.34476504;10.304645;-1.8387469
11:31:37:065;-0.34476504;10.304645;-1.8387469
11:31:37:065;-0.34476504;10.304645;-1.8387469
11:31:37:196;-0.90021986;10.553641;-2.0111294
11:31:37:196;-0.90021986;10.553641;-2.0111294
11:31:37:196;-0.90021986;10.553641;-2.0111294
11:31:37:196;-0.90021986;10.553641;-2.0111294
11:31:37:196;-0.90021986;10.553641;-2.0111294
11:31:37:196;-0.90021986;10.553641;-2.0111294
11:31:37:196;-0.90021986;10.553641;-2.0111294
11:31:37:196;-0.90021986;10.553641;-2.0111294
11:31:37:196;-0.90021986;10.553641;-2.0111294
11:31:37:196;-0.90021986;10.553641;-2.0111294
11:31:37:196;-0.90021986;10.553641;-2.0111294
11:31:37:196;-0.90021986;10.553641;-2.0111294
11:31:37:196;-0.90021986;10.553641;-2.0111294
11:31:37:196;-0.90021986;10.553641;-2.0111294
11:31:37:196;-0.90021986;10.553641;-2.0111294
11:31:37:316;-0.8619126;9.883265;-0.11492168
11:31:37:316;-0.8619126;9.883265;-0.11492168
11:31:37:316;-0.8619126;9.883265;-0.11492168
11:31:37:316;-0.8619126;9.883265;-0.11492168
11:31:37:316;-0.8619126;9.883265;-0.11492168
11:31:37:316;-0.8619126;9.883265;-0.11492168
11:31:37:316;-0.8619126;9.883265;-0.11492168
11:31:37:316;-0.8619126;9.883265;-0.11492168
11:31:37:316;-0.8619126;9.883265;-0.11492168
11:31:37:316;-0.8619126;9.883265;-0.11492168
11:31:37:316;-0.8619126;9.883265;-0.11492168
11:31:37:316;-0.8619126;9.883265;-0.11492168
11:31:37:316;-0.8619126;9.883265;-0.11492168
11:31:37:316;-0.8619126;9.883265;-0.11492168
11:31:37:316;-0.8619126;9.883265;-0.11492168
11:31:37:432;-1.283292;12.698846;-2.3942018
11:31:37:432;-1.283292;12.698846;-2.3942018
11:31:37:432;-1.283292;12.698846;-2.3942018
11:31:37:432;-1.283292;12.698846;-2.3942018
11:31:37:432;-1.283292;12.698846;-2.3942018
11:31:37:432;-1.283292;12.698846;-2.3942018
11:31:37:432;-1.283292;12.698846;-2.3942018
11:31:37:432;-1.283292;12.698846;-2.3942018
11:31:37:432;-1.283292;12.698846;-2.3942018
11:31:37:432;-1.283292;12.698846;-2.3942018
11:31:37:432;-1.283292;12.698846;-2.3942018
11:31:37:432;-1.283292;12.698846;-2.3942018
11:31:37:432;-1.283292;12.698846;-2.3942018
11:31:37:432;-1.283292;12.698846;-2.3942018
11:31:37:432;-1.283292;12.698846;-2.3942018
11:31:37:432;-1.283292;12.698846;-2.3942018
11:31:37:432;-1.283292;12.698846;-2.3942018
11:31:37:564;-1.1492168;10.342952;-0.22984336
11:31:37:564;-1.1492168;10.342952;-0.22984336
11:31:37:564;-1.1492168;10.342952;-0.22984336
11:31:37:564;-1.1492168;10.342952;-0.22984336
11:31:37:564;-1.1492168;10.342952;-0.22984336
11:31:37:564;-1.1492168;10.342952;-0.22984336
11:31:37:564;-1.1492168;10.342952;-0.22984336
11:31:37:564;-1.1492168;10.342952;-0.22984336
11:31:37:564;-1.1492168;10.342952;-0.22984336
11:31:37:564;-1.1492168;10.342952;-0.22984336
11:31:37:564;-1.1492168;10.342952;-0.22984336
11:31:37:564;-1.1492168;10.342952;-0.22984336
11:31:37:564;-1.1492168;10.342952;-0.22984336
11:31:37:669;-0.6895301;10.304645;-0.5746084
11:31:37:669;-0.6895301;10.304645;-0.5746084
11:31:37:669;-0.6895301;10.304645;-0.5746084
11:31:37:669;-0.6895301;10.304645;-0.5746084
11:31:37:669;-0.6895301;10.304645;-0.5746084
11:31:37:669;-0.6895301;10.304645;-0.5746084
11:31:37:669;-0.6895301;10.304645;-0.5746084
11:31:37:669;-0.6895301;10.304645;-0.5746084
11:31:37:669;-0.6895301;10.304645;-0.5746084
11:31:37:669;-0.6895301;10.304645;-0.5746084
11:31:37:669;-0.6895301;10.304645;-0.5746084
11:31:37:669;-0.6895301;10.304645;-0.5746084
11:31:37:669;-0.6895301;10.304645;-0.5746084
11:31:37:669;-0.6895301;10.304645;-0.5746084
11:31:37:669;-0.6895301;10.304645;-0.5746084
11:31:37:787;-0.30645782;9.212888;0.11492168
11:31:37:787;-0.30645782;9.212888;0.11492168
11:31:37:787;-0.30645782;9.212888;0.11492168
11:31:37:787;-0.30645782;9.212888;0.11492168
11:31:37:787;-0.30645782;9.212888;0.11492168
11:31:37:787;-0.30645782;9.212888;0.11492168
11:31:37:787;-0.30645782;9.212888;0.11492168
11:31:37:787;-0.30645782;9.212888;0.11492168
11:31:37:787;-0.30645782;9.212888;0.11492168
11:31:37:787;-0.30645782;9.212888;0.11492168
11:31:37:787;-0.30645782;9.212888;0.11492168
11:31:37:787;-0.30645782;9.212888;0.11492168
11:31:37:787;-0.30645782;9.212888;0.11492168
11:31:37:787;-0.30645782;9.212888;0.11492168
11:31:37:891;-0.17238252;10.764331;-1.6280571
11:31:37:891;-0.17238252;10.764331;-1.6280571
11:31:37:891;-0.17238252;10.764331;-1.6280571
11:31:37:891;-0.17238252;10.764331;-1.6280571
11:31:37:891;-0.17238252;10.764331;-1.6280571
11:31:37:891;-0.17238252;10.764331;-1.6280571
11:31:37:891;-0.17238252;10.764331;-1.6280571
11:31:37:891;-0.17238252;10.764331;-1.6280571
11:31:37:891;-0.17238252;10.764331;-1.6280571
11:31:37:891;-0.17238252;10.764331;-1.6280571
11:31:37:891;-0.17238252;10.764331;-1.6280571
11:31:37:891;-0.17238252;10.764331;-1.6280571
11:31:37:891;-0.17238252;10.764331;-1.6280571
11:31:37:891;-0.17238252;10.764331;-1.6280571
11:31:37:891;-0.17238252;10.764331;-1.6280571
11:31:37:891;-0.17238252;10.764331;-1.6280571
11:31:37:891;-0.17238252;10.764331;-1.6280571
11:31:37:891;-0.17238252;10.764331;-1.6280571
11:31:37:891;-0.17238252;10.764331;-1.6280571
11:31:37:891;-0.17238252;10.764331;-1.6280571
11:31:37:891;-0.17238252;10.764331;-1.6280571
11:31:37:891;-0.17238252;10.764331;-1.6280571
11:31:37:891;-0.17238252;10.764331;-1.6280571
11:31:37:891;-0.17238252;10.764331;-1.6280571
11:31:37:891;-0.17238252;10.764331;-1.6280571
11:31:37:891;-0.17238252;10.764331;-1.6280571
11:31:37:891;-0.17238252;10.764331;-1.6280571
11:31:37:891;-0.17238252;10.764331;-1.6280571
11:31:37:891;-0.17238252;10.764331;-1.6280571
11:31:37:891;-0.17238252;10.764331;-1.6280571
11:31:37:891;-0.17238252;10.764331;-1.6280571
11:31:38:135;-0.5746084;9.921572;-0.24899697
11:31:38:135;-0.5746084;9.921572;-0.24899697
11:31:38:135;-0.5746084;9.921572;-0.24899697
11:31:38:135;-0.5746084;9.921572;-0.24899697
11:31:38:135;-0.5746084;9.921572;-0.24899697
11:31:38:135;-0.5746084;9.921572;-0.24899697
11:31:38:135;-0.5746084;9.921572;-0.24899697
11:31:38:135;-0.5746084;9.921572;-0.24899697
11:31:38:135;-0.5746084;9.921572;-0.24899697
11:31:38:135;-0.5746084;9.921572;-0.24899697
11:31:38:135;-0.5746084;9.921572;-0.24899697
11:31:38:135;-0.5746084;9.921572;-0.24899697
11:31:38:135;-0.5746084;9.921572;-0.24899697
11:31:38:238;-0.32561144;11.453861;-0.8810662
11:31:38:238;-0.32561144;11.453861;-0.8810662
11:31:38:238;-0.32561144;11.453861;-0.8810662
11:31:38:238;-0.32561144;11.453861;-0.8810662
11:31:38:238;-0.32561144;11.453861;-0.8810662
11:31:38:238;-0.32561144;11.453861;-0.8810662
11:31:38:238;-0.32561144;11.453861;-0.8810662
11:31:38:238;-0.32561144;11.453861;-0.8810662
11:31:38:238;-0.32561144;11.453861;-0.8810662
11:31:38:238;-0.32561144;11.453861;-0.8810662
11:31:38:238;-0.32561144;11.453861;-0.8810662
11:31:38:238;-0.32561144;11.453861;-0.8810662
11:31:38:238;-0.32561144;11.453861;-0.8810662
11:31:38:238;-0.32561144;11.453861;-0.8810662
11:31:38:238;-0.32561144;11.453861;-0.8810662
11:31:38:357;-1.2066777;9.921572;0.24899697
11:31:38:357;-1.2066777;9.921572;0.24899697
11:31:38:357;-1.2066777;9.921572;0.24899697
11:31:38:357;-1.2066777;9.921572;0.24899697
11:31:38:357;-1.2066777;9.921572;0.24899697
11:31:38:357;-1.2066777;9.921572;0.24899697
11:31:38:357;-1.2066777;9.921572;0.24899697
11:31:38:357;-1.2066777;9.921572;0.24899697
11:31:38:357;-1.2066777;9.921572;0.24899697
11:31:38:357;-1.2066777;9.921572;0.24899697
11:31:38:357;-1.2066777;9.921572;0.24899697
11:31:38:357;-1.2066777;9.921572;0.24899697
11:31:38:357;-1.2066777;9.921572;0.24899697
11:31:38:459;-0.5746084;9.710882;-1.2641385
11:31:38:459;-0.5746084;9.710882;-1.2641385
11:31:38:459;-0.5746084;9.710882;-1.2641385
11:31:38:459;-0.5746084;9.710882;-1.2641385
11:31:38:459;-0.5746084;9.710882;-1.2641385
11:31:38:459;-0.5746084;9.710882;-1.2641385
11:31:38:459;-0.5746084;9.710882;-1.2641385
11:31:38:459;-0.5746084;9.710882;-1.2641385
11:31:38:459;-0.5746084;9.710882;-1.2641385
11:31:38:459;-0.5746084;9.710882;-1.2641385
11:31:38:459;-0.5746084;9.710882;-1.2641385
11:31:38:459;-0.5746084;9.710882;-1.2641385
11:31:38:459;-0.5746084;9.710882;-1.2641385
11:31:38:459;-0.5746084;9.710882;-1.2641385
11:31:38:569;-0.8619126;9.270349;0.22984336
11:31:38:569;-0.8619126;9.270349;0.22984336
11:31:38:569;-0.8619126;9.270349;0.22984336
11:31:38:569;-0.8619126;9.270349;0.22984336
11:31:38:569;-0.8619126;9.270349;0.22984336
11:31:38:569;-0.8619126;9.270349;0.22984336
11:31:38:569;-0.8619126;9.270349;0.22984336
11:31:38:569;-0.8619126;9.270349;0.22984336
11:31:38:569;-0.8619126;9.270349;0.22984336
11:31:38:569;-0.8619126;9.270349;0.22984336
11:31:38:569;-0.8619126;9.270349;0.22984336
11:31:38:569;-0.8619126;9.270349;0.22984336
11:31:38:569;-0.8619126;9.270349;0.22984336
11:31:38:671;-0.7086837;10.457873;-0.32561144
11:31:38:671;-0.7086837;10.457873;-0.32561144
11:31:38:671;-0.7086837;10.457873;-0.32561144
11:31:38:671;-0.7086837;10.457873;-0.32561144
11:31:38:671;-0.7086837;10.457873;-0.32561144
11:31:38:671;-0.7086837;10.457873;-0.32561144
11:31:38:671;-0.7086837;10.457873;-0.32561144
11:31:38:671;-0.7086837;10.457873;-0.32561144
11:31:38:671;-0.7086837;10.457873;-0.32561144
11:31:38:671;-0.7086837;10.457873;-0.32561144
11:31:38:671;-0.7086837;10.457873;-0.32561144
11:31:38:671;-0.7086837;10.457873;-0.32561144
11:31:38:671;-0.7086837;10.457873;-0.32561144
11:31:38:671;-0.7086837;10.457873;-0.32561144
11:31:38:671;-0.7086837;10.457873;-0.32561144
11:31:38:671;-0.7086837;10.457873;-0.32561144
11:31:38:671;-0.7086837;10.457873;-0.32561144
11:31:38:671;-0.7086837;10.457873;-0.32561144
11:31:38:671;-0.7086837;10.457873;-0.32561144
11:31:38:819;0.34476504;9.136273;-0.51714754
11:31:38:819;0.34476504;9.136273;-0.51714754
11:31:38:819;0.34476504;9.136273;-0.51714754
11:31:38:819;0.34476504;9.136273;-0.51714754
11:31:38:819;0.34476504;9.136273;-0.51714754
11:31:38:819;0.34476504;9.136273;-0.51714754
11:31:38:819;0.34476504;9.136273;-0.51714754
11:31:38:819;0.34476504;9.136273;-0.51714754
11:31:38:819;0.34476504;9.136273;-0.51714754
11:31:38:819;0.34476504;9.136273;-0.51714754
11:31:38:819;0.34476504;9.136273;-0.51714754
11:31:38:819;0.34476504;9.136273;-0.51714754
11:31:38:819;0.34476504;9.136273;-0.51714754
11:31:38:819;0.34476504;9.136273;-0.51714754
11:31:38:924;-0.2873042;10.170568;-0.82360536
11:31:38:924;-0.2873042;10.170568;-0.82360536
11:31:38:924;-0.2873042;10.170568;-0.82360536
11:31:38:924;-0.2873042;10.170568;-0.82360536
11:31:38:924;-0.2873042;10.170568;-0.82360536
11:31:38:924;-0.2873042;10.170568;-0.82360536
11:31:38:924;-0.2873042;10.170568;-0.82360536
11:31:38:924;-0.2873042;10.170568;-0.82360536
11:31:38:924;-0.2873042;10.170568;-0.82360536
11:31:38:924;-0.2873042;10.170568;-0.82360536
11:31:38:924;-0.2873042;10.170568;-0.82360536
11:31:38:924;-0.2873042;10.170568;-0.82360536
11:31:38:924;-0.2873042;10.170568;-0.82360536
11:31:38:924;-0.2873042;10.170568;-0.82360536
11:31:38:924;-0.2873042;10.170568;-0.82360536
11:31:39:041;-0.80445176;10.860099;-0.6703765
11:31:39:041;-0.80445176;10.860099;-0.6703765
11:31:39:041;-0.80445176;10.860099;-0.6703765
11:31:39:041;-0.80445176;10.860099;-0.6703765
11:31:39:041;-0.80445176;10.860099;-0.6703765
11:31:39:041;-0.80445176;10.860099;-0.6703765
11:31:39:041;-0.80445176;10.860099;-0.6703765
11:31:39:041;-0.80445176;10.860099;-0.6703765
11:31:39:041;-0.80445176;10.860099;-0.6703765
11:31:39:041;-0.80445176;10.860099;-0.6703765
11:31:39:041;-0.80445176;10.860099;-0.6703765
11:31:39:041;-0.80445176;10.860099;-0.6703765
11:31:39:041;-0.80445176;10.860099;-0.6703765
11:31:39:041;-0.80445176;10.860099;-0.6703765
11:31:39:041;-0.80445176;10.860099;-0.6703765
11:31:39:158;-0.1340753;9.576807;-0.4213795
11:31:39:158;-0.1340753;9.576807;-0.4213795
11:31:39:158;-0.1340753;9.576807;-0.4213795
11:31:39:158;-0.1340753;9.576807;-0.4213795
11:31:39:158;-0.1340753;9.576807;-0.4213795
11:31:39:158;-0.1340753;9.576807;-0.4213795
11:31:39:158;-0.1340753;9.576807;-0.4213795
11:31:39:158;-0.1340753;9.576807;-0.4213795
11:31:39:158;-0.1340753;9.576807;-0.4213795
11:31:39:158;-0.1340753;9.576807;-0.4213795
11:31:39:158;-0.1340753;9.576807;-0.4213795
11:31:39:158;-0.1340753;9.576807;-0.4213795
11:31:39:158;-0.1340753;9.576807;-0.4213795
11:31:39:262;0.038307227;11.33894;-1.2258313
11:31:39:262;0.038307227;11.33894;-1.2258313
11:31:39:262;0.038307227;11.33894;-1.2258313
11:31:39:262;0.038307227;11.33894;-1.2258313
11:31:39:262;0.038307227;11.33894;-1.2258313
11:31:39:262;0.038307227;11.33894;-1.2258313
11:31:39:262;0.038307227;11.33894;-1.2258313
11:31:39:262;0.038307227;11.33894;-1.2258313
11:31:39:262;0.038307227;11.33894;-1.2258313
11:31:39:262;0.038307227;11.33894;-1.2258313
11:31:39:262;0.038307227;11.33894;-1.2258313
11:31:39:262;0.038307227;11.33894;-1.2258313
11:31:39:262;0.038307227;11.33894;-1.2258313
11:31:39:363;-0.17238252;10.170568;-0.11492168
11:31:39:363;-0.17238252;10.170568;-0.11492168
11:31:39:363;-0.17238252;10.170568;-0.11492168
11:31:39:363;-0.17238252;10.170568;-0.11492168
11:31:39:363;-0.17238252;10.170568;-0.11492168
11:31:39:363;-0.17238252;10.170568;-0.11492168
11:31:39:363;-0.17238252;10.170568;-0.11492168
11:31:39:363;-0.17238252;10.170568;-0.11492168
11:31:39:363;-0.17238252;10.170568;-0.11492168
11:31:39:363;-0.17238252;10.170568;-0.11492168
11:31:39:363;-0.17238252;10.170568;-0.11492168
11:31:39:363;-0.17238252;10.170568;-0.11492168
11:31:39:363;-0.17238252;10.170568;-0.11492168
11:31:39:467;-0.45968673;9.500193;0.2873042
11:31:39:467;-0.45968673;9.500193;0.2873042
11:31:39:467;-0.45968673;9.500193;0.2873042
11:31:39:467;-0.45968673;9.500193;0.2873042
11:31:39:467;-0.45968673;9.500193;0.2873042
11:31:39:467;-0.45968673;9.500193;0.2873042
11:31:39:467;-0.45968673;9.500193;0.2873042
11:31:39:467;-0.45968673;9.500193;0.2873042
11:31:39:467;-0.45968673;9.500193;0.2873042
11:31:39:467;-0.45968673;9.500193;0.2873042
11:31:39:467;-0.45968673;9.500193;0.2873042
11:31:39:467;-0.45968673;9.500193;0.2873042
11:31:39:467;-0.45968673;9.500193;0.2873042
11:31:39:568;-0.11492168;11.147403;-1.0534488
11:31:39:568;-0.11492168;11.147403;-1.0534488
11:31:39:568;-0.11492168;11.147403;-1.0534488
11:31:39:568;-0.11492168;11.147403;-1.0534488
11:31:39:568;-0.11492168;11.147403;-1.0534488
11:31:39:568;-0.11492168;11.147403;-1.0534488
11:31:39:568;-0.11492168;11.147403;-1.0534488
11:31:39:568;-0.11492168;11.147403;-1.0534488
11:31:39:568;-0.11492168;11.147403;-1.0534488
11:31:39:568;-0.11492168;11.147403;-1.0534488
11:31:39:568;-0.11492168;11.147403;-1.0534488
11:31:39:568;-0.11492168;11.147403;-1.0534488
11:31:39:568;-0.11492168;11.147403;-1.0534488
11:31:39:568;-0.11492168;11.147403;-1.0534488
11:31:39:568;-0.11492168;11.147403;-1.0534488
11:31:39:686;-0.38307226;9.902418;0.34476504
11:31:39:686;-0.38307226;9.902418;0.34476504
11:31:39:686;-0.38307226;9.902418;0.34476504
11:31:39:686;-0.38307226;9.902418;0.34476504
11:31:39:686;-0.38307226;9.902418;0.34476504
11:31:39:686;-0.38307226;9.902418;0.34476504
11:31:39:686;-0.38307226;9.902418;0.34476504
11:31:39:686;-0.38307226;9.902418;0.34476504
11:31:39:686;-0.38307226;9.902418;0.34476504
11:31:39:686;-0.38307226;9.902418;0.34476504
11:31:39:686;-0.38307226;9.902418;0.34476504
11:31:39:686;-0.38307226;9.902418;0.34476504
11:31:39:686;-0.38307226;9.902418;0.34476504
11:31:39:686;-0.38307226;9.902418;0.34476504
11:31:39:686;-0.38307226;9.902418;0.34476504
11:31:39:686;-0.38307226;9.902418;0.34476504
11:31:39:806;-0.4405331;10.0748005;0.1340753
11:31:39:806;-0.4405331;10.0748005;0.1340753
11:31:39:806;-0.4405331;10.0748005;0.1340753
11:31:39:806;-0.4405331;10.0748005;0.1340753
11:31:39:806;-0.4405331;10.0748005;0.1340753
11:31:39:806;-0.4405331;10.0748005;0.1340753
11:31:39:806;-0.4405331;10.0748005;0.1340753
11:31:39:806;-0.4405331;10.0748005;0.1340753
11:31:39:806;-0.4405331;10.0748005;0.1340753
11:31:39:806;-0.4405331;10.0748005;0.1340753
11:31:39:806;-0.4405331;10.0748005;0.1340753
11:31:39:806;-0.4405331;10.0748005;0.1340753
11:31:39:806;-0.4405331;10.0748005;0.1340753
11:31:39:806;-0.4405331;10.0748005;0.1340753
11:31:39:806;-0.4405331;10.0748005;0.1340753
11:31:39:926;-0.076614454;9.500193;-0.05746084
11:31:39:926;-0.076614454;9.500193;-0.05746084
11:31:39:926;-0.076614454;9.500193;-0.05746084
11:31:39:926;-0.076614454;9.500193;-0.05746084
11:31:39:926;-0.076614454;9.500193;-0.05746084
11:31:39:926;-0.076614454;9.500193;-0.05746084
11:31:39:926;-0.076614454;9.500193;-0.05746084
11:31:39:926;-0.076614454;9.500193;-0.05746084
11:31:39:926;-0.076614454;9.500193;-0.05746084
11:31:39:926;-0.076614454;9.500193;-0.05746084
11:31:39:926;-0.076614454;9.500193;-0.05746084
11:31:39:926;-0.076614454;9.500193;-0.05746084
11:31:39:926;-0.076614454;9.500193;-0.05746084
11:31:39:926;-0.076614454;9.500193;-0.05746084
11:31:39:926;-0.076614454;9.500193;-0.05746084
11:31:40:044;-0.63206923;10.28549;0.49799395
11:31:40:044;-0.63206923;10.28549;0.49799395
11:31:40:044;-0.63206923;10.28549;0.49799395
11:31:40:044;-0.63206923;10.28549;0.49799395
11:31:40:044;-0.63206923;10.28549;0.49799395
11:31:40:044;-0.63206923;10.28549;0.49799395
11:31:40:044;-0.63206923;10.28549;0.49799395
11:31:40:044;-0.63206923;10.28549;0.49799395
11:31:40:044;-0.63206923;10.28549;0.49799395
11:31:40:044;-0.63206923;10.28549;0.49799395
11:31:40:044;-0.63206923;10.28549;0.49799395
11:31:40:044;-0.63206923;10.28549;0.49799395
11:31:40:044;-0.63206923;10.28549;0.49799395
11:31:40:146;-0.2681506;10.879252;-0.4405331
11:31:40:146;-0.2681506;10.879252;-0.4405331
11:31:40:146;-0.2681506;10.879252;-0.4405331
11:31:40:146;-0.2681506;10.879252;-0.4405331
11:31:40:146;-0.2681506;10.879252;-0.4405331
11:31:40:146;-0.2681506;10.879252;-0.4405331
11:31:40:146;-0.2681506;10.879252;-0.4405331
11:31:40:146;-0.2681506;10.879252;-0.4405331
11:31:40:146;-0.2681506;10.879252;-0.4405331
11:31:40:146;-0.2681506;10.879252;-0.4405331
11:31:40:146;-0.2681506;10.879252;-0.4405331
11:31:40:146;-0.2681506;10.879252;-0.4405331
11:31:40:146;-0.2681506;10.879252;-0.4405331
11:31:40:146;-0.2681506;10.879252;-0.4405331
11:31:40:146;-0.2681506;10.879252;-0.4405331
11:31:40:265;0.45968673;10.553641;-0.38307226
11:31:40:265;0.45968673;10.553641;-0.38307226
11:31:40:265;0.45968673;10.553641;-0.38307226
11:31:40:265;0.45968673;10.553641;-0.38307226
11:31:40:265;0.45968673;10.553641;-0.38307226
11:31:40:265;0.45968673;10.553641;-0.38307226
11:31:40:265;0.45968673;10.553641;-0.38307226
11:31:40:265;0.45968673;10.553641;-0.38307226
11:31:40:265;0.45968673;10.553641;-0.38307226
11:31:40:265;0.45968673;10.553641;-0.38307226
11:31:40:265;0.45968673;10.553641;-0.38307226
11:31:40:265;0.45968673;10.553641;-0.38307226
11:31:40:265;0.45968673;10.553641;-0.38307226
11:31:40:265;0.45968673;10.553641;-0.38307226
11:31:40:265;0.45968673;10.553641;-0.38307226
11:31:40:265;0.45968673;10.553641;-0.38307226
11:31:40:383;0.2873042;10.496181;-0.6895301
11:31:40:383;0.2873042;10.496181;-0.6895301
11:31:40:383;0.2873042;10.496181;-0.6895301
11:31:40:383;0.2873042;10.496181;-0.6895301
11:31:40:383;0.2873042;10.496181;-0.6895301
11:31:40:383;0.2873042;10.496181;-0.6895301
11:31:40:383;0.2873042;10.496181;-0.6895301
11:31:40:383;0.2873042;10.496181;-0.6895301
11:31:40:383;0.2873042;10.496181;-0.6895301
11:31:40:383;0.2873042;10.496181;-0.6895301
11:31:40:383;0.2873042;10.496181;-0.6895301
11:31:40:383;0.2873042;10.496181;-0.6895301
11:31:40:383;0.2873042;10.496181;-0.6895301
11:31:40:383;0.2873042;10.496181;-0.6895301
11:31:40:383;0.2873042;10.496181;-0.6895301
11:31:40:501;0.49799395;9.672575;-0.93852705
11:31:40:501;0.49799395;9.672575;-0.93852705
11:31:40:501;0.49799395;9.672575;-0.93852705
11:31:40:501;0.49799395;9.672575;-0.93852705
11:31:40:501;0.49799395;9.672575;-0.93852705
11:31:40:501;0.49799395;9.672575;-0.93852705
11:31:40:501;0.49799395;9.672575;-0.93852705
11:31:40:501;0.49799395;9.672575;-0.93852705
11:31:40:501;0.49799395;9.672575;-0.93852705
11:31:40:501;0.49799395;9.672575;-0.93852705
11:31:40:501;0.49799395;9.672575;-0.93852705
11:31:40:501;0.49799395;9.672575;-0.93852705
11:31:40:501;0.49799395;9.672575;-0.93852705
11:31:40:606;-0.19153613;9.174581;0.91937345
11:31:40:606;-0.19153613;9.174581;0.91937345
11:31:40:606;-0.19153613;9.174581;0.91937345
11:31:40:606;-0.19153613;9.174581;0.91937345
11:31:40:606;-0.19153613;9.174581;0.91937345
11:31:40:606;-0.19153613;9.174581;0.91937345
11:31:40:606;-0.19153613;9.174581;0.91937345
11:31:40:606;-0.19153613;9.174581;0.91937345
11:31:40:606;-0.19153613;9.174581;0.91937345
11:31:40:606;-0.19153613;9.174581;0.91937345
11:31:40:606;-0.19153613;9.174581;0.91937345
11:31:40:606;-0.19153613;9.174581;0.91937345
11:31:40:606;-0.19153613;9.174581;0.91937345
11:31:40:709;-0.9768343;9.32781;1.6280571
11:31:40:709;-0.9768343;9.32781;1.6280571
11:31:40:709;-0.9768343;9.32781;1.6280571
11:31:40:709;-0.9768343;9.32781;1.6280571
11:31:40:709;-0.9768343;9.32781;1.6280571
11:31:40:709;-0.9768343;9.32781;1.6280571
11:31:40:709;-0.9768343;9.32781;1.6280571
11:31:40:709;-0.9768343;9.32781;1.6280571
11:31:40:709;-0.9768343;9.32781;1.6280571
11:31:40:709;-0.9768343;9.32781;1.6280571
11:31:40:709;-0.9768343;9.32781;1.6280571
11:31:40:709;-0.9768343;9.32781;1.6280571
11:31:40:709;-0.9768343;9.32781;1.6280571
11:31:40:709;-0.9768343;9.32781;1.6280571
11:31:40:709;-0.9768343;9.32781;1.6280571
11:31:40:827;-0.34476504;10.745177;-0.34476504
11:31:40:827;-0.34476504;10.745177;-0.34476504
11:31:40:827;-0.34476504;10.745177;-0.34476504
11:31:40:827;-0.34476504;10.745177;-0.34476504
11:31:40:827;-0.34476504;10.745177;-0.34476504
11:31:40:827;-0.34476504;10.745177;-0.34476504
11:31:40:827;-0.34476504;10.745177;-0.34476504
11:31:40:827;-0.34476504;10.745177;-0.34476504
11:31:40:827;-0.34476504;10.745177;-0.34476504
11:31:40:827;-0.34476504;10.745177;-0.34476504
11:31:40:827;-0.34476504;10.745177;-0.34476504
11:31:40:827;-0.34476504;10.745177;-0.34476504
11:31:40:827;-0.34476504;10.745177;-0.34476504
11:31:40:827;-0.34476504;10.745177;-0.34476504
11:31:40:936;-0.4405331;10.132261;0.2681506
11:31:40:936;-0.4405331;10.132261;0.2681506
11:31:40:936;-0.4405331;10.132261;0.2681506
11:31:40:936;-0.4405331;10.132261;0.2681506
11:31:40:936;-0.4405331;10.132261;0.2681506
11:31:40:936;-0.4405331;10.132261;0.2681506
11:31:40:936;-0.4405331;10.132261;0.2681506
11:31:40:936;-0.4405331;10.132261;0.2681506
11:31:40:936;-0.4405331;10.132261;0.2681506
11:31:40:936;-0.4405331;10.132261;0.2681506
11:31:40:936;-0.4405331;10.132261;0.2681506
11:31:40:936;-0.4405331;10.132261;0.2681506
11:31:40:936;-0.4405331;10.132261;0.2681506
11:31:40:936;-0.4405331;10.132261;0.2681506
11:31:40:936;-0.4405331;10.132261;0.2681506
11:31:40:936;-0.4405331;10.132261;0.2681506
11:31:41:060;-1.2449849;9.998186;0.842759
11:31:41:060;-1.2449849;9.998186;0.842759
11:31:41:060;-1.2449849;9.998186;0.842759
11:31:41:060;-1.2449849;9.998186;0.842759
11:31:41:060;-1.2449849;9.998186;0.842759
11:31:41:060;-1.2449849;9.998186;0.842759
11:31:41:060;-1.2449849;9.998186;0.842759
11:31:41:060;-1.2449849;9.998186;0.842759
11:31:41:060;-1.2449849;9.998186;0.842759
11:31:41:060;-1.2449849;9.998186;0.842759
11:31:41:060;-1.2449849;9.998186;0.842759
11:31:41:060;-1.2449849;9.998186;0.842759
11:31:41:060;-1.2449849;9.998186;0.842759
11:31:41:163;-0.61291564;10.151415;-0.7469909
11:31:41:163;-0.61291564;10.151415;-0.7469909
11:31:41:163;-0.61291564;10.151415;-0.7469909
11:31:41:163;-0.61291564;10.151415;-0.7469909
11:31:41:163;-0.61291564;10.151415;-0.7469909
11:31:41:163;-0.61291564;10.151415;-0.7469909
11:31:41:163;-0.61291564;10.151415;-0.7469909
11:31:41:163;-0.61291564;10.151415;-0.7469909
11:31:41:163;-0.61291564;10.151415;-0.7469909
11:31:41:163;-0.61291564;10.151415;-0.7469909
11:31:41:163;-0.61291564;10.151415;-0.7469909
11:31:41:163;-0.61291564;10.151415;-0.7469909
11:31:41:163;-0.61291564;10.151415;-0.7469909
11:31:41:163;-0.61291564;10.151415;-0.7469909
11:31:41:271;0.4405331;8.255207;0.63206923
11:31:41:271;0.4405331;8.255207;0.63206923
11:31:41:271;0.4405331;8.255207;0.63206923
11:31:41:271;0.4405331;8.255207;0.63206923
11:31:41:271;0.4405331;8.255207;0.63206923
11:31:41:271;0.4405331;8.255207;0.63206923
11:31:41:271;0.4405331;8.255207;0.63206923
11:31:41:271;0.4405331;8.255207;0.63206923
11:31:41:271;0.4405331;8.255207;0.63206923
11:31:41:271;0.4405331;8.255207;0.63206923
11:31:41:271;0.4405331;8.255207;0.63206923
11:31:41:271;0.4405331;8.255207;0.63206923
11:31:41:271;0.4405331;8.255207;0.63206923
11:31:41:271;0.4405331;8.255207;0.63206923
11:31:41:271;0.4405331;8.255207;0.63206923
11:31:41:384;-0.40222588;10.726024;-0.4405331
11:31:41:384;-0.40222588;10.726024;-0.4405331
11:31:41:384;-0.40222588;10.726024;-0.4405331
11:31:41:384;-0.40222588;10.726024;-0.4405331
11:31:41:384;-0.40222588;10.726024;-0.4405331
11:31:41:384;-0.40222588;10.726024;-0.4405331
11:31:41:384;-0.40222588;10.726024;-0.4405331
11:31:41:384;-0.40222588;10.726024;-0.4405331
11:31:41:384;-0.40222588;10.726024;-0.4405331
11:31:41:384;-0.40222588;10.726024;-0.4405331
11:31:41:384;-0.40222588;10.726024;-0.4405331
11:31:41:384;-0.40222588;10.726024;-0.4405331
11:31:41:384;-0.40222588;10.726024;-0.4405331
11:31:41:384;-0.40222588;10.726024;-0.4405331
11:31:41:384;-0.40222588;10.726024;-0.4405331
11:31:41:504;0.038307227;10.534488;-0.9959879
11:31:41:504;0.038307227;10.534488;-0.9959879
11:31:41:504;0.038307227;10.534488;-0.9959879
11:31:41:504;0.038307227;10.534488;-0.9959879
11:31:41:504;0.038307227;10.534488;-0.9959879
11:31:41:504;0.038307227;10.534488;-0.9959879
11:31:41:504;0.038307227;10.534488;-0.9959879
11:31:41:504;0.038307227;10.534488;-0.9959879
11:31:41:504;0.038307227;10.534488;-0.9959879
11:31:41:504;0.038307227;10.534488;-0.9959879
11:31:41:504;0.038307227;10.534488;-0.9959879
11:31:41:504;0.038307227;10.534488;-0.9959879
11:31:41:504;0.038307227;10.534488;-0.9959879
11:31:41:609;-0.91937345;9.9790325;0.32561144
11:31:41:609;-0.91937345;9.9790325;0.32561144
11:31:41:609;-0.91937345;9.9790325;0.32561144
11:31:41:609;-0.91937345;9.9790325;0.32561144
11:31:41:609;-0.91937345;9.9790325;0.32561144
11:31:41:609;-0.91937345;9.9790325;0.32561144
11:31:41:609;-0.91937345;9.9790325;0.32561144
11:31:41:609;-0.91937345;9.9790325;0.32561144
11:31:41:609;-0.91937345;9.9790325;0.32561144
11:31:41:609;-0.91937345;9.9790325;0.32561144
11:31:41:609;-0.91937345;9.9790325;0.32561144
11:31:41:609;-0.91937345;9.9790325;0.32561144
11:31:41:609;-0.91937345;9.9790325;0.32561144
11:31:41:609;-0.91937345;9.9790325;0.32561144
11:31:41:609;-0.91937345;9.9790325;0.32561144
11:31:41:723;-0.6895301;10.572795;0.21068975
11:31:41:723;-0.6895301;10.572795;0.21068975
11:31:41:723;-0.6895301;10.572795;0.21068975
11:31:41:723;-0.6895301;10.572795;0.21068975
11:31:41:723;-0.6895301;10.572795;0.21068975
11:31:41:723;-0.6895301;10.572795;0.21068975
11:31:41:723;-0.6895301;10.572795;0.21068975
11:31:41:723;-0.6895301;10.572795;0.21068975
11:31:41:723;-0.6895301;10.572795;0.21068975
11:31:41:723;-0.6895301;10.572795;0.21068975
11:31:41:723;-0.6895301;10.572795;0.21068975
11:31:41:723;-0.6895301;10.572795;0.21068975
11:31:41:723;-0.6895301;10.572795;0.21068975
11:31:41:723;-0.6895301;10.572795;0.21068975
11:31:41:723;-0.6895301;10.572795;0.21068975
11:31:41:840;-0.842759;10.189722;0.019153614
11:31:41:840;-0.842759;10.189722;0.019153614
11:31:41:840;-0.842759;10.189722;0.019153614
11:31:41:840;-0.842759;10.189722;0.019153614
11:31:41:840;-0.842759;10.189722;0.019153614
11:31:41:840;-0.842759;10.189722;0.019153614
11:31:41:840;-0.842759;10.189722;0.019153614
11:31:41:840;-0.842759;10.189722;0.019153614
11:31:41:840;-0.842759;10.189722;0.019153614
11:31:41:840;-0.842759;10.189722;0.019153614
11:31:41:840;-0.842759;10.189722;0.019153614
11:31:41:840;-0.842759;10.189722;0.019153614
11:31:41:840;-0.842759;10.189722;0.019153614
11:31:41:943;-0.59376204;9.864111;0.47884035
11:31:41:943;-0.59376204;9.864111;0.47884035
11:31:41:943;-0.59376204;9.864111;0.47884035
11:31:41:943;-0.59376204;9.864111;0.47884035
11:31:41:943;-0.59376204;9.864111;0.47884035
11:31:41:943;-0.59376204;9.864111;0.47884035
11:31:41:943;-0.59376204;9.864111;0.47884035
11:31:41:943;-0.59376204;9.864111;0.47884035
11:31:41:943;-0.59376204;9.864111;0.47884035
11:31:41:943;-0.59376204;9.864111;0.47884035
11:31:41:943;-0.59376204;9.864111;0.47884035
11:31:41:943;-0.59376204;9.864111;0.47884035
11:31:41:943;-0.59376204;9.864111;0.47884035
11:31:41:943;-0.59376204;9.864111;0.47884035
11:31:41:943;-0.59376204;9.864111;0.47884035
11:31:42:059;-0.51714754;9.442732;0.5554548
11:31:42:059;-0.51714754;9.442732;0.5554548
11:31:42:059;-0.51714754;9.442732;0.5554548
11:31:42:059;-0.51714754;9.442732;0.5554548
11:31:42:059;-0.51714754;9.442732;0.5554548
11:31:42:059;-0.51714754;9.442732;0.5554548
11:31:42:059;-0.51714754;9.442732;0.5554548
11:31:42:059;-0.51714754;9.442732;0.5554548
11:31:42:059;-0.51714754;9.442732;0.5554548
11:31:42:059;-0.51714754;9.442732;0.5554548
11:31:42:059;-0.51714754;9.442732;0.5554548
11:31:42:059;-0.51714754;9.442732;0.5554548
11:31:42:059;-0.51714754;9.442732;0.5554548
11:31:42:163;-1.0726024;10.247183;0.34476504
11:31:42:163;-1.0726024;10.247183;0.34476504
11:31:42:163;-1.0726024;10.247183;0.34476504
11:31:42:163;-1.0726024;10.247183;0.34476504
11:31:42:163;-1.0726024;10.247183;0.34476504
11:31:42:163;-1.0726024;10.247183;0.34476504
11:31:42:163;-1.0726024;10.247183;0.34476504
11:31:42:163;-1.0726024;10.247183;0.34476504
11:31:42:163;-1.0726024;10.247183;0.34476504
11:31:42:163;-1.0726024;10.247183;0.34476504
11:31:42:163;-1.0726024;10.247183;0.34476504
11:31:42:163;-1.0726024;10.247183;0.34476504
11:31:42:163;-1.0726024;10.247183;0.34476504
11:31:42:163;-1.0726024;10.247183;0.34476504
11:31:42:163;-1.0726024;10.247183;0.34476504
11:31:42:280;-0.78529817;9.710882;0.6895301
11:31:42:280;-0.78529817;9.710882;0.6895301
11:31:42:280;-0.78529817;9.710882;0.6895301
11:31:42:280;-0.78529817;9.710882;0.6895301
11:31:42:280;-0.78529817;9.710882;0.6895301
11:31:42:280;-0.78529817;9.710882;0.6895301
11:31:42:280;-0.78529817;9.710882;0.6895301
11:31:42:280;-0.78529817;9.710882;0.6895301
11:31:42:280;-0.78529817;9.710882;0.6895301
11:31:42:280;-0.78529817;9.710882;0.6895301
11:31:42:280;-0.78529817;9.710882;0.6895301
11:31:42:280;-0.78529817;9.710882;0.6895301
11:31:42:280;-0.78529817;9.710882;0.6895301
11:31:42:280;-0.78529817;9.710882;0.6895301
11:31:42:280;-0.78529817;9.710882;0.6895301
11:31:42:398;-0.7278373;9.404425;1.3215994
11:31:42:398;-0.7278373;9.404425;1.3215994
11:31:42:398;-0.7278373;9.404425;1.3215994
11:31:42:398;-0.7278373;9.404425;1.3215994
11:31:42:398;-0.7278373;9.404425;1.3215994
11:31:42:398;-0.7278373;9.404425;1.3215994
11:31:42:398;-0.7278373;9.404425;1.3215994
11:31:42:398;-0.7278373;9.404425;1.3215994
11:31:42:398;-0.7278373;9.404425;1.3215994
11:31:42:398;-0.7278373;9.404425;1.3215994
11:31:42:398;-0.7278373;9.404425;1.3215994
11:31:42:398;-0.7278373;9.404425;1.3215994
11:31:42:398;-0.7278373;9.404425;1.3215994
11:31:42:398;-0.7278373;9.404425;1.3215994
11:31:42:398;-0.7278373;9.404425;1.3215994
11:31:42:515;-0.6895301;9.864111;-0.019153614
11:31:42:515;-0.6895301;9.864111;-0.019153614
11:31:42:515;-0.6895301;9.864111;-0.019153614
11:31:42:515;-0.6895301;9.864111;-0.019153614
11:31:42:515;-0.6895301;9.864111;-0.019153614
11:31:42:515;-0.6895301;9.864111;-0.019153614
11:31:42:515;-0.6895301;9.864111;-0.019153614
11:31:42:515;-0.6895301;9.864111;-0.019153614
11:31:42:515;-0.6895301;9.864111;-0.019153614
11:31:42:515;-0.6895301;9.864111;-0.019153614
11:31:42:515;-0.6895301;9.864111;-0.019153614
11:31:42:515;-0.6895301;9.864111;-0.019153614
11:31:42:515;-0.6895301;9.864111;-0.019153614
11:31:42:515;-0.6895301;9.864111;-0.019153614
11:31:42:515;-0.6895301;9.864111;-0.019153614
11:31:42:515;-0.6895301;9.864111;-0.019153614
11:31:42:634;-0.4405331;9.423578;1.0342951
11:31:42:634;-0.4405331;9.423578;1.0342951
11:31:42:634;-0.4405331;9.423578;1.0342951
11:31:42:634;-0.4405331;9.423578;1.0342951
11:31:42:634;-0.4405331;9.423578;1.0342951
11:31:42:634;-0.4405331;9.423578;1.0342951
11:31:42:634;-0.4405331;9.423578;1.0342951
11:31:42:634;-0.4405331;9.423578;1.0342951
11:31:42:634;-0.4405331;9.423578;1.0342951
11:31:42:634;-0.4405331;9.423578;1.0342951
11:31:42:634;-0.4405331;9.423578;1.0342951
11:31:42:634;-0.4405331;9.423578;1.0342951
11:31:42:634;-0.4405331;9.423578;1.0342951
11:31:42:634;-0.4405331;9.423578;1.0342951
11:31:42:634;-0.4405331;9.423578;1.0342951
11:31:42:756;-0.22984336;9.883265;1.5131354
11:31:42:756;-0.22984336;9.883265;1.5131354
11:31:42:756;-0.22984336;9.883265;1.5131354
11:31:42:756;-0.22984336;9.883265;1.5131354
11:31:42:756;-0.22984336;9.883265;1.5131354
11:31:42:756;-0.22984336;9.883265;1.5131354
11:31:42:756;-0.22984336;9.883265;1.5131354
11:31:42:756;-0.22984336;9.883265;1.5131354
11:31:42:756;-0.22984336;9.883265;1.5131354
11:31:42:756;-0.22984336;9.883265;1.5131354
11:31:42:756;-0.22984336;9.883265;1.5131354
11:31:42:756;-0.22984336;9.883265;1.5131354
11:31:42:756;-0.22984336;9.883265;1.5131354
11:31:42:756;-0.22984336;9.883265;1.5131354
11:31:42:756;-0.22984336;9.883265;1.5131354
11:31:42:875;-0.91937345;10.342952;0.2873042
11:31:42:875;-0.91937345;10.342952;0.2873042
11:31:42:875;-0.91937345;10.342952;0.2873042
11:31:42:875;-0.91937345;10.342952;0.2873042
11:31:42:875;-0.91937345;10.342952;0.2873042
11:31:42:875;-0.91937345;10.342952;0.2873042
11:31:42:875;-0.91937345;10.342952;0.2873042
11:31:42:875;-0.91937345;10.342952;0.2873042
11:31:42:875;-0.91937345;10.342952;0.2873042
11:31:42:875;-0.91937345;10.342952;0.2873042
11:31:42:875;-0.91937345;10.342952;0.2873042
11:31:42:875;-0.91937345;10.342952;0.2873042
11:31:42:875;-0.91937345;10.342952;0.2873042
11:31:42:976;-0.5746084;9.653421;0.38307226
11:31:42:976;-0.5746084;9.653421;0.38307226
11:31:42:976;-0.5746084;9.653421;0.38307226
11:31:42:976;-0.5746084;9.653421;0.38307226
11:31:42:976;-0.5746084;9.653421;0.38307226
11:31:42:976;-0.5746084;9.653421;0.38307226
11:31:42:976;-0.5746084;9.653421;0.38307226
11:31:42:976;-0.5746084;9.653421;0.38307226
11:31:42:976;-0.5746084;9.653421;0.38307226
11:31:42:976;-0.5746084;9.653421;0.38307226
11:31:42:976;-0.5746084;9.653421;0.38307226
11:31:42:976;-0.5746084;9.653421;0.38307226
11:31:42:976;-0.5746084;9.653421;0.38307226
11:31:42:976;-0.5746084;9.653421;0.38307226
11:31:42:976;-0.5746084;9.653421;0.38307226
11:31:42:976;-0.5746084;9.653421;0.38307226
11:31:42:976;-0.5746084;9.653421;0.38307226
11:31:42:976;-0.5746084;9.653421;0.38307226
11:31:42:976;-0.5746084;9.653421;0.38307226
11:31:42:976;-0.5746084;9.653421;0.38307226
11:31:42:976;-0.5746084;9.653421;0.38307226
11:31:42:976;-0.5746084;9.653421;0.38307226
11:31:42:976;-0.5746084;9.653421;0.38307226
11:31:42:976;-0.5746084;9.653421;0.38307226
11:31:42:976;-0.5746084;9.653421;0.38307226
11:31:42:976;-0.5746084;9.653421;0.38307226
11:31:42:976;-0.5746084;9.653421;0.38307226
11:31:42:976;-0.5746084;9.653421;0.38307226
11:31:42:976;-0.5746084;9.653421;0.38307226
11:31:42:976;-0.5746084;9.653421;0.38307226
11:31:42:976;-0.5746084;9.653421;0.38307226
11:31:42:976;-0.5746084;9.653421;0.38307226
11:31:42:976;-0.5746084;9.653421;0.38307226
11:31:42:976;-0.5746084;9.653421;0.38307226
11:31:42:976;-0.5746084;9.653421;0.38307226
11:31:42:976;-0.5746084;9.653421;0.38307226
11:31:42:976;-0.5746084;9.653421;0.38307226
11:31:42:976;-0.5746084;9.653421;0.38307226
11:31:42:976;-0.5746084;9.653421;0.38307226
11:31:42:976;-0.5746084;9.653421;0.38307226
11:31:43:287;-0.5746084;9.059659;0.842759
11:31:43:287;-0.5746084;9.059659;0.842759
11:31:43:287;-0.5746084;9.059659;0.842759
11:31:43:287;-0.5746084;9.059659;0.842759
11:31:43:287;-0.5746084;9.059659;0.842759
11:31:43:287;-0.5746084;9.059659;0.842759
11:31:43:287;-0.5746084;9.059659;0.842759
11:31:43:287;-0.5746084;9.059659;0.842759
11:31:43:287;-0.5746084;9.059659;0.842759
11:31:43:287;-0.5746084;9.059659;0.842759
11:31:43:287;-0.5746084;9.059659;0.842759
11:31:43:287;-0.5746084;9.059659;0.842759
11:31:43:287;-0.5746084;9.059659;0.842759
11:31:43:287;-0.5746084;9.059659;0.842759
11:31:43:287;-0.5746084;9.059659;0.842759
11:31:43:406;-1.340753;9.595961;1.2449849
11:31:43:406;-1.340753;9.595961;1.2449849
11:31:43:406;-1.340753;9.595961;1.2449849
11:31:43:406;-1.340753;9.595961;1.2449849
11:31:43:406;-1.340753;9.595961;1.2449849
11:31:43:406;-1.340753;9.595961;1.2449849
11:31:43:406;-1.340753;9.595961;1.2449849
11:31:43:406;-1.340753;9.595961;1.2449849
11:31:43:406;-1.340753;9.595961;1.2449849
11:31:43:406;-1.340753;9.595961;1.2449849
11:31:43:406;-1.340753;9.595961;1.2449849
11:31:43:406;-1.340753;9.595961;1.2449849
11:31:43:406;-1.340753;9.595961;1.2449849
11:31:43:406;-1.340753;9.595961;1.2449849
11:31:43:406;-1.340753;9.595961;1.2449849
11:31:43:519;-0.7086837;10.342952;1.2449849
11:31:43:519;-0.7086837;10.342952;1.2449849
11:31:43:519;-0.7086837;10.342952;1.2449849
11:31:43:519;-0.7086837;10.342952;1.2449849
11:31:43:519;-0.7086837;10.342952;1.2449849
11:31:43:519;-0.7086837;10.342952;1.2449849
11:31:43:519;-0.7086837;10.342952;1.2449849
11:31:43:519;-0.7086837;10.342952;1.2449849
11:31:43:519;-0.7086837;10.342952;1.2449849
11:31:43:519;-0.7086837;10.342952;1.2449849
11:31:43:519;-0.7086837;10.342952;1.2449849
11:31:43:519;-0.7086837;10.342952;1.2449849
11:31:43:519;-0.7086837;10.342952;1.2449849
11:31:43:623;-1.6280571;10.994174;0.7086837
11:31:43:623;-1.6280571;10.994174;0.7086837
11:31:43:623;-1.6280571;10.994174;0.7086837
11:31:43:623;-1.6280571;10.994174;0.7086837
11:31:43:623;-1.6280571;10.994174;0.7086837
11:31:43:623;-1.6280571;10.994174;0.7086837
11:31:43:623;-1.6280571;10.994174;0.7086837
11:31:43:623;-1.6280571;10.994174;0.7086837
11:31:43:623;-1.6280571;10.994174;0.7086837
11:31:43:623;-1.6280571;10.994174;0.7086837
11:31:43:623;-1.6280571;10.994174;0.7086837
11:31:43:623;-1.6280571;10.994174;0.7086837
11:31:43:623;-1.6280571;10.994174;0.7086837
11:31:43:623;-1.6280571;10.994174;0.7086837
11:31:43:729;-1.4939818;10.247183;0.6512229
11:31:43:729;-1.4939818;10.247183;0.6512229
11:31:43:729;-1.4939818;10.247183;0.6512229
11:31:43:729;-1.4939818;10.247183;0.6512229
11:31:43:729;-1.4939818;10.247183;0.6512229
11:31:43:729;-1.4939818;10.247183;0.6512229
11:31:43:729;-1.4939818;10.247183;0.6512229
11:31:43:729;-1.4939818;10.247183;0.6512229
11:31:43:729;-1.4939818;10.247183;0.6512229
11:31:43:729;-1.4939818;10.247183;0.6512229
11:31:43:729;-1.4939818;10.247183;0.6512229
11:31:43:729;-1.4939818;10.247183;0.6512229
11:31:43:729;-1.4939818;10.247183;0.6512229
11:31:43:729;-1.4939818;10.247183;0.6512229
11:31:43:729;-1.4939818;10.247183;0.6512229
11:31:43:729;-1.4939818;10.247183;0.6512229
11:31:43:856;-0.47884035;9.998186;1.4939818
11:31:43:856;-0.47884035;9.998186;1.4939818
11:31:43:856;-0.47884035;9.998186;1.4939818
11:31:43:856;-0.47884035;9.998186;1.4939818
11:31:43:856;-0.47884035;9.998186;1.4939818
11:31:43:856;-0.47884035;9.998186;1.4939818
11:31:43:856;-0.47884035;9.998186;1.4939818
11:31:43:856;-0.47884035;9.998186;1.4939818
11:31:43:856;-0.47884035;9.998186;1.4939818
11:31:43:856;-0.47884035;9.998186;1.4939818
11:31:43:856;-0.47884035;9.998186;1.4939818
11:31:43:856;-0.47884035;9.998186;1.4939818
11:31:43:856;-0.47884035;9.998186;1.4939818
11:31:43:958;-0.7469909;10.266336;0.7278373
11:31:43:958;-0.7469909;10.266336;0.7278373
11:31:43:958;-0.7469909;10.266336;0.7278373
11:31:43:958;-0.7469909;10.266336;0.7278373
11:31:43:958;-0.7469909;10.266336;0.7278373
11:31:43:958;-0.7469909;10.266336;0.7278373
11:31:43:958;-0.7469909;10.266336;0.7278373
11:31:43:958;-0.7469909;10.266336;0.7278373
11:31:43:958;-0.7469909;10.266336;0.7278373
11:31:43:958;-0.7469909;10.266336;0.7278373
11:31:43:958;-0.7469909;10.266336;0.7278373
11:31:43:958;-0.7469909;10.266336;0.7278373
11:31:43:958;-0.7469909;10.266336;0.7278373
11:31:44:059;-0.2873042;9.710882;0.7086837
11:31:44:059;-0.2873042;9.710882;0.7086837
11:31:44:059;-0.2873042;9.710882;0.7086837
11:31:44:059;-0.2873042;9.710882;0.7086837
11:31:44:059;-0.2873042;9.710882;0.7086837
11:31:44:059;-0.2873042;9.710882;0.7086837
11:31:44:059;-0.2873042;9.710882;0.7086837
11:31:44:059;-0.2873042;9.710882;0.7086837
11:31:44:059;-0.2873042;9.710882;0.7086837
11:31:44:059;-0.2873042;9.710882;0.7086837
11:31:44:059;-0.2873042;9.710882;0.7086837
11:31:44:059;-0.2873042;9.710882;0.7086837
11:31:44:059;-0.2873042;9.710882;0.7086837
11:31:44:164;-0.59376204;10.821792;0.7469909
11:31:44:164;-0.59376204;10.821792;0.7469909
11:31:44:164;-0.59376204;10.821792;0.7469909
11:31:44:164;-0.59376204;10.821792;0.7469909
11:31:44:164;-0.59376204;10.821792;0.7469909
11:31:44:164;-0.59376204;10.821792;0.7469909
11:31:44:164;-0.59376204;10.821792;0.7469909
11:31:44:164;-0.59376204;10.821792;0.7469909
11:31:44:164;-0.59376204;10.821792;0.7469909
11:31:44:164;-0.59376204;10.821792;0.7469909
11:31:44:164;-0.59376204;10.821792;0.7469909
11:31:44:164;-0.59376204;10.821792;0.7469909
11:31:44:164;-0.59376204;10.821792;0.7469909
11:31:44:164;-0.59376204;10.821792;0.7469909
11:31:44:164;-0.59376204;10.821792;0.7469909
11:31:44:279;-0.2681506;10.208876;-0.30645782
11:31:44:279;-0.2681506;10.208876;-0.30645782
11:31:44:279;-0.2681506;10.208876;-0.30645782
11:31:44:279;-0.2681506;10.208876;-0.30645782
11:31:44:279;-0.2681506;10.208876;-0.30645782
11:31:44:279;-0.2681506;10.208876;-0.30645782
11:31:44:279;-0.2681506;10.208876;-0.30645782
11:31:44:279;-0.2681506;10.208876;-0.30645782
11:31:44:279;-0.2681506;10.208876;-0.30645782
11:31:44:279;-0.2681506;10.208876;-0.30645782
11:31:44:279;-0.2681506;10.208876;-0.30645782
11:31:44:279;-0.2681506;10.208876;-0.30645782
11:31:44:279;-0.2681506;10.208876;-0.30645782
11:31:44:279;-0.2681506;10.208876;-0.30645782
11:31:44:279;-0.2681506;10.208876;-0.30645782
11:31:44:393;-0.36391866;10.247183;0.095768064
11:31:44:393;-0.36391866;10.247183;0.095768064
11:31:44:393;-0.36391866;10.247183;0.095768064
11:31:44:393;-0.36391866;10.247183;0.095768064
11:31:44:393;-0.36391866;10.247183;0.095768064
11:31:44:393;-0.36391866;10.247183;0.095768064
11:31:44:393;-0.36391866;10.247183;0.095768064
11:31:44:393;-0.36391866;10.247183;0.095768064
11:31:44:393;-0.36391866;10.247183;0.095768064
11:31:44:393;-0.36391866;10.247183;0.095768064
11:31:44:393;-0.36391866;10.247183;0.095768064
11:31:44:393;-0.36391866;10.247183;0.095768064
11:31:44:393;-0.36391866;10.247183;0.095768064
11:31:44:393;-0.36391866;10.247183;0.095768064
11:31:44:393;-0.36391866;10.247183;0.095768064
11:31:44:513;-0.6512229;10.802638;-0.38307226
11:31:44:513;-0.6512229;10.802638;-0.38307226
11:31:44:513;-0.6512229;10.802638;-0.38307226
11:31:44:513;-0.6512229;10.802638;-0.38307226
11:31:44:513;-0.6512229;10.802638;-0.38307226
11:31:44:513;-0.6512229;10.802638;-0.38307226
11:31:44:513;-0.6512229;10.802638;-0.38307226
11:31:44:513;-0.6512229;10.802638;-0.38307226
11:31:44:513;-0.6512229;10.802638;-0.38307226
11:31:44:513;-0.6512229;10.802638;-0.38307226
11:31:44:513;-0.6512229;10.802638;-0.38307226
11:31:44:513;-0.6512229;10.802638;-0.38307226
11:31:44:513;-0.6512229;10.802638;-0.38307226
11:31:44:513;-0.6512229;10.802638;-0.38307226
11:31:44:513;-0.6512229;10.802638;-0.38307226
11:31:44:631;-0.5363012;9.844957;0.9959879
11:31:44:631;-0.5363012;9.844957;0.9959879
11:31:44:631;-0.5363012;9.844957;0.9959879
11:31:44:631;-0.5363012;9.844957;0.9959879
11:31:44:631;-0.5363012;9.844957;0.9959879
11:31:44:631;-0.5363012;9.844957;0.9959879
11:31:44:631;-0.5363012;9.844957;0.9959879
11:31:44:631;-0.5363012;9.844957;0.9959879
11:31:44:631;-0.5363012;9.844957;0.9959879
11:31:44:631;-0.5363012;9.844957;0.9959879
11:31:44:631;-0.5363012;9.844957;0.9959879
11:31:44:631;-0.5363012;9.844957;0.9959879
11:31:44:631;-0.5363012;9.844957;0.9959879
11:31:44:631;-0.5363012;9.844957;0.9959879
11:31:44:631;-0.5363012;9.844957;0.9959879
11:31:44:748;0.095768064;9.193734;0.6895301
11:31:44:748;0.095768064;9.193734;0.6895301
11:31:44:748;0.095768064;9.193734;0.6895301
11:31:44:748;0.095768064;9.193734;0.6895301
11:31:44:748;0.095768064;9.193734;0.6895301
11:31:44:748;0.095768064;9.193734;0.6895301
11:31:44:748;0.095768064;9.193734;0.6895301
11:31:44:748;0.095768064;9.193734;0.6895301
11:31:44:748;0.095768064;9.193734;0.6895301
11:31:44:748;0.095768064;9.193734;0.6895301
11:31:44:748;0.095768064;9.193734;0.6895301
11:31:44:748;0.095768064;9.193734;0.6895301
11:31:44:748;0.095768064;9.193734;0.6895301
11:31:44:849;-0.095768064;8.925584;0.6703765
11:31:44:849;-0.095768064;8.925584;0.6703765
11:31:44:849;-0.095768064;8.925584;0.6703765
11:31:44:849;-0.095768064;8.925584;0.6703765
11:31:44:849;-0.095768064;8.925584;0.6703765
11:31:44:849;-0.095768064;8.925584;0.6703765
11:31:44:849;-0.095768064;8.925584;0.6703765
11:31:44:849;-0.095768064;8.925584;0.6703765
11:31:44:849;-0.095768064;8.925584;0.6703765
11:31:44:849;-0.095768064;8.925584;0.6703765
11:31:44:849;-0.095768064;8.925584;0.6703765
11:31:44:849;-0.095768064;8.925584;0.6703765
11:31:44:849;-0.095768064;8.925584;0.6703765
11:31:44:849;-0.095768064;8.925584;0.6703765
11:31:44:849;-0.095768064;8.925584;0.6703765
11:31:44:849;-0.095768064;8.925584;0.6703765
11:31:44:970;-0.59376204;9.787497;0.78529817
11:31:44:970;-0.59376204;9.787497;0.78529817
11:31:44:970;-0.59376204;9.787497;0.78529817
11:31:44:970;-0.59376204;9.787497;0.78529817
11:31:44:970;-0.59376204;9.787497;0.78529817
11:31:44:970;-0.59376204;9.787497;0.78529817
11:31:44:970;-0.59376204;9.787497;0.78529817
11:31:44:970;-0.59376204;9.787497;0.78529817
11:31:44:970;-0.59376204;9.787497;0.78529817
11:31:44:970;-0.59376204;9.787497;0.78529817
11:31:44:970;-0.59376204;9.787497;0.78529817
11:31:44:970;-0.59376204;9.787497;0.78529817
11:31:44:970;-0.59376204;9.787497;0.78529817
11:31:44:970;-0.59376204;9.787497;0.78529817
11:31:44:970;-0.59376204;9.787497;0.78529817
11:31:44:970;-0.59376204;9.787497;0.78529817
11:31:44:970;-0.59376204;9.787497;0.78529817
11:31:44:970;-0.59376204;9.787497;0.78529817
11:31:45:117;-0.63206923;10.534488;0.2873042
11:31:45:117;-0.63206923;10.534488;0.2873042
11:31:45:117;-0.63206923;10.534488;0.2873042
11:31:45:117;-0.63206923;10.534488;0.2873042
11:31:45:117;-0.63206923;10.534488;0.2873042
11:31:45:117;-0.63206923;10.534488;0.2873042
11:31:45:117;-0.63206923;10.534488;0.2873042
11:31:45:117;-0.63206923;10.534488;0.2873042
11:31:45:117;-0.63206923;10.534488;0.2873042
11:31:45:117;-0.63206923;10.534488;0.2873042
11:31:45:117;-0.63206923;10.534488;0.2873042
11:31:45:117;-0.63206923;10.534488;0.2873042
11:31:45:117;-0.63206923;10.534488;0.2873042
11:31:45:117;-0.63206923;10.534488;0.2873042
11:31:45:117;-0.63206923;10.534488;0.2873042
11:31:45:117;-0.63206923;10.534488;0.2873042
11:31:45:239;-0.5554548;10.43872;1.091756
11:31:45:239;-0.5554548;10.43872;1.091756
11:31:45:239;-0.5554548;10.43872;1.091756
11:31:45:239;-0.5554548;10.43872;1.091756
11:31:45:239;-0.5554548;10.43872;1.091756
11:31:45:239;-0.5554548;10.43872;1.091756
11:31:45:239;-0.5554548;10.43872;1.091756
11:31:45:239;-0.5554548;10.43872;1.091756
11:31:45:239;-0.5554548;10.43872;1.091756
11:31:45:239;-0.5554548;10.43872;1.091756
11:31:45:239;-0.5554548;10.43872;1.091756
11:31:45:239;-0.5554548;10.43872;1.091756
11:31:45:239;-0.5554548;10.43872;1.091756
11:31:45:239;-0.5554548;10.43872;1.091756
11:31:45:348;-1.1492168;10.496181;1.3982137
11:31:45:348;-1.1492168;10.496181;1.3982137
11:31:45:348;-1.1492168;10.496181;1.3982137
11:31:45:348;-1.1492168;10.496181;1.3982137
11:31:45:348;-1.1492168;10.496181;1.3982137
11:31:45:348;-1.1492168;10.496181;1.3982137
11:31:45:348;-1.1492168;10.496181;1.3982137
11:31:45:348;-1.1492168;10.496181;1.3982137
11:31:45:348;-1.1492168;10.496181;1.3982137
11:31:45:348;-1.1492168;10.496181;1.3982137
11:31:45:348;-1.1492168;10.496181;1.3982137
11:31:45:348;-1.1492168;10.496181;1.3982137
11:31:45:348;-1.1492168;10.496181;1.3982137
11:31:45:348;-1.1492168;10.496181;1.3982137
11:31:45:348;-1.1492168;10.496181;1.3982137
11:31:45:348;-1.1492168;10.496181;1.3982137
11:31:45:348;-1.1492168;10.496181;1.3982137
11:31:45:348;-1.1492168;10.496181;1.3982137
11:31:45:485;-0.21068975;9.576807;0.22984336
11:31:45:485;-0.21068975;9.576807;0.22984336
11:31:45:485;-0.21068975;9.576807;0.22984336
11:31:45:485;-0.21068975;9.576807;0.22984336
11:31:45:485;-0.21068975;9.576807;0.22984336
11:31:45:485;-0.21068975;9.576807;0.22984336
11:31:45:485;-0.21068975;9.576807;0.22984336
11:31:45:485;-0.21068975;9.576807;0.22984336
11:31:45:485;-0.21068975;9.576807;0.22984336
11:31:45:485;-0.21068975;9.576807;0.22984336
11:31:45:485;-0.21068975;9.576807;0.22984336
11:31:45:485;-0.21068975;9.576807;0.22984336
11:31:45:485;-0.21068975;9.576807;0.22984336
11:31:45:485;-0.21068975;9.576807;0.22984336
11:31:45:600;-0.36391866;10.726024;-0.32561144
11:31:45:600;-0.36391866;10.726024;-0.32561144
11:31:45:600;-0.36391866;10.726024;-0.32561144
11:31:45:600;-0.36391866;10.726024;-0.32561144
11:31:45:600;-0.36391866;10.726024;-0.32561144
11:31:45:600;-0.36391866;10.726024;-0.32561144
11:31:45:600;-0.36391866;10.726024;-0.32561144
11:31:45:600;-0.36391866;10.726024;-0.32561144
11:31:45:600;-0.36391866;10.726024;-0.32561144
11:31:45:600;-0.36391866;10.726024;-0.32561144
11:31:45:600;-0.36391866;10.726024;-0.32561144
11:31:45:600;-0.36391866;10.726024;-0.32561144
11:31:45:600;-0.36391866;10.726024;-0.32561144
11:31:45:600;-0.36391866;10.726024;-0.32561144
11:31:45:600;-0.36391866;10.726024;-0.32561144
11:31:45:718;-0.9576807;9.825804;0.93852705
11:31:45:718;-0.9576807;9.825804;0.93852705
11:31:45:718;-0.9576807;9.825804;0.93852705
11:31:45:718;-0.9576807;9.825804;0.93852705
11:31:45:718;-0.9576807;9.825804;0.93852705
11:31:45:718;-0.9576807;9.825804;0.93852705
11:31:45:718;-0.9576807;9.825804;0.93852705
11:31:45:718;-0.9576807;9.825804;0.93852705
11:31:45:718;-0.9576807;9.825804;0.93852705
11:31:45:718;-0.9576807;9.825804;0.93852705
11:31:45:718;-0.9576807;9.825804;0.93852705
11:31:45:718;-0.9576807;9.825804;0.93852705
11:31:45:718;-0.9576807;9.825804;0.93852705
11:31:45:819;-0.34476504;8.714894;1.3215994
11:31:45:819;-0.34476504;8.714894;1.3215994
11:31:45:819;-0.34476504;8.714894;1.3215994
11:31:45:819;-0.34476504;8.714894;1.3215994
11:31:45:819;-0.34476504;8.714894;1.3215994
11:31:45:819;-0.34476504;8.714894;1.3215994
11:31:45:819;-0.34476504;8.714894;1.3215994
11:31:45:819;-0.34476504;8.714894;1.3215994
11:31:45:819;-0.34476504;8.714894;1.3215994
11:31:45:819;-0.34476504;8.714894;1.3215994
11:31:45:819;-0.34476504;8.714894;1.3215994
11:31:45:819;-0.34476504;8.714894;1.3215994
11:31:45:819;-0.34476504;8.714894;1.3215994
11:31:45:920;-0.4213795;10.879252;-0.30645782
11:31:45:920;-0.4213795;10.879252;-0.30645782
11:31:45:920;-0.4213795;10.879252;-0.30645782
11:31:45:920;-0.4213795;10.879252;-0.30645782
11:31:45:920;-0.4213795;10.879252;-0.30645782
11:31:45:920;-0.4213795;10.879252;-0.30645782
11:31:45:920;-0.4213795;10.879252;-0.30645782
11:31:45:920;-0.4213795;10.879252;-0.30645782
11:31:45:920;-0.4213795;10.879252;-0.30645782
11:31:45:920;-0.4213795;10.879252;-0.30645782
11:31:45:920;-0.4213795;10.879252;-0.30645782
11:31:45:920;-0.4213795;10.879252;-0.30645782
11:31:45:920;-0.4213795;10.879252;-0.30645782
11:31:45:920;-0.4213795;10.879252;-0.30645782
11:31:45:920;-0.4213795;10.879252;-0.30645782
11:31:45:920;-0.4213795;10.879252;-0.30645782
11:31:45:920;-0.4213795;10.879252;-0.30645782
11:31:45:920;-0.4213795;10.879252;-0.30645782
11:31:46:059;-1.1875241;9.959879;1.1492168
11:31:46:059;-1.1875241;9.959879;1.1492168
11:31:46:059;-1.1875241;9.959879;1.1492168
11:31:46:059;-1.1875241;9.959879;1.1492168
11:31:46:059;-1.1875241;9.959879;1.1492168
11:31:46:059;-1.1875241;9.959879;1.1492168
11:31:46:059;-1.1875241;9.959879;1.1492168
11:31:46:059;-1.1875241;9.959879;1.1492168
11:31:46:059;-1.1875241;9.959879;1.1492168
11:31:46:059;-1.1875241;9.959879;1.1492168
11:31:46:059;-1.1875241;9.959879;1.1492168
11:31:46:059;-1.1875241;9.959879;1.1492168
11:31:46:059;-1.1875241;9.959879;1.1492168
11:31:46:059;-1.1875241;9.959879;1.1492168
11:31:46:059;-1.1875241;9.959879;1.1492168
11:31:46:177;-0.32561144;9.385271;1.3982137
11:31:46:177;-0.32561144;9.385271;1.3982137
11:31:46:177;-0.32561144;9.385271;1.3982137
11:31:46:177;-0.32561144;9.385271;1.3982137
11:31:46:177;-0.32561144;9.385271;1.3982137
11:31:46:177;-0.32561144;9.385271;1.3982137
11:31:46:177;-0.32561144;9.385271;1.3982137
11:31:46:177;-0.32561144;9.385271;1.3982137
11:31:46:177;-0.32561144;9.385271;1.3982137
11:31:46:177;-0.32561144;9.385271;1.3982137
11:31:46:177;-0.32561144;9.385271;1.3982137
11:31:46:177;-0.32561144;9.385271;1.3982137
11:31:46:177;-0.32561144;9.385271;1.3982137
11:31:46:280;-0.61291564;10.055647;1.7046716
11:31:46:280;-0.61291564;10.055647;1.7046716
11:31:46:280;-0.61291564;10.055647;1.7046716
11:31:46:280;-0.61291564;10.055647;1.7046716
11:31:46:280;-0.61291564;10.055647;1.7046716
11:31:46:280;-0.61291564;10.055647;1.7046716
11:31:46:280;-0.61291564;10.055647;1.7046716
11:31:46:280;-0.61291564;10.055647;1.7046716
11:31:46:280;-0.61291564;10.055647;1.7046716
11:31:46:280;-0.61291564;10.055647;1.7046716
11:31:46:280;-0.61291564;10.055647;1.7046716
11:31:46:280;-0.61291564;10.055647;1.7046716
11:31:46:280;-0.61291564;10.055647;1.7046716
11:31:46:280;-0.61291564;10.055647;1.7046716
11:31:46:280;-0.61291564;10.055647;1.7046716
11:31:46:398;-0.9768343;10.247183;1.2066777
11:31:46:398;-0.9768343;10.247183;1.2066777
11:31:46:398;-0.9768343;10.247183;1.2066777
11:31:46:398;-0.9768343;10.247183;1.2066777
11:31:46:398;-0.9768343;10.247183;1.2066777
11:31:46:398;-0.9768343;10.247183;1.2066777
11:31:46:398;-0.9768343;10.247183;1.2066777
11:31:46:398;-0.9768343;10.247183;1.2066777
11:31:46:398;-0.9768343;10.247183;1.2066777
11:31:46:398;-0.9768343;10.247183;1.2066777
11:31:46:398;-0.9768343;10.247183;1.2066777
11:31:46:398;-0.9768343;10.247183;1.2066777
11:31:46:398;-0.9768343;10.247183;1.2066777
11:31:46:499;-1.283292;8.810662;1.9536686
11:31:46:499;-1.283292;8.810662;1.9536686
11:31:46:499;-1.283292;8.810662;1.9536686
11:31:46:499;-1.283292;8.810662;1.9536686
11:31:46:499;-1.283292;8.810662;1.9536686
11:31:46:499;-1.283292;8.810662;1.9536686
11:31:46:499;-1.283292;8.810662;1.9536686
11:31:46:499;-1.283292;8.810662;1.9536686
11:31:46:499;-1.283292;8.810662;1.9536686
11:31:46:499;-1.283292;8.810662;1.9536686
11:31:46:499;-1.283292;8.810662;1.9536686
11:31:46:499;-1.283292;8.810662;1.9536686
11:31:46:499;-1.283292;8.810662;1.9536686
11:31:46:499;-1.283292;8.810662;1.9536686
11:31:46:499;-1.283292;8.810662;1.9536686
11:31:46:616;-0.51714754;9.461885;1.283292
11:31:46:616;-0.51714754;9.461885;1.283292
11:31:46:616;-0.51714754;9.461885;1.283292
11:31:46:616;-0.51714754;9.461885;1.283292
11:31:46:616;-0.51714754;9.461885;1.283292
11:31:46:616;-0.51714754;9.461885;1.283292
11:31:46:616;-0.51714754;9.461885;1.283292
11:31:46:616;-0.51714754;9.461885;1.283292
11:31:46:616;-0.51714754;9.461885;1.283292
11:31:46:616;-0.51714754;9.461885;1.283292
11:31:46:616;-0.51714754;9.461885;1.283292
11:31:46:616;-0.51714754;9.461885;1.283292
11:31:46:616;-0.51714754;9.461885;1.283292
11:31:46:616;-0.51714754;9.461885;1.283292
11:31:46:616;-0.51714754;9.461885;1.283292
11:31:46:734;-1.0726024;10.342952;0.6512229
11:31:46:734;-1.0726024;10.342952;0.6512229
11:31:46:734;-1.0726024;10.342952;0.6512229
11:31:46:734;-1.0726024;10.342952;0.6512229
11:31:46:734;-1.0726024;10.342952;0.6512229
11:31:46:734;-1.0726024;10.342952;0.6512229
11:31:46:734;-1.0726024;10.342952;0.6512229
11:31:46:734;-1.0726024;10.342952;0.6512229
11:31:46:734;-1.0726024;10.342952;0.6512229
11:31:46:734;-1.0726024;10.342952;0.6512229
11:31:46:734;-1.0726024;10.342952;0.6512229
11:31:46:734;-1.0726024;10.342952;0.6512229
11:31:46:734;-1.0726024;10.342952;0.6512229
11:31:46:734;-1.0726024;10.342952;0.6512229
11:31:46:734;-1.0726024;10.342952;0.6512229
11:31:46:734;-1.0726024;10.342952;0.6512229
11:31:46:853;-0.90021986;8.350976;1.7812861
11:31:46:853;-0.90021986;8.350976;1.7812861
11:31:46:853;-0.90021986;8.350976;1.7812861
11:31:46:853;-0.90021986;8.350976;1.7812861
11:31:46:853;-0.90021986;8.350976;1.7812861
11:31:46:853;-0.90021986;8.350976;1.7812861
11:31:46:853;-0.90021986;8.350976;1.7812861
11:31:46:853;-0.90021986;8.350976;1.7812861
11:31:46:853;-0.90021986;8.350976;1.7812861
11:31:46:853;-0.90021986;8.350976;1.7812861
11:31:46:853;-0.90021986;8.350976;1.7812861
11:31:46:853;-0.90021986;8.350976;1.7812861
11:31:46:853;-0.90021986;8.350976;1.7812861
11:31:46:955;-0.4405331;9.442732;1.2258313
11:31:46:955;-0.4405331;9.442732;1.2258313
11:31:46:955;-0.4405331;9.442732;1.2258313
11:31:46:955;-0.4405331;9.442732;1.2258313
11:31:46:955;-0.4405331;9.442732;1.2258313
11:31:46:955;-0.4405331;9.442732;1.2258313
11:31:46:955;-0.4405331;9.442732;1.2258313
11:31:46:955;-0.4405331;9.442732;1.2258313
11:31:46:955;-0.4405331;9.442732;1.2258313
11:31:46:955;-0.4405331;9.442732;1.2258313
11:31:46:955;-0.4405331;9.442732;1.2258313
11:31:46:955;-0.4405331;9.442732;1.2258313
11:31:46:955;-0.4405331;9.442732;1.2258313
11:31:46:955;-0.4405331;9.442732;1.2258313
11:31:46:955;-0.4405331;9.442732;1.2258313
11:31:47:073;-0.1340753;9.883265;1.7621324
11:31:47:073;-0.1340753;9.883265;1.7621324
11:31:47:073;-0.1340753;9.883265;1.7621324
11:31:47:073;-0.1340753;9.883265;1.7621324
11:31:47:073;-0.1340753;9.883265;1.7621324
11:31:47:073;-0.1340753;9.883265;1.7621324
11:31:47:073;-0.1340753;9.883265;1.7621324
11:31:47:073;-0.1340753;9.883265;1.7621324
11:31:47:073;-0.1340753;9.883265;1.7621324
11:31:47:073;-0.1340753;9.883265;1.7621324
11:31:47:073;-0.1340753;9.883265;1.7621324
11:31:47:073;-0.1340753;9.883265;1.7621324
11:31:47:073;-0.1340753;9.883265;1.7621324
11:31:47:073;-0.1340753;9.883265;1.7621324
11:31:47:181;-1.4556746;10.496181;1.0534488
11:31:47:181;-1.4556746;10.496181;1.0534488
11:31:47:181;-1.4556746;10.496181;1.0534488
11:31:47:181;-1.4556746;10.496181;1.0534488
11:31:47:181;-1.4556746;10.496181;1.0534488
11:31:47:181;-1.4556746;10.496181;1.0534488
11:31:47:181;-1.4556746;10.496181;1.0534488
11:31:47:181;-1.4556746;10.496181;1.0534488
11:31:47:181;-1.4556746;10.496181;1.0534488
11:31:47:181;-1.4556746;10.496181;1.0534488
11:31:47:181;-1.4556746;10.496181;1.0534488
11:31:47:181;-1.4556746;10.496181;1.0534488
11:31:47:181;-1.4556746;10.496181;1.0534488
11:31:47:181;-1.4556746;10.496181;1.0534488
11:31:47:181;-1.4556746;10.496181;1.0534488
11:31:47:301;0.095768064;10.0748005;0.38307226
11:31:47:301;0.095768064;10.0748005;0.38307226
11:31:47:301;0.095768064;10.0748005;0.38307226
11:31:47:301;0.095768064;10.0748005;0.38307226
11:31:47:301;0.095768064;10.0748005;0.38307226
11:31:47:301;0.095768064;10.0748005;0.38307226
11:31:47:301;0.095768064;10.0748005;0.38307226
11:31:47:301;0.095768064;10.0748005;0.38307226
11:31:47:301;0.095768064;10.0748005;0.38307226
11:31:47:301;0.095768064;10.0748005;0.38307226
11:31:47:301;0.095768064;10.0748005;0.38307226
11:31:47:301;0.095768064;10.0748005;0.38307226
11:31:47:301;0.095768064;10.0748005;0.38307226
11:31:47:301;0.095768064;10.0748005;0.38307226
11:31:47:301;0.095768064;10.0748005;0.38307226
11:31:47:419;-0.32561144;9.136273;1.9153614
11:31:47:419;-0.32561144;9.136273;1.9153614
11:31:47:419;-0.32561144;9.136273;1.9153614
11:31:47:419;-0.32561144;9.136273;1.9153614
11:31:47:419;-0.32561144;9.136273;1.9153614
11:31:47:419;-0.32561144;9.136273;1.9153614
11:31:47:419;-0.32561144;9.136273;1.9153614
11:31:47:419;-0.32561144;9.136273;1.9153614
11:31:47:419;-0.32561144;9.136273;1.9153614
11:31:47:419;-0.32561144;9.136273;1.9153614
11:31:47:419;-0.32561144;9.136273;1.9153614
11:31:47:419;-0.32561144;9.136273;1.9153614
11:31:47:419;-0.32561144;9.136273;1.9153614
11:31:47:419;-0.32561144;9.136273;1.9153614
11:31:47:419;-0.32561144;9.136273;1.9153614
11:31:47:539;-1.1109096;9.653421;1.0534488
11:31:47:539;-1.1109096;9.653421;1.0534488
11:31:47:539;-1.1109096;9.653421;1.0534488
11:31:47:539;-1.1109096;9.653421;1.0534488
11:31:47:539;-1.1109096;9.653421;1.0534488
11:31:47:539;-1.1109096;9.653421;1.0534488
11:31:47:539;-1.1109096;9.653421;1.0534488
11:31:47:539;-1.1109096;9.653421;1.0534488
11:31:47:539;-1.1109096;9.653421;1.0534488
11:31:47:539;-1.1109096;9.653421;1.0534488
11:31:47:539;-1.1109096;9.653421;1.0534488
11:31:47:539;-1.1109096;9.653421;1.0534488
11:31:47:539;-1.1109096;9.653421;1.0534488
11:31:47:539;-1.1109096;9.653421;1.0534488
11:31:47:539;-1.1109096;9.653421;1.0534488
11:31:47:539;-1.1109096;9.653421;1.0534488
11:31:47:657;-0.51714754;10.055647;0.47884035
11:31:47:657;-0.51714754;10.055647;0.47884035
11:31:47:657;-0.51714754;10.055647;0.47884035
11:31:47:657;-0.51714754;10.055647;0.47884035
11:31:47:657;-0.51714754;10.055647;0.47884035
11:31:47:657;-0.51714754;10.055647;0.47884035
11:31:47:657;-0.51714754;10.055647;0.47884035
11:31:47:657;-0.51714754;10.055647;0.47884035
11:31:47:657;-0.51714754;10.055647;0.47884035
11:31:47:657;-0.51714754;10.055647;0.47884035
11:31:47:657;-0.51714754;10.055647;0.47884035
11:31:47:657;-0.51714754;10.055647;0.47884035
11:31:47:657;-0.51714754;10.055647;0.47884035
11:31:47:760;-0.24899697;10.400413;0.45968673
11:31:47:760;-0.24899697;10.400413;0.45968673
11:31:47:760;-0.24899697;10.400413;0.45968673
11:31:47:760;-0.24899697;10.400413;0.45968673
11:31:47:760;-0.24899697;10.400413;0.45968673
11:31:47:760;-0.24899697;10.400413;0.45968673
11:31:47:760;-0.24899697;10.400413;0.45968673
11:31:47:760;-0.24899697;10.400413;0.45968673
11:31:47:760;-0.24899697;10.400413;0.45968673
11:31:47:760;-0.24899697;10.400413;0.45968673
11:31:47:760;-0.24899697;10.400413;0.45968673
11:31:47:760;-0.24899697;10.400413;0.45968673
11:31:47:760;-0.24899697;10.400413;0.45968673
11:31:47:760;-0.24899697;10.400413;0.45968673
11:31:47:760;-0.24899697;10.400413;0.45968673
11:31:47:879;-0.30645782;12.105083;-0.15322891
11:31:47:879;-0.30645782;12.105083;-0.15322891
11:31:47:879;-0.30645782;12.105083;-0.15322891
11:31:47:879;-0.30645782;12.105083;-0.15322891
11:31:47:879;-0.30645782;12.105083;-0.15322891
11:31:47:879;-0.30645782;12.105083;-0.15322891
11:31:47:879;-0.30645782;12.105083;-0.15322891
11:31:47:879;-0.30645782;12.105083;-0.15322891
11:31:47:879;-0.30645782;12.105083;-0.15322891
11:31:47:879;-0.30645782;12.105083;-0.15322891
11:31:47:879;-0.30645782;12.105083;-0.15322891
11:31:47:879;-0.30645782;12.105083;-0.15322891
11:31:47:879;-0.30645782;12.105083;-0.15322891
11:31:47:879;-0.30645782;12.105083;-0.15322891
11:31:47:879;-0.30645782;12.105083;-0.15322891
11:31:47:995;-1.1109096;10.189722;1.2066777
11:31:47:995;-1.1109096;10.189722;1.2066777
11:31:47:995;-1.1109096;10.189722;1.2066777
11:31:47:995;-1.1109096;10.189722;1.2066777
11:31:47:995;-1.1109096;10.189722;1.2066777
11:31:47:995;-1.1109096;10.189722;1.2066777
11:31:47:995;-1.1109096;10.189722;1.2066777
11:31:47:995;-1.1109096;10.189722;1.2066777
11:31:47:995;-1.1109096;10.189722;1.2066777
11:31:47:995;-1.1109096;10.189722;1.2066777
11:31:47:995;-1.1109096;10.189722;1.2066777
11:31:47:995;-1.1109096;10.189722;1.2066777
11:31:47:995;-1.1109096;10.189722;1.2066777
11:31:47:995;-1.1109096;10.189722;1.2066777
11:31:47:995;-1.1109096;10.189722;1.2066777
11:31:47:995;-1.1109096;10.189722;1.2066777
11:31:47:995;-1.1109096;10.189722;1.2066777
11:31:47:995;-1.1109096;10.189722;1.2066777
11:31:47:995;-1.1109096;10.189722;1.2066777
11:31:47:995;-1.1109096;10.189722;1.2066777
11:31:47:995;-1.1109096;10.189722;1.2066777
11:31:47:995;-1.1109096;10.189722;1.2066777
11:31:47:995;-1.1109096;10.189722;1.2066777
11:31:47:995;-1.1109096;10.189722;1.2066777
11:31:47:995;-1.1109096;10.189722;1.2066777
11:31:47:995;-1.1109096;10.189722;1.2066777
11:31:47:995;-1.1109096;10.189722;1.2066777
11:31:47:995;-1.1109096;10.189722;1.2066777
11:31:47:995;-1.1109096;10.189722;1.2066777
11:31:47:995;-1.1109096;10.189722;1.2066777
11:31:47:995;-1.1109096;10.189722;1.2066777
11:31:47:995;-1.1109096;10.189722;1.2066777
11:31:47:995;-1.1109096;10.189722;1.2066777
11:31:47:995;-1.1109096;10.189722;1.2066777
11:31:47:995;-1.1109096;10.189722;1.2066777
11:31:47:995;-1.1109096;10.189722;1.2066777
11:31:47:995;-1.1109096;10.189722;1.2066777
11:31:47:995;-1.1109096;10.189722;1.2066777
11:31:47:995;-1.1109096;10.189722;1.2066777
11:31:47:995;-1.1109096;10.189722;1.2066777
11:31:47:995;-1.1109096;10.189722;1.2066777
11:31:47:995;-1.1109096;10.189722;1.2066777
11:31:47:995;-1.1109096;10.189722;1.2066777
11:31:47:995;-1.1109096;10.189722;1.2066777
11:31:47:995;-1.1109096;10.189722;1.2066777
11:31:47:995;-1.1109096;10.189722;1.2066777
11:31:47:995;-1.1109096;10.189722;1.2066777
11:31:47:995;-1.1109096;10.189722;1.2066777
11:31:47:995;-1.1109096;10.189722;1.2066777
11:31:47:995;-1.1109096;10.189722;1.2066777
11:31:47:995;-1.1109096;10.189722;1.2066777
11:31:47:995;-1.1109096;10.189722;1.2066777
11:31:47:995;-1.1109096;10.189722;1.2066777
11:31:47:995;-1.1109096;10.189722;1.2066777
11:31:47:995;-1.1109096;10.189722;1.2066777
11:31:47:995;-1.1109096;10.189722;1.2066777
11:31:47:995;-1.1109096;10.189722;1.2066777
11:31:47:995;-1.1109096;10.189722;1.2066777
11:31:47:995;-1.1109096;10.189722;1.2066777
11:31:47:995;-1.1109096;10.189722;1.2066777
11:31:47:995;-1.1109096;10.189722;1.2066777
11:31:47:995;-1.1109096;10.189722;1.2066777
11:31:47:995;-1.1109096;10.189722;1.2066777
11:31:47:995;-1.1109096;10.189722;1.2066777
11:31:47:995;-1.1109096;10.189722;1.2066777
11:31:47:995;-1.1109096;10.189722;1.2066777
11:31:47:995;-1.1109096;10.189722;1.2066777
11:31:47:995;-1.1109096;10.189722;1.2066777
11:31:47:995;-1.1109096;10.189722;1.2066777
11:31:47:995;-1.1109096;10.189722;1.2066777
11:31:47:995;-1.1109096;10.189722;1.2066777
11:31:47:995;-1.1109096;10.189722;1.2066777
11:31:47:995;-1.1109096;10.189722;1.2066777
11:31:47:995;-1.1109096;10.189722;1.2066777
11:31:47:995;-1.1109096;10.189722;1.2066777
11:31:47:995;-1.1109096;10.189722;1.2066777
11:31:47:995;-1.1109096;10.189722;1.2066777
11:31:47:995;-1.1109096;10.189722;1.2066777
11:31:47:995;-1.1109096;10.189722;1.2066777
11:31:47:995;-1.1109096;10.189722;1.2066777
11:31:47:995;-1.1109096;10.189722;1.2066777
11:31:47:995;-1.1109096;10.189722;1.2066777
11:31:47:995;-1.1109096;10.189722;1.2066777
11:31:47:995;-1.1109096;10.189722;1.2066777
11:31:47:995;-1.1109096;10.189722;1.2066777
11:31:47:995;-1.1109096;10.189722;1.2066777
11:31:47:995;-1.1109096;10.189722;1.2066777
11:31:47:995;-1.1109096;10.189722;1.2066777
11:31:47:995;-1.1109096;10.189722;1.2066777
11:31:47:995;-1.1109096;10.189722;1.2066777
11:31:47:995;-1.1109096;10.189722;1.2066777
11:31:47:995;-1.1109096;10.189722;1.2066777
11:31:47:995;-1.1109096;10.189722;1.2066777
11:31:47:995;-1.1109096;10.189722;1.2066777
11:31:47:995;-1.1109096;10.189722;1.2066777
11:31:47:995;-1.1109096;10.189722;1.2066777
11:31:47:995;-1.1109096;10.189722;1.2066777
11:31:47:995;-1.1109096;10.189722;1.2066777
11:31:47:995;-1.1109096;10.189722;1.2066777
11:31:47:995;-1.1109096;10.189722;1.2066777
11:31:47:995;-1.1109096;10.189722;1.2066777
11:31:47:995;-1.1109096;10.189722;1.2066777
11:31:47:995;-1.1109096;10.189722;1.2066777
11:31:47:995;-1.1109096;10.189722;1.2066777
11:31:47:995;-1.1109096;10.189722;1.2066777
11:31:47:995;-1.1109096;10.189722;1.2066777
11:31:47:995;-1.1109096;10.189722;1.2066777
11:31:48:831;-0.9959879;10.400413;0.095768064
11:31:48:831;-0.9959879;10.400413;0.095768064
11:31:48:831;-0.9959879;10.400413;0.095768064
11:31:48:831;-0.9959879;10.400413;0.095768064
11:31:48:831;-0.9959879;10.400413;0.095768064
11:31:48:831;-0.9959879;10.400413;0.095768064
11:31:48:831;-0.9959879;10.400413;0.095768064
11:31:48:831;-0.9959879;10.400413;0.095768064
11:31:48:831;-0.9959879;10.400413;0.095768064
11:31:48:831;-0.9959879;10.400413;0.095768064
11:31:48:831;-0.9959879;10.400413;0.095768064
11:31:48:831;-0.9959879;10.400413;0.095768064
11:31:48:831;-0.9959879;10.400413;0.095768064
11:31:48:933;-0.90021986;10.534488;-0.40222588
11:31:48:933;-0.90021986;10.534488;-0.40222588
11:31:48:933;-0.90021986;10.534488;-0.40222588
11:31:48:933;-0.90021986;10.534488;-0.40222588
11:31:48:933;-0.90021986;10.534488;-0.40222588
11:31:48:933;-0.90021986;10.534488;-0.40222588
11:31:48:933;-0.90021986;10.534488;-0.40222588
11:31:48:933;-0.90021986;10.534488;-0.40222588
11:31:48:933;-0.90021986;10.534488;-0.40222588
11:31:48:933;-0.90021986;10.534488;-0.40222588
11:31:48:933;-0.90021986;10.534488;-0.40222588
11:31:48:933;-0.90021986;10.534488;-0.40222588
11:31:48:933;-0.90021986;10.534488;-0.40222588
11:31:49:037;-0.34476504;10.43872;-0.2681506
11:31:49:037;-0.34476504;10.43872;-0.2681506
11:31:49:037;-0.34476504;10.43872;-0.2681506
11:31:49:037;-0.34476504;10.43872;-0.2681506
11:31:49:037;-0.34476504;10.43872;-0.2681506
11:31:49:037;-0.34476504;10.43872;-0.2681506
11:31:49:037;-0.34476504;10.43872;-0.2681506
11:31:49:037;-0.34476504;10.43872;-0.2681506
11:31:49:037;-0.34476504;10.43872;-0.2681506
11:31:49:037;-0.34476504;10.43872;-0.2681506
11:31:49:037;-0.34476504;10.43872;-0.2681506
11:31:49:037;-0.34476504;10.43872;-0.2681506
11:31:49:037;-0.34476504;10.43872;-0.2681506
11:31:49:037;-0.34476504;10.43872;-0.2681506
11:31:49:037;-0.34476504;10.43872;-0.2681506
11:31:49:156;-1.2641385;12.488156;-1.3215994
11:31:49:156;-1.2641385;12.488156;-1.3215994
11:31:49:156;-1.2641385;12.488156;-1.3215994
11:31:49:156;-1.2641385;12.488156;-1.3215994
11:31:49:156;-1.2641385;12.488156;-1.3215994
11:31:49:156;-1.2641385;12.488156;-1.3215994
11:31:49:156;-1.2641385;12.488156;-1.3215994
11:31:49:156;-1.2641385;12.488156;-1.3215994
11:31:49:156;-1.2641385;12.488156;-1.3215994
11:31:49:156;-1.2641385;12.488156;-1.3215994
11:31:49:156;-1.2641385;12.488156;-1.3215994
11:31:49:156;-1.2641385;12.488156;-1.3215994
11:31:49:156;-1.2641385;12.488156;-1.3215994
11:31:49:156;-1.2641385;12.488156;-1.3215994
11:31:49:264;-1.3215994;11.128249;-0.80445176
11:31:49:264;-1.3215994;11.128249;-0.80445176
11:31:49:264;-1.3215994;11.128249;-0.80445176
11:31:49:264;-1.3215994;11.128249;-0.80445176
11:31:49:264;-1.3215994;11.128249;-0.80445176
11:31:49:264;-1.3215994;11.128249;-0.80445176
11:31:49:264;-1.3215994;11.128249;-0.80445176
11:31:49:264;-1.3215994;11.128249;-0.80445176
11:31:49:264;-1.3215994;11.128249;-0.80445176
11:31:49:264;-1.3215994;11.128249;-0.80445176
11:31:49:264;-1.3215994;11.128249;-0.80445176
11:31:49:264;-1.3215994;11.128249;-0.80445176
11:31:49:264;-1.3215994;11.128249;-0.80445176
11:31:49:264;-1.3215994;11.128249;-0.80445176
11:31:49:264;-1.3215994;11.128249;-0.80445176
11:31:49:264;-1.3215994;11.128249;-0.80445176
11:31:49:264;-1.3215994;11.128249;-0.80445176
11:31:49:264;-1.3215994;11.128249;-0.80445176
11:31:49:264;-1.3215994;11.128249;-0.80445176
11:31:49:264;-1.3215994;11.128249;-0.80445176
11:31:49:264;-1.3215994;11.128249;-0.80445176
11:31:49:264;-1.3215994;11.128249;-0.80445176
11:31:49:264;-1.3215994;11.128249;-0.80445176
11:31:49:264;-1.3215994;11.128249;-0.80445176
11:31:49:452;-0.80445176;10.43872;0.91937345
11:31:49:452;-0.80445176;10.43872;0.91937345
11:31:49:452;-0.80445176;10.43872;0.91937345
11:31:49:452;-0.80445176;10.43872;0.91937345
11:31:49:452;-0.80445176;10.43872;0.91937345
11:31:49:452;-0.80445176;10.43872;0.91937345
11:31:49:452;-0.80445176;10.43872;0.91937345
11:31:49:452;-0.80445176;10.43872;0.91937345
11:31:49:452;-0.80445176;10.43872;0.91937345
11:31:49:452;-0.80445176;10.43872;0.91937345
11:31:49:452;-0.80445176;10.43872;0.91937345
11:31:49:452;-0.80445176;10.43872;0.91937345
11:31:49:452;-0.80445176;10.43872;0.91937345
11:31:49:452;-0.80445176;10.43872;0.91937345
11:31:49:452;-0.80445176;10.43872;0.91937345
11:31:49:563;1.4939818;9.308656;-0.45968673
11:31:49:563;1.4939818;9.308656;-0.45968673
11:31:49:563;1.4939818;9.308656;-0.45968673
11:31:49:563;1.4939818;9.308656;-0.45968673
11:31:49:563;1.4939818;9.308656;-0.45968673
11:31:49:563;1.4939818;9.308656;-0.45968673
11:31:49:563;1.4939818;9.308656;-0.45968673
11:31:49:563;1.4939818;9.308656;-0.45968673
11:31:49:563;1.4939818;9.308656;-0.45968673
11:31:49:563;1.4939818;9.308656;-0.45968673
11:31:49:563;1.4939818;9.308656;-0.45968673
11:31:49:563;1.4939818;9.308656;-0.45968673
11:31:49:563;1.4939818;9.308656;-0.45968673
11:31:49:563;1.4939818;9.308656;-0.45968673
11:31:49:672;0.30645782;9.557653;-0.34476504
11:31:49:672;0.30645782;9.557653;-0.34476504
11:31:49:672;0.30645782;9.557653;-0.34476504
11:31:49:672;0.30645782;9.557653;-0.34476504
11:31:49:672;0.30645782;9.557653;-0.34476504
11:31:49:672;0.30645782;9.557653;-0.34476504
11:31:49:672;0.30645782;9.557653;-0.34476504
11:31:49:672;0.30645782;9.557653;-0.34476504
11:31:49:672;0.30645782;9.557653;-0.34476504
11:31:49:672;0.30645782;9.557653;-0.34476504
11:31:49:672;0.30645782;9.557653;-0.34476504
11:31:49:672;0.30645782;9.557653;-0.34476504
11:31:49:672;0.30645782;9.557653;-0.34476504
11:31:49:672;0.30645782;9.557653;-0.34476504
11:31:49:782;-1.6472107;11.032481;-0.4213795
11:31:49:782;-1.6472107;11.032481;-0.4213795
11:31:49:782;-1.6472107;11.032481;-0.4213795
11:31:49:782;-1.6472107;11.032481;-0.4213795
11:31:49:782;-1.6472107;11.032481;-0.4213795
11:31:49:782;-1.6472107;11.032481;-0.4213795
11:31:49:782;-1.6472107;11.032481;-0.4213795
11:31:49:782;-1.6472107;11.032481;-0.4213795
11:31:49:782;-1.6472107;11.032481;-0.4213795
11:31:49:782;-1.6472107;11.032481;-0.4213795
11:31:49:782;-1.6472107;11.032481;-0.4213795
11:31:49:782;-1.6472107;11.032481;-0.4213795
11:31:49:782;-1.6472107;11.032481;-0.4213795
11:31:49:883;-0.9768343;9.040505;0.7469909
11:31:49:883;-0.9768343;9.040505;0.7469909
11:31:49:883;-0.9768343;9.040505;0.7469909
11:31:49:883;-0.9768343;9.040505;0.7469909
11:31:49:883;-0.9768343;9.040505;0.7469909
11:31:49:883;-0.9768343;9.040505;0.7469909
11:31:49:883;-0.9768343;9.040505;0.7469909
11:31:49:883;-0.9768343;9.040505;0.7469909
11:31:49:883;-0.9768343;9.040505;0.7469909
11:31:49:883;-0.9768343;9.040505;0.7469909
11:31:49:883;-0.9768343;9.040505;0.7469909
11:31:49:883;-0.9768343;9.040505;0.7469909
11:31:49:883;-0.9768343;9.040505;0.7469909
11:31:49:883;-0.9768343;9.040505;0.7469909
11:31:50:000;-0.6512229;10.611102;-0.38307226
11:31:50:000;-0.6512229;10.611102;-0.38307226
11:31:50:000;-0.6512229;10.611102;-0.38307226
11:31:50:000;-0.6512229;10.611102;-0.38307226
11:31:50:000;-0.6512229;10.611102;-0.38307226
11:31:50:000;-0.6512229;10.611102;-0.38307226
11:31:50:000;-0.6512229;10.611102;-0.38307226
11:31:50:000;-0.6512229;10.611102;-0.38307226
11:31:50:000;-0.6512229;10.611102;-0.38307226
11:31:50:000;-0.6512229;10.611102;-0.38307226
11:31:50:000;-0.6512229;10.611102;-0.38307226
11:31:50:000;-0.6512229;10.611102;-0.38307226
11:31:50:000;-0.6512229;10.611102;-0.38307226
11:31:50:000;-0.6512229;10.611102;-0.38307226
11:31:50:103;-0.6512229;9.5385;1.1109096
11:31:50:103;-0.6512229;9.5385;1.1109096
11:31:50:103;-0.6512229;9.5385;1.1109096
11:31:50:103;-0.6512229;9.5385;1.1109096
11:31:50:103;-0.6512229;9.5385;1.1109096
11:31:50:103;-0.6512229;9.5385;1.1109096
11:31:50:103;-0.6512229;9.5385;1.1109096
11:31:50:103;-0.6512229;9.5385;1.1109096
11:31:50:103;-0.6512229;9.5385;1.1109096
11:31:50:103;-0.6512229;9.5385;1.1109096
11:31:50:103;-0.6512229;9.5385;1.1109096
11:31:50:103;-0.6512229;9.5385;1.1109096
11:31:50:103;-0.6512229;9.5385;1.1109096
11:31:50:103;-0.6512229;9.5385;1.1109096
11:31:50:103;-0.6512229;9.5385;1.1109096
11:31:50:221;-0.4213795;10.477027;-0.5554548
11:31:50:221;-0.4213795;10.477027;-0.5554548
11:31:50:221;-0.4213795;10.477027;-0.5554548
11:31:50:221;-0.4213795;10.477027;-0.5554548
11:31:50:221;-0.4213795;10.477027;-0.5554548
11:31:50:221;-0.4213795;10.477027;-0.5554548
11:31:50:221;-0.4213795;10.477027;-0.5554548
11:31:50:221;-0.4213795;10.477027;-0.5554548
11:31:50:221;-0.4213795;10.477027;-0.5554548
11:31:50:221;-0.4213795;10.477027;-0.5554548
11:31:50:221;-0.4213795;10.477027;-0.5554548
11:31:50:221;-0.4213795;10.477027;-0.5554548
11:31:50:221;-0.4213795;10.477027;-0.5554548
11:31:50:221;-0.4213795;10.477027;-0.5554548
11:31:50:334;-0.82360536;10.70687;-1.3790601
11:31:50:334;-0.82360536;10.70687;-1.3790601
11:31:50:334;-0.82360536;10.70687;-1.3790601
11:31:50:334;-0.82360536;10.70687;-1.3790601
11:31:50:334;-0.82360536;10.70687;-1.3790601
11:31:50:334;-0.82360536;10.70687;-1.3790601
11:31:50:334;-0.82360536;10.70687;-1.3790601
11:31:50:334;-0.82360536;10.70687;-1.3790601
11:31:50:334;-0.82360536;10.70687;-1.3790601
11:31:50:334;-0.82360536;10.70687;-1.3790601
11:31:50:334;-0.82360536;10.70687;-1.3790601
11:31:50:334;-0.82360536;10.70687;-1.3790601
11:31:50:334;-0.82360536;10.70687;-1.3790601
11:31:50:334;-0.82360536;10.70687;-1.3790601
11:31:50:334;-0.82360536;10.70687;-1.3790601
11:31:50:334;-0.82360536;10.70687;-1.3790601
11:31:50:458;-0.32561144;10.860099;-0.90021986
11:31:50:458;-0.32561144;10.860099;-0.90021986
11:31:50:458;-0.32561144;10.860099;-0.90021986
11:31:50:458;-0.32561144;10.860099;-0.90021986
11:31:50:458;-0.32561144;10.860099;-0.90021986
11:31:50:458;-0.32561144;10.860099;-0.90021986
11:31:50:458;-0.32561144;10.860099;-0.90021986
11:31:50:458;-0.32561144;10.860099;-0.90021986
11:31:50:458;-0.32561144;10.860099;-0.90021986
11:31:50:458;-0.32561144;10.860099;-0.90021986
11:31:50:458;-0.32561144;10.860099;-0.90021986
11:31:50:458;-0.32561144;10.860099;-0.90021986
11:31:50:458;-0.32561144;10.860099;-0.90021986
11:31:50:458;-0.32561144;10.860099;-0.90021986
11:31:50:458;-0.32561144;10.860099;-0.90021986
11:31:50:458;-0.32561144;10.860099;-0.90021986
11:31:50:579;-0.93852705;9.921572;0.17238252
11:31:50:579;-0.93852705;9.921572;0.17238252
11:31:50:579;-0.93852705;9.921572;0.17238252
11:31:50:579;-0.93852705;9.921572;0.17238252
11:31:50:579;-0.93852705;9.921572;0.17238252
11:31:50:579;-0.93852705;9.921572;0.17238252
11:31:50:579;-0.93852705;9.921572;0.17238252
11:31:50:579;-0.93852705;9.921572;0.17238252
11:31:50:579;-0.93852705;9.921572;0.17238252
11:31:50:579;-0.93852705;9.921572;0.17238252
11:31:50:579;-0.93852705;9.921572;0.17238252
11:31:50:579;-0.93852705;9.921572;0.17238252
11:31:50:579;-0.93852705;9.921572;0.17238252
11:31:50:685;-0.34476504;9.11712;1.091756
11:31:50:685;-0.34476504;9.11712;1.091756
11:31:50:685;-0.34476504;9.11712;1.091756
11:31:50:685;-0.34476504;9.11712;1.091756
11:31:50:685;-0.34476504;9.11712;1.091756
11:31:50:685;-0.34476504;9.11712;1.091756
11:31:50:685;-0.34476504;9.11712;1.091756
11:31:50:685;-0.34476504;9.11712;1.091756
11:31:50:685;-0.34476504;9.11712;1.091756
11:31:50:685;-0.34476504;9.11712;1.091756
11:31:50:685;-0.34476504;9.11712;1.091756
11:31:50:685;-0.34476504;9.11712;1.091756
11:31:50:685;-0.34476504;9.11712;1.091756
11:31:50:786;0.22984336;11.568783;-1.5131354
11:31:50:786;0.22984336;11.568783;-1.5131354
11:31:50:786;0.22984336;11.568783;-1.5131354
11:31:50:786;0.22984336;11.568783;-1.5131354
11:31:50:786;0.22984336;11.568783;-1.5131354
11:31:50:786;0.22984336;11.568783;-1.5131354
11:31:50:786;0.22984336;11.568783;-1.5131354
11:31:50:786;0.22984336;11.568783;-1.5131354
11:31:50:786;0.22984336;11.568783;-1.5131354
11:31:50:786;0.22984336;11.568783;-1.5131354
11:31:50:786;0.22984336;11.568783;-1.5131354
11:31:50:786;0.22984336;11.568783;-1.5131354
11:31:50:786;0.22984336;11.568783;-1.5131354
11:31:50:786;0.22984336;11.568783;-1.5131354
11:31:50:786;0.22984336;11.568783;-1.5131354
11:31:50:905;-0.4213795;10.898406;-1.4556746
11:31:50:905;-0.4213795;10.898406;-1.4556746
11:31:50:905;-0.4213795;10.898406;-1.4556746
11:31:50:905;-0.4213795;10.898406;-1.4556746
11:31:50:905;-0.4213795;10.898406;-1.4556746
11:31:50:905;-0.4213795;10.898406;-1.4556746
11:31:50:905;-0.4213795;10.898406;-1.4556746
11:31:50:905;-0.4213795;10.898406;-1.4556746
11:31:50:905;-0.4213795;10.898406;-1.4556746
11:31:50:905;-0.4213795;10.898406;-1.4556746
11:31:50:905;-0.4213795;10.898406;-1.4556746
11:31:50:905;-0.4213795;10.898406;-1.4556746
11:31:50:905;-0.4213795;10.898406;-1.4556746
11:31:51:006;-1.5514427;10.0748005;0.40222588
11:31:51:006;-1.5514427;10.0748005;0.40222588
11:31:51:006;-1.5514427;10.0748005;0.40222588
11:31:51:006;-1.5514427;10.0748005;0.40222588
11:31:51:006;-1.5514427;10.0748005;0.40222588
11:31:51:006;-1.5514427;10.0748005;0.40222588
11:31:51:006;-1.5514427;10.0748005;0.40222588
11:31:51:006;-1.5514427;10.0748005;0.40222588
11:31:51:006;-1.5514427;10.0748005;0.40222588
11:31:51:006;-1.5514427;10.0748005;0.40222588
11:31:51:006;-1.5514427;10.0748005;0.40222588
11:31:51:006;-1.5514427;10.0748005;0.40222588
11:31:51:006;-1.5514427;10.0748005;0.40222588
11:31:51:107;-1.685518;10.151415;0.076614454
11:31:51:107;-1.685518;10.151415;0.076614454
11:31:51:107;-1.685518;10.151415;0.076614454
11:31:51:107;-1.685518;10.151415;0.076614454
11:31:51:107;-1.685518;10.151415;0.076614454
11:31:51:107;-1.685518;10.151415;0.076614454
11:31:51:107;-1.685518;10.151415;0.076614454
11:31:51:107;-1.685518;10.151415;0.076614454
11:31:51:107;-1.685518;10.151415;0.076614454
11:31:51:107;-1.685518;10.151415;0.076614454
11:31:51:107;-1.685518;10.151415;0.076614454
11:31:51:107;-1.685518;10.151415;0.076614454
11:31:51:107;-1.685518;10.151415;0.076614454
11:31:51:107;-1.685518;10.151415;0.076614454
11:31:51:107;-1.685518;10.151415;0.076614454
11:31:51:225;-0.6512229;10.783484;-0.22984336
11:31:51:225;-0.6512229;10.783484;-0.22984336
11:31:51:225;-0.6512229;10.783484;-0.22984336
11:31:51:225;-0.6512229;10.783484;-0.22984336
11:31:51:225;-0.6512229;10.783484;-0.22984336
11:31:51:225;-0.6512229;10.783484;-0.22984336
11:31:51:225;-0.6512229;10.783484;-0.22984336
11:31:51:225;-0.6512229;10.783484;-0.22984336
11:31:51:225;-0.6512229;10.783484;-0.22984336
11:31:51:225;-0.6512229;10.783484;-0.22984336
11:31:51:225;-0.6512229;10.783484;-0.22984336
11:31:51:225;-0.6512229;10.783484;-0.22984336
11:31:51:225;-0.6512229;10.783484;-0.22984336
11:31:51:326;-0.21068975;10.304645;-0.2681506
11:31:51:326;-0.21068975;10.304645;-0.2681506
11:31:51:326;-0.21068975;10.304645;-0.2681506
11:31:51:326;-0.21068975;10.304645;-0.2681506
11:31:51:326;-0.21068975;10.304645;-0.2681506
11:31:51:326;-0.21068975;10.304645;-0.2681506
11:31:51:326;-0.21068975;10.304645;-0.2681506
11:31:51:326;-0.21068975;10.304645;-0.2681506
11:31:51:326;-0.21068975;10.304645;-0.2681506
11:31:51:326;-0.21068975;10.304645;-0.2681506
11:31:51:326;-0.21068975;10.304645;-0.2681506
11:31:51:326;-0.21068975;10.304645;-0.2681506
11:31:51:326;-0.21068975;10.304645;-0.2681506
11:31:51:326;-0.21068975;10.304645;-0.2681506
11:31:51:326;-0.21068975;10.304645;-0.2681506
11:31:51:445;-0.32561144;10.70687;-0.59376204
11:31:51:445;-0.32561144;10.70687;-0.59376204
11:31:51:445;-0.32561144;10.70687;-0.59376204
11:31:51:445;-0.32561144;10.70687;-0.59376204
11:31:51:445;-0.32561144;10.70687;-0.59376204
11:31:51:445;-0.32561144;10.70687;-0.59376204
11:31:51:445;-0.32561144;10.70687;-0.59376204
11:31:51:445;-0.32561144;10.70687;-0.59376204
11:31:51:445;-0.32561144;10.70687;-0.59376204
11:31:51:445;-0.32561144;10.70687;-0.59376204
11:31:51:445;-0.32561144;10.70687;-0.59376204
11:31:51:445;-0.32561144;10.70687;-0.59376204
11:31:51:445;-0.32561144;10.70687;-0.59376204
11:31:51:445;-0.32561144;10.70687;-0.59376204
11:31:51:445;-0.32561144;10.70687;-0.59376204
11:31:51:445;-0.32561144;10.70687;-0.59376204
11:31:51:564;-0.9768343;9.787497;0.40222588
11:31:51:564;-0.9768343;9.787497;0.40222588
11:31:51:564;-0.9768343;9.787497;0.40222588
11:31:51:564;-0.9768343;9.787497;0.40222588
11:31:51:564;-0.9768343;9.787497;0.40222588
11:31:51:564;-0.9768343;9.787497;0.40222588
11:31:51:564;-0.9768343;9.787497;0.40222588
11:31:51:564;-0.9768343;9.787497;0.40222588
11:31:51:564;-0.9768343;9.787497;0.40222588
11:31:51:564;-0.9768343;9.787497;0.40222588
11:31:51:564;-0.9768343;9.787497;0.40222588
11:31:51:564;-0.9768343;9.787497;0.40222588
11:31:51:564;-0.9768343;9.787497;0.40222588
11:31:51:667;-0.842759;11.013328;-0.59376204
11:31:51:667;-0.842759;11.013328;-0.59376204
11:31:51:667;-0.842759;11.013328;-0.59376204
11:31:51:667;-0.842759;11.013328;-0.59376204
11:31:51:667;-0.842759;11.013328;-0.59376204
11:31:51:667;-0.842759;11.013328;-0.59376204
11:31:51:667;-0.842759;11.013328;-0.59376204
11:31:51:667;-0.842759;11.013328;-0.59376204
11:31:51:667;-0.842759;11.013328;-0.59376204
11:31:51:667;-0.842759;11.013328;-0.59376204
11:31:51:667;-0.842759;11.013328;-0.59376204
11:31:51:667;-0.842759;11.013328;-0.59376204
11:31:51:667;-0.842759;11.013328;-0.59376204
11:31:51:667;-0.842759;11.013328;-0.59376204
11:31:51:667;-0.842759;11.013328;-0.59376204
11:31:51:785;-0.93852705;9.844957;0.2873042
11:31:51:785;-0.93852705;9.844957;0.2873042
11:31:51:785;-0.93852705;9.844957;0.2873042
11:31:51:785;-0.93852705;9.844957;0.2873042
11:31:51:785;-0.93852705;9.844957;0.2873042
11:31:51:785;-0.93852705;9.844957;0.2873042
11:31:51:785;-0.93852705;9.844957;0.2873042
11:31:51:785;-0.93852705;9.844957;0.2873042
11:31:51:785;-0.93852705;9.844957;0.2873042
11:31:51:785;-0.93852705;9.844957;0.2873042
11:31:51:785;-0.93852705;9.844957;0.2873042
11:31:51:785;-0.93852705;9.844957;0.2873042
11:31:51:785;-0.93852705;9.844957;0.2873042
11:31:51:886;-0.63206923;9.710882;0.6512229
11:31:51:886;-0.63206923;9.710882;0.6512229
11:31:51:886;-0.63206923;9.710882;0.6512229
11:31:51:886;-0.63206923;9.710882;0.6512229
11:31:51:886;-0.63206923;9.710882;0.6512229
11:31:51:886;-0.63206923;9.710882;0.6512229
11:31:51:886;-0.63206923;9.710882;0.6512229
11:31:51:886;-0.63206923;9.710882;0.6512229
11:31:51:886;-0.63206923;9.710882;0.6512229
11:31:51:886;-0.63206923;9.710882;0.6512229
11:31:51:886;-0.63206923;9.710882;0.6512229
11:31:51:886;-0.63206923;9.710882;0.6512229
11:31:51:886;-0.63206923;9.710882;0.6512229
11:31:51:886;-0.63206923;9.710882;0.6512229
11:31:51:886;-0.63206923;9.710882;0.6512229
11:31:52:004;-1.3982137;11.568783;-0.30645782
11:31:52:004;-1.3982137;11.568783;-0.30645782
11:31:52:004;-1.3982137;11.568783;-0.30645782
11:31:52:004;-1.3982137;11.568783;-0.30645782
11:31:52:004;-1.3982137;11.568783;-0.30645782
11:31:52:004;-1.3982137;11.568783;-0.30645782
11:31:52:004;-1.3982137;11.568783;-0.30645782
11:31:52:004;-1.3982137;11.568783;-0.30645782
11:31:52:004;-1.3982137;11.568783;-0.30645782
11:31:52:004;-1.3982137;11.568783;-0.30645782
11:31:52:004;-1.3982137;11.568783;-0.30645782
11:31:52:004;-1.3982137;11.568783;-0.30645782
11:31:52:004;-1.3982137;11.568783;-0.30645782
11:31:52:004;-1.3982137;11.568783;-0.30645782
11:31:52:004;-1.3982137;11.568783;-0.30645782
11:31:52:121;-0.7469909;9.078813;1.7621324
11:31:52:121;-0.7469909;9.078813;1.7621324
11:31:52:121;-0.7469909;9.078813;1.7621324
11:31:52:121;-0.7469909;9.078813;1.7621324
11:31:52:121;-0.7469909;9.078813;1.7621324
11:31:52:121;-0.7469909;9.078813;1.7621324
11:31:52:121;-0.7469909;9.078813;1.7621324
11:31:52:121;-0.7469909;9.078813;1.7621324
11:31:52:121;-0.7469909;9.078813;1.7621324
11:31:52:121;-0.7469909;9.078813;1.7621324
11:31:52:121;-0.7469909;9.078813;1.7621324
11:31:52:121;-0.7469909;9.078813;1.7621324
11:31:52:121;-0.7469909;9.078813;1.7621324
11:31:52:121;-0.7469909;9.078813;1.7621324
11:31:52:121;-0.7469909;9.078813;1.7621324
11:31:52:121;-0.7469909;9.078813;1.7621324
11:31:52:247;-1.1492168;8.542512;1.5897499
11:31:52:247;-1.1492168;8.542512;1.5897499
11:31:52:247;-1.1492168;8.542512;1.5897499
11:31:52:247;-1.1492168;8.542512;1.5897499
11:31:52:247;-1.1492168;8.542512;1.5897499
11:31:52:247;-1.1492168;8.542512;1.5897499
11:31:52:247;-1.1492168;8.542512;1.5897499
11:31:52:247;-1.1492168;8.542512;1.5897499
11:31:52:247;-1.1492168;8.542512;1.5897499
11:31:52:247;-1.1492168;8.542512;1.5897499
11:31:52:247;-1.1492168;8.542512;1.5897499
11:31:52:247;-1.1492168;8.542512;1.5897499
11:31:52:247;-1.1492168;8.542512;1.5897499
11:31:52:247;-1.1492168;8.542512;1.5897499
11:31:52:247;-1.1492168;8.542512;1.5897499
11:31:52:247;-1.1492168;8.542512;1.5897499
11:31:52:247;-1.1492168;8.542512;1.5897499
11:31:52:247;-1.1492168;8.542512;1.5897499
11:31:52:247;-1.1492168;8.542512;1.5897499
11:31:52:247;-1.1492168;8.542512;1.5897499
11:31:52:402;-0.7278373;9.653421;0.05746084
11:31:52:402;-0.7278373;9.653421;0.05746084
11:31:52:402;-0.7278373;9.653421;0.05746084
11:31:52:402;-0.7278373;9.653421;0.05746084
11:31:52:402;-0.7278373;9.653421;0.05746084
11:31:52:402;-0.7278373;9.653421;0.05746084
11:31:52:402;-0.7278373;9.653421;0.05746084
11:31:52:402;-0.7278373;9.653421;0.05746084
11:31:52:402;-0.7278373;9.653421;0.05746084
11:31:52:402;-0.7278373;9.653421;0.05746084
11:31:52:402;-0.7278373;9.653421;0.05746084
11:31:52:402;-0.7278373;9.653421;0.05746084
11:31:52:402;-0.7278373;9.653421;0.05746084
11:31:52:501;-0.9959879;9.11712;-0.19153613
11:31:52:501;-0.9959879;9.11712;-0.19153613
11:31:52:501;-0.9959879;9.11712;-0.19153613
11:31:52:501;-0.9959879;9.11712;-0.19153613
11:31:52:501;-0.9959879;9.11712;-0.19153613
11:31:52:501;-0.9959879;9.11712;-0.19153613
11:31:52:501;-0.9959879;9.11712;-0.19153613
11:31:52:501;-0.9959879;9.11712;-0.19153613
11:31:52:501;-0.9959879;9.11712;-0.19153613
11:31:52:501;-0.9959879;9.11712;-0.19153613
11:31:52:501;-0.9959879;9.11712;-0.19153613
11:31:52:501;-0.9959879;9.11712;-0.19153613
11:31:52:501;-0.9959879;9.11712;-0.19153613
11:31:52:501;-0.9959879;9.11712;-0.19153613
11:31:52:501;-0.9959879;9.11712;-0.19153613
11:31:52:620;-0.9959879;10.879252;-1.283292
11:31:52:620;-0.9959879;10.879252;-1.283292
11:31:52:620;-0.9959879;10.879252;-1.283292
11:31:52:620;-0.9959879;10.879252;-1.283292
11:31:52:620;-0.9959879;10.879252;-1.283292
11:31:52:620;-0.9959879;10.879252;-1.283292
11:31:52:620;-0.9959879;10.879252;-1.283292
11:31:52:620;-0.9959879;10.879252;-1.283292
11:31:52:620;-0.9959879;10.879252;-1.283292
11:31:52:620;-0.9959879;10.879252;-1.283292
11:31:52:620;-0.9959879;10.879252;-1.283292
11:31:52:620;-0.9959879;10.879252;-1.283292
11:31:52:620;-0.9959879;10.879252;-1.283292
11:31:52:620;-0.9959879;10.879252;-1.283292
11:31:52:620;-0.9959879;10.879252;-1.283292
11:31:52:620;-0.9959879;10.879252;-1.283292
11:31:52:620;-0.9959879;10.879252;-1.283292
11:31:52:756;-1.5514427;11.434708;-0.30645782
11:31:52:756;-1.5514427;11.434708;-0.30645782
11:31:52:756;-1.5514427;11.434708;-0.30645782
11:31:52:756;-1.5514427;11.434708;-0.30645782
11:31:52:756;-1.5514427;11.434708;-0.30645782
11:31:52:756;-1.5514427;11.434708;-0.30645782
11:31:52:756;-1.5514427;11.434708;-0.30645782
11:31:52:756;-1.5514427;11.434708;-0.30645782
11:31:52:756;-1.5514427;11.434708;-0.30645782
11:31:52:756;-1.5514427;11.434708;-0.30645782
11:31:52:756;-1.5514427;11.434708;-0.30645782
11:31:52:756;-1.5514427;11.434708;-0.30645782
11:31:52:756;-1.5514427;11.434708;-0.30645782
11:31:52:857;-0.5746084;8.963891;1.0534488
11:31:52:857;-0.5746084;8.963891;1.0534488
11:31:52:857;-0.5746084;8.963891;1.0534488
11:31:52:857;-0.5746084;8.963891;1.0534488
11:31:52:857;-0.5746084;8.963891;1.0534488
11:31:52:857;-0.5746084;8.963891;1.0534488
11:31:52:857;-0.5746084;8.963891;1.0534488
11:31:52:857;-0.5746084;8.963891;1.0534488
11:31:52:857;-0.5746084;8.963891;1.0534488
11:31:52:857;-0.5746084;8.963891;1.0534488
11:31:52:857;-0.5746084;8.963891;1.0534488
11:31:52:857;-0.5746084;8.963891;1.0534488
11:31:52:857;-0.5746084;8.963891;1.0534488
11:31:52:959;-1.283292;11.224017;-0.90021986
11:31:52:959;-1.283292;11.224017;-0.90021986
11:31:52:959;-1.283292;11.224017;-0.90021986
11:31:52:959;-1.283292;11.224017;-0.90021986
11:31:52:959;-1.283292;11.224017;-0.90021986
11:31:52:959;-1.283292;11.224017;-0.90021986
11:31:52:959;-1.283292;11.224017;-0.90021986
11:31:52:959;-1.283292;11.224017;-0.90021986
11:31:52:959;-1.283292;11.224017;-0.90021986
11:31:52:959;-1.283292;11.224017;-0.90021986
11:31:52:959;-1.283292;11.224017;-0.90021986
11:31:52:959;-1.283292;11.224017;-0.90021986
11:31:52:959;-1.283292;11.224017;-0.90021986
11:31:52:959;-1.283292;11.224017;-0.90021986
11:31:52:959;-1.283292;11.224017;-0.90021986
11:31:53:078;-0.9768343;7.7572136;2.0111294
11:31:53:078;-0.9768343;7.7572136;2.0111294
11:31:53:078;-0.9768343;7.7572136;2.0111294
11:31:53:078;-0.9768343;7.7572136;2.0111294
11:31:53:078;-0.9768343;7.7572136;2.0111294
11:31:53:078;-0.9768343;7.7572136;2.0111294
11:31:53:078;-0.9768343;7.7572136;2.0111294
11:31:53:078;-0.9768343;7.7572136;2.0111294
11:31:53:078;-0.9768343;7.7572136;2.0111294
11:31:53:078;-0.9768343;7.7572136;2.0111294
11:31:53:078;-0.9768343;7.7572136;2.0111294
11:31:53:078;-0.9768343;7.7572136;2.0111294
11:31:53:078;-0.9768343;7.7572136;2.0111294
11:31:53:078;-0.9768343;7.7572136;2.0111294
11:31:53:182;-0.9768343;9.442732;0.7086837
11:31:53:182;-0.9768343;9.442732;0.7086837
11:31:53:182;-0.9768343;9.442732;0.7086837
11:31:53:182;-0.9768343;9.442732;0.7086837
11:31:53:182;-0.9768343;9.442732;0.7086837
11:31:53:182;-0.9768343;9.442732;0.7086837
