Time_Accel;AccelX;AccelY;AccelZ
09:57:56:927;0.076614454;10.5919485;0.36391866
09:57:56:927;0.076614454;10.5919485;0.36391866
09:57:56:927;0.076614454;10.5919485;0.36391866
09:57:56:927;0.076614454;10.5919485;0.36391866
09:57:56:927;0.076614454;10.5919485;0.36391866
09:57:57:042;0.095768064;10.055647;0.05746084
09:57:57:042;0.095768064;10.055647;0.05746084
09:57:57:042;0.095768064;10.055647;0.05746084
09:57:57:042;0.095768064;10.055647;0.05746084
09:57:57:042;0.095768064;10.055647;0.05746084
09:57:57:042;0.095768064;10.055647;0.05746084
09:57:57:042;0.095768064;10.055647;0.05746084
09:57:57:042;0.095768064;10.055647;0.05746084
09:57:57:042;0.095768064;10.055647;0.05746084
09:57:57:042;0.095768064;10.055647;0.05746084
09:57:57:042;0.095768064;10.055647;0.05746084
09:57:57:042;0.095768064;10.055647;0.05746084
09:57:57:042;0.095768064;10.055647;0.05746084
09:57:57:042;0.095768064;10.055647;0.05746084
09:57:57:042;0.095768064;10.055647;0.05746084
09:57:57:042;0.095768064;10.055647;0.05746084
09:57:57:171;-0.1340753;9.787497;-0.038307227
09:57:57:171;-0.1340753;9.787497;-0.038307227
09:57:57:171;-0.1340753;9.787497;-0.038307227
09:57:57:171;-0.1340753;9.787497;-0.038307227
09:57:57:171;-0.1340753;9.787497;-0.038307227
09:57:57:171;-0.1340753;9.787497;-0.038307227
09:57:57:171;-0.1340753;9.787497;-0.038307227
09:57:57:171;-0.1340753;9.787497;-0.038307227
09:57:57:171;-0.1340753;9.787497;-0.038307227
09:57:57:171;-0.1340753;9.787497;-0.038307227
09:57:57:171;-0.1340753;9.787497;-0.038307227
09:57:57:171;-0.1340753;9.787497;-0.038307227
09:57:57:171;-0.1340753;9.787497;-0.038307227
09:57:57:171;-0.1340753;9.787497;-0.038307227
09:57:57:171;-0.1340753;9.787497;-0.038307227
09:57:57:286;-0.1340753;9.825804;-0.019153614
09:57:57:286;-0.1340753;9.825804;-0.019153614
09:57:57:286;-0.1340753;9.825804;-0.019153614
09:57:57:286;-0.1340753;9.825804;-0.019153614
09:57:57:286;-0.1340753;9.825804;-0.019153614
09:57:57:286;-0.1340753;9.825804;-0.019153614
09:57:57:286;-0.1340753;9.825804;-0.019153614
09:57:57:286;-0.1340753;9.825804;-0.019153614
09:57:57:286;-0.1340753;9.825804;-0.019153614
09:57:57:286;-0.1340753;9.825804;-0.019153614
09:57:57:286;-0.1340753;9.825804;-0.019153614
09:57:57:286;-0.1340753;9.825804;-0.019153614
09:57:57:286;-0.1340753;9.825804;-0.019153614
09:57:57:387;-0.05746084;10.093954;0.2681506
09:57:57:387;-0.05746084;10.093954;0.2681506
09:57:57:387;-0.05746084;10.093954;0.2681506
09:57:57:387;-0.05746084;10.093954;0.2681506
09:57:57:387;-0.05746084;10.093954;0.2681506
09:57:57:387;-0.05746084;10.093954;0.2681506
09:57:57:387;-0.05746084;10.093954;0.2681506
09:57:57:387;-0.05746084;10.093954;0.2681506
09:57:57:387;-0.05746084;10.093954;0.2681506
09:57:57:387;-0.05746084;10.093954;0.2681506
09:57:57:387;-0.05746084;10.093954;0.2681506
09:57:57:387;-0.05746084;10.093954;0.2681506
09:57:57:387;-0.05746084;10.093954;0.2681506
09:57:57:387;-0.05746084;10.093954;0.2681506
09:57:57:387;-0.05746084;10.093954;0.2681506
09:57:57:387;-0.05746084;10.093954;0.2681506
09:57:57:510;0.019153614;9.998186;0.076614454
09:57:57:510;0.019153614;9.998186;0.076614454
09:57:57:510;0.019153614;9.998186;0.076614454
09:57:57:510;0.019153614;9.998186;0.076614454
09:57:57:510;0.019153614;9.998186;0.076614454
09:57:57:510;0.019153614;9.998186;0.076614454
09:57:57:510;0.019153614;9.998186;0.076614454
09:57:57:510;0.019153614;9.998186;0.076614454
09:57:57:510;0.019153614;9.998186;0.076614454
09:57:57:510;0.019153614;9.998186;0.076614454
09:57:57:510;0.019153614;9.998186;0.076614454
09:57:57:510;0.019153614;9.998186;0.076614454
09:57:57:510;0.019153614;9.998186;0.076614454
09:57:57:510;0.019153614;9.998186;0.076614454
09:57:57:624;0.038307227;10.01734;0.095768064
09:57:57:624;0.038307227;10.01734;0.095768064
09:57:57:624;0.038307227;10.01734;0.095768064
09:57:57:624;0.038307227;10.01734;0.095768064
09:57:57:624;0.038307227;10.01734;0.095768064
09:57:57:624;0.038307227;10.01734;0.095768064
09:57:57:624;0.038307227;10.01734;0.095768064
09:57:57:624;0.038307227;10.01734;0.095768064
09:57:57:624;0.038307227;10.01734;0.095768064
09:57:57:624;0.038307227;10.01734;0.095768064
09:57:57:624;0.038307227;10.01734;0.095768064
09:57:57:624;0.038307227;10.01734;0.095768064
09:57:57:624;0.038307227;10.01734;0.095768064
09:57:57:624;0.038307227;10.01734;0.095768064
09:57:57:734;0.076614454;9.940725;0.15322891
09:57:57:734;0.076614454;9.940725;0.15322891
09:57:57:734;0.076614454;9.940725;0.15322891
09:57:57:734;0.076614454;9.940725;0.15322891
09:57:57:734;0.076614454;9.940725;0.15322891
09:57:57:734;0.076614454;9.940725;0.15322891
09:57:57:734;0.076614454;9.940725;0.15322891
09:57:57:734;0.076614454;9.940725;0.15322891
09:57:57:734;0.076614454;9.940725;0.15322891
09:57:57:734;0.076614454;9.940725;0.15322891
09:57:57:734;0.076614454;9.940725;0.15322891
09:57:57:734;0.076614454;9.940725;0.15322891
09:57:57:734;0.076614454;9.940725;0.15322891
09:57:57:734;0.076614454;9.940725;0.15322891
09:57:57:734;0.076614454;9.940725;0.15322891
09:57:57:845;-0.095768064;9.902418;0.1340753
09:57:57:845;-0.095768064;9.902418;0.1340753
09:57:57:845;-0.095768064;9.902418;0.1340753
09:57:57:845;-0.095768064;9.902418;0.1340753
09:57:57:845;-0.095768064;9.902418;0.1340753
09:57:57:845;-0.095768064;9.902418;0.1340753
09:57:57:845;-0.095768064;9.902418;0.1340753
09:57:57:845;-0.095768064;9.902418;0.1340753
09:57:57:845;-0.095768064;9.902418;0.1340753
09:57:57:845;-0.095768064;9.902418;0.1340753
09:57:57:845;-0.095768064;9.902418;0.1340753
09:57:57:845;-0.095768064;9.902418;0.1340753
09:57:57:845;-0.095768064;9.902418;0.1340753
09:57:57:845;-0.095768064;9.902418;0.1340753
09:57:57:845;-0.095768064;9.902418;0.1340753
09:57:57:967;-0.11492168;9.998186;0.1340753
09:57:57:967;-0.11492168;9.998186;0.1340753
09:57:57:967;-0.11492168;9.998186;0.1340753
09:57:57:967;-0.11492168;9.998186;0.1340753
09:57:57:967;-0.11492168;9.998186;0.1340753
09:57:57:967;-0.11492168;9.998186;0.1340753
09:57:57:967;-0.11492168;9.998186;0.1340753
09:57:57:967;-0.11492168;9.998186;0.1340753
09:57:57:967;-0.11492168;9.998186;0.1340753
09:57:57:967;-0.11492168;9.998186;0.1340753
09:57:57:967;-0.11492168;9.998186;0.1340753
09:57:57:967;-0.11492168;9.998186;0.1340753
09:57:57:967;-0.11492168;9.998186;0.1340753
09:57:57:967;-0.11492168;9.998186;0.1340753
09:57:58:075;-0.19153613;10.093954;0.019153614
09:57:58:075;-0.19153613;10.093954;0.019153614
09:57:58:075;-0.19153613;10.093954;0.019153614
09:57:58:075;-0.19153613;10.093954;0.019153614
09:57:58:075;-0.19153613;10.093954;0.019153614
09:57:58:075;-0.19153613;10.093954;0.019153614
09:57:58:075;-0.19153613;10.093954;0.019153614
09:57:58:075;-0.19153613;10.093954;0.019153614
09:57:58:075;-0.19153613;10.093954;0.019153614
09:57:58:075;-0.19153613;10.093954;0.019153614
09:57:58:075;-0.19153613;10.093954;0.019153614
09:57:58:075;-0.19153613;10.093954;0.019153614
09:57:58:075;-0.19153613;10.093954;0.019153614
09:57:58:075;-0.19153613;10.093954;0.019153614
09:57:58:075;-0.19153613;10.093954;0.019153614
09:57:58:075;-0.19153613;10.093954;0.019153614
09:57:58:201;-0.11492168;9.998186;-0.11492168
09:57:58:201;-0.11492168;9.998186;-0.11492168
09:57:58:201;-0.11492168;9.998186;-0.11492168
09:57:58:201;-0.11492168;9.998186;-0.11492168
09:57:58:201;-0.11492168;9.998186;-0.11492168
09:57:58:201;-0.11492168;9.998186;-0.11492168
09:57:58:201;-0.11492168;9.998186;-0.11492168
09:57:58:201;-0.11492168;9.998186;-0.11492168
09:57:58:201;-0.11492168;9.998186;-0.11492168
09:57:58:201;-0.11492168;9.998186;-0.11492168
09:57:58:201;-0.11492168;9.998186;-0.11492168
09:57:58:201;-0.11492168;9.998186;-0.11492168
09:57:58:201;-0.11492168;9.998186;-0.11492168
09:57:58:201;-0.11492168;9.998186;-0.11492168
09:57:58:310;0.019153614;10.01734;0.15322891
09:57:58:310;0.019153614;10.01734;0.15322891
09:57:58:310;0.019153614;10.01734;0.15322891
09:57:58:310;0.019153614;10.01734;0.15322891
09:57:58:310;0.019153614;10.01734;0.15322891
09:57:58:310;0.019153614;10.01734;0.15322891
09:57:58:310;0.019153614;10.01734;0.15322891
09:57:58:310;0.019153614;10.01734;0.15322891
09:57:58:310;0.019153614;10.01734;0.15322891
09:57:58:310;0.019153614;10.01734;0.15322891
09:57:58:310;0.019153614;10.01734;0.15322891
09:57:58:310;0.019153614;10.01734;0.15322891
09:57:58:310;0.019153614;10.01734;0.15322891
09:57:58:310;0.019153614;10.01734;0.15322891
09:57:58:310;0.019153614;10.01734;0.15322891
09:57:58:310;0.019153614;10.01734;0.15322891
09:57:58:310;0.019153614;10.01734;0.15322891
09:57:58:310;0.019153614;10.01734;0.15322891
09:57:58:310;0.019153614;10.01734;0.15322891
09:57:58:310;0.019153614;10.01734;0.15322891
09:57:58:462;-0.095768064;10.0748005;0.15322891
09:57:58:462;-0.095768064;10.0748005;0.15322891
09:57:58:462;-0.095768064;10.0748005;0.15322891
09:57:58:462;-0.095768064;10.0748005;0.15322891
09:57:58:462;-0.095768064;10.0748005;0.15322891
09:57:58:462;-0.095768064;10.0748005;0.15322891
09:57:58:462;-0.095768064;10.0748005;0.15322891
09:57:58:462;-0.095768064;10.0748005;0.15322891
09:57:58:462;-0.095768064;10.0748005;0.15322891
09:57:58:462;-0.095768064;10.0748005;0.15322891
09:57:58:462;-0.095768064;10.0748005;0.15322891
09:57:58:462;-0.095768064;10.0748005;0.15322891
09:57:58:462;-0.095768064;10.0748005;0.15322891
09:57:58:567;-0.05746084;10.132261;-0.21068975
09:57:58:567;-0.05746084;10.132261;-0.21068975
09:57:58:567;-0.05746084;10.132261;-0.21068975
09:57:58:567;-0.05746084;10.132261;-0.21068975
09:57:58:567;-0.05746084;10.132261;-0.21068975
09:57:58:567;-0.05746084;10.132261;-0.21068975
09:57:58:567;-0.05746084;10.132261;-0.21068975
09:57:58:567;-0.05746084;10.132261;-0.21068975
09:57:58:567;-0.05746084;10.132261;-0.21068975
09:57:58:567;-0.05746084;10.132261;-0.21068975
09:57:58:567;-0.05746084;10.132261;-0.21068975
09:57:58:567;-0.05746084;10.132261;-0.21068975
09:57:58:567;-0.05746084;10.132261;-0.21068975
09:57:58:567;-0.05746084;10.132261;-0.21068975
09:57:58:675;-0.15322891;10.381259;-0.2873042
09:57:58:675;-0.15322891;10.381259;-0.2873042
09:57:58:675;-0.15322891;10.381259;-0.2873042
09:57:58:675;-0.15322891;10.381259;-0.2873042
09:57:58:675;-0.15322891;10.381259;-0.2873042
09:57:58:675;-0.15322891;10.381259;-0.2873042
09:57:58:675;-0.15322891;10.381259;-0.2873042
09:57:58:675;-0.15322891;10.381259;-0.2873042
09:57:58:675;-0.15322891;10.381259;-0.2873042
09:57:58:675;-0.15322891;10.381259;-0.2873042
09:57:58:675;-0.15322891;10.381259;-0.2873042
09:57:58:675;-0.15322891;10.381259;-0.2873042
09:57:58:675;-0.15322891;10.381259;-0.2873042
09:57:58:675;-0.15322891;10.381259;-0.2873042
09:57:58:675;-0.15322891;10.381259;-0.2873042
09:57:58:675;-0.15322891;10.381259;-0.2873042
09:57:58:675;-0.15322891;10.381259;-0.2873042
09:57:58:675;-0.15322891;10.381259;-0.2873042
09:57:58:814;-0.019153614;10.01734;0.05746084
09:57:58:814;-0.019153614;10.01734;0.05746084
09:57:58:814;-0.019153614;10.01734;0.05746084
09:57:58:814;-0.019153614;10.01734;0.05746084
09:57:58:814;-0.019153614;10.01734;0.05746084
09:57:58:814;-0.019153614;10.01734;0.05746084
09:57:58:814;-0.019153614;10.01734;0.05746084
09:57:58:814;-0.019153614;10.01734;0.05746084
09:57:58:814;-0.019153614;10.01734;0.05746084
09:57:58:814;-0.019153614;10.01734;0.05746084
09:57:58:814;-0.019153614;10.01734;0.05746084
09:57:58:814;-0.019153614;10.01734;0.05746084
09:57:58:814;-0.019153614;10.01734;0.05746084
09:57:58:919;0.11492168;10.0748005;0.24899697
09:57:58:919;0.11492168;10.0748005;0.24899697
09:57:58:919;0.11492168;10.0748005;0.24899697
09:57:58:919;0.11492168;10.0748005;0.24899697
09:57:58:919;0.11492168;10.0748005;0.24899697
09:57:58:919;0.11492168;10.0748005;0.24899697
09:57:58:919;0.11492168;10.0748005;0.24899697
09:57:58:919;0.11492168;10.0748005;0.24899697
09:57:58:919;0.11492168;10.0748005;0.24899697
09:57:58:919;0.11492168;10.0748005;0.24899697
09:57:58:919;0.11492168;10.0748005;0.24899697
09:57:58:919;0.11492168;10.0748005;0.24899697
09:57:58:919;0.11492168;10.0748005;0.24899697
09:57:58:919;0.11492168;10.0748005;0.24899697
09:57:58:919;0.11492168;10.0748005;0.24899697
09:57:59:037;0.038307227;9.902418;0.19153613
09:57:59:037;0.038307227;9.902418;0.19153613
09:57:59:037;0.038307227;9.902418;0.19153613
09:57:59:037;0.038307227;9.902418;0.19153613
09:57:59:037;0.038307227;9.902418;0.19153613
09:57:59:037;0.038307227;9.902418;0.19153613
09:57:59:037;0.038307227;9.902418;0.19153613
09:57:59:037;0.038307227;9.902418;0.19153613
09:57:59:037;0.038307227;9.902418;0.19153613
09:57:59:037;0.038307227;9.902418;0.19153613
09:57:59:037;0.038307227;9.902418;0.19153613
09:57:59:037;0.038307227;9.902418;0.19153613
09:57:59:037;0.038307227;9.902418;0.19153613
09:57:59:037;0.038307227;9.902418;0.19153613
09:57:59:037;0.038307227;9.902418;0.19153613
09:57:59:154;0.095768064;10.0748005;0.11492168
09:57:59:154;0.095768064;10.0748005;0.11492168
09:57:59:154;0.095768064;10.0748005;0.11492168
09:57:59:154;0.095768064;10.0748005;0.11492168
09:57:59:154;0.095768064;10.0748005;0.11492168
09:57:59:154;0.095768064;10.0748005;0.11492168
09:57:59:154;0.095768064;10.0748005;0.11492168
09:57:59:154;0.095768064;10.0748005;0.11492168
09:57:59:154;0.095768064;10.0748005;0.11492168
09:57:59:154;0.095768064;10.0748005;0.11492168
09:57:59:154;0.095768064;10.0748005;0.11492168
09:57:59:154;0.095768064;10.0748005;0.11492168
09:57:59:154;0.095768064;10.0748005;0.11492168
09:57:59:154;0.095768064;10.0748005;0.11492168
09:57:59:154;0.095768064;10.0748005;0.11492168
09:57:59:154;0.095768064;10.0748005;0.11492168
09:57:59:275;-0.019153614;9.998186;0.21068975
09:57:59:275;-0.019153614;9.998186;0.21068975
09:57:59:275;-0.019153614;9.998186;0.21068975
09:57:59:275;-0.019153614;9.998186;0.21068975
09:57:59:275;-0.019153614;9.998186;0.21068975
09:57:59:275;-0.019153614;9.998186;0.21068975
09:57:59:275;-0.019153614;9.998186;0.21068975
09:57:59:275;-0.019153614;9.998186;0.21068975
09:57:59:275;-0.019153614;9.998186;0.21068975
09:57:59:275;-0.019153614;9.998186;0.21068975
09:57:59:275;-0.019153614;9.998186;0.21068975
09:57:59:275;-0.019153614;9.998186;0.21068975
09:57:59:275;-0.019153614;9.998186;0.21068975
09:57:59:275;-0.019153614;9.998186;0.21068975
09:57:59:275;-0.019153614;9.998186;0.21068975
09:57:59:393;0.05746084;10.055647;0.15322891
09:57:59:393;0.05746084;10.055647;0.15322891
09:57:59:393;0.05746084;10.055647;0.15322891
09:57:59:393;0.05746084;10.055647;0.15322891
09:57:59:393;0.05746084;10.055647;0.15322891
09:57:59:393;0.05746084;10.055647;0.15322891
09:57:59:393;0.05746084;10.055647;0.15322891
09:57:59:393;0.05746084;10.055647;0.15322891
09:57:59:393;0.05746084;10.055647;0.15322891
09:57:59:393;0.05746084;10.055647;0.15322891
09:57:59:393;0.05746084;10.055647;0.15322891
09:57:59:393;0.05746084;10.055647;0.15322891
09:57:59:393;0.05746084;10.055647;0.15322891
09:57:59:393;0.05746084;10.055647;0.15322891
09:57:59:393;0.05746084;10.055647;0.15322891
09:57:59:512;0.15322891;9.9790325;0.076614454
09:57:59:512;0.15322891;9.9790325;0.076614454
09:57:59:512;0.15322891;9.9790325;0.076614454
09:57:59:512;0.15322891;9.9790325;0.076614454
09:57:59:512;0.15322891;9.9790325;0.076614454
09:57:59:512;0.15322891;9.9790325;0.076614454
09:57:59:512;0.15322891;9.9790325;0.076614454
09:57:59:512;0.15322891;9.9790325;0.076614454
09:57:59:512;0.15322891;9.9790325;0.076614454
09:57:59:512;0.15322891;9.9790325;0.076614454
09:57:59:512;0.15322891;9.9790325;0.076614454
09:57:59:512;0.15322891;9.9790325;0.076614454
09:57:59:512;0.15322891;9.9790325;0.076614454
09:57:59:512;0.15322891;9.9790325;0.076614454
09:57:59:512;0.15322891;9.9790325;0.076614454
09:57:59:629;0.076614454;9.940725;0.19153613
09:57:59:629;0.076614454;9.940725;0.19153613
09:57:59:629;0.076614454;9.940725;0.19153613
09:57:59:629;0.076614454;9.940725;0.19153613
09:57:59:629;0.076614454;9.940725;0.19153613
09:57:59:629;0.076614454;9.940725;0.19153613
09:57:59:629;0.076614454;9.940725;0.19153613
09:57:59:629;0.076614454;9.940725;0.19153613
09:57:59:629;0.076614454;9.940725;0.19153613
09:57:59:629;0.076614454;9.940725;0.19153613
09:57:59:629;0.076614454;9.940725;0.19153613
09:57:59:629;0.076614454;9.940725;0.19153613
09:57:59:629;0.076614454;9.940725;0.19153613
09:57:59:730;-0.076614454;10.01734;0.076614454
09:57:59:730;-0.076614454;10.01734;0.076614454
09:57:59:730;-0.076614454;10.01734;0.076614454
09:57:59:730;-0.076614454;10.01734;0.076614454
09:57:59:730;-0.076614454;10.01734;0.076614454
09:57:59:730;-0.076614454;10.01734;0.076614454
09:57:59:730;-0.076614454;10.01734;0.076614454
09:57:59:730;-0.076614454;10.01734;0.076614454
09:57:59:730;-0.076614454;10.01734;0.076614454
09:57:59:730;-0.076614454;10.01734;0.076614454
09:57:59:730;-0.076614454;10.01734;0.076614454
09:57:59:730;-0.076614454;10.01734;0.076614454
09:57:59:730;-0.076614454;10.01734;0.076614454
09:57:59:834;0.05746084;9.9790325;0.05746084
09:57:59:834;0.05746084;9.9790325;0.05746084
09:57:59:834;0.05746084;9.9790325;0.05746084
09:57:59:834;0.05746084;9.9790325;0.05746084
09:57:59:834;0.05746084;9.9790325;0.05746084
09:57:59:834;0.05746084;9.9790325;0.05746084
09:57:59:834;0.05746084;9.9790325;0.05746084
09:57:59:834;0.05746084;9.9790325;0.05746084
09:57:59:834;0.05746084;9.9790325;0.05746084
09:57:59:834;0.05746084;9.9790325;0.05746084
09:57:59:834;0.05746084;9.9790325;0.05746084
09:57:59:834;0.05746084;9.9790325;0.05746084
09:57:59:834;0.05746084;9.9790325;0.05746084
09:57:59:834;0.05746084;9.9790325;0.05746084
09:57:59:939;0.038307227;9.998186;0.019153614
09:57:59:939;0.038307227;9.998186;0.019153614
09:57:59:939;0.038307227;9.998186;0.019153614
09:57:59:939;0.038307227;9.998186;0.019153614
09:57:59:939;0.038307227;9.998186;0.019153614
09:57:59:939;0.038307227;9.998186;0.019153614
09:57:59:939;0.038307227;9.998186;0.019153614
09:57:59:939;0.038307227;9.998186;0.019153614
09:57:59:939;0.038307227;9.998186;0.019153614
09:57:59:939;0.038307227;9.998186;0.019153614
09:57:59:939;0.038307227;9.998186;0.019153614
09:57:59:939;0.038307227;9.998186;0.019153614
09:57:59:939;0.038307227;9.998186;0.019153614
09:57:59:939;0.038307227;9.998186;0.019153614
09:57:59:939;0.038307227;9.998186;0.019153614
09:58:00:057;-0.05746084;9.80665;0.2681506
09:58:00:057;-0.05746084;9.80665;0.2681506
09:58:00:057;-0.05746084;9.80665;0.2681506
09:58:00:057;-0.05746084;9.80665;0.2681506
09:58:00:057;-0.05746084;9.80665;0.2681506
09:58:00:057;-0.05746084;9.80665;0.2681506
09:58:00:057;-0.05746084;9.80665;0.2681506
09:58:00:057;-0.05746084;9.80665;0.2681506
09:58:00:057;-0.05746084;9.80665;0.2681506
09:58:00:057;-0.05746084;9.80665;0.2681506
09:58:00:057;-0.05746084;9.80665;0.2681506
09:58:00:057;-0.05746084;9.80665;0.2681506
09:58:00:057;-0.05746084;9.80665;0.2681506
09:58:00:057;-0.05746084;9.80665;0.2681506
09:58:00:057;-0.05746084;9.80665;0.2681506
09:58:00:174;0.095768064;9.787497;0.2873042
09:58:00:174;0.095768064;9.787497;0.2873042
09:58:00:174;0.095768064;9.787497;0.2873042
09:58:00:174;0.095768064;9.787497;0.2873042
09:58:00:174;0.095768064;9.787497;0.2873042
09:58:00:174;0.095768064;9.787497;0.2873042
09:58:00:174;0.095768064;9.787497;0.2873042
09:58:00:174;0.095768064;9.787497;0.2873042
09:58:00:174;0.095768064;9.787497;0.2873042
09:58:00:174;0.095768064;9.787497;0.2873042
09:58:00:174;0.095768064;9.787497;0.2873042
09:58:00:174;0.095768064;9.787497;0.2873042
09:58:00:174;0.095768064;9.787497;0.2873042
09:58:00:276;-0.05746084;9.710882;0.05746084
09:58:00:276;-0.05746084;9.710882;0.05746084
09:58:00:276;-0.05746084;9.710882;0.05746084
09:58:00:276;-0.05746084;9.710882;0.05746084
09:58:00:276;-0.05746084;9.710882;0.05746084
09:58:00:276;-0.05746084;9.710882;0.05746084
09:58:00:276;-0.05746084;9.710882;0.05746084
09:58:00:276;-0.05746084;9.710882;0.05746084
09:58:00:276;-0.05746084;9.710882;0.05746084
09:58:00:276;-0.05746084;9.710882;0.05746084
09:58:00:276;-0.05746084;9.710882;0.05746084
09:58:00:276;-0.05746084;9.710882;0.05746084
09:58:00:276;-0.05746084;9.710882;0.05746084
09:58:00:276;-0.05746084;9.710882;0.05746084
09:58:00:276;-0.05746084;9.710882;0.05746084
09:58:00:395;-0.038307227;10.055647;-0.22984336
09:58:00:395;-0.038307227;10.055647;-0.22984336
09:58:00:395;-0.038307227;10.055647;-0.22984336
09:58:00:395;-0.038307227;10.055647;-0.22984336
09:58:00:395;-0.038307227;10.055647;-0.22984336
09:58:00:395;-0.038307227;10.055647;-0.22984336
09:58:00:395;-0.038307227;10.055647;-0.22984336
09:58:00:395;-0.038307227;10.055647;-0.22984336
09:58:00:395;-0.038307227;10.055647;-0.22984336
09:58:00:395;-0.038307227;10.055647;-0.22984336
09:58:00:395;-0.038307227;10.055647;-0.22984336
09:58:00:395;-0.038307227;10.055647;-0.22984336
09:58:00:395;-0.038307227;10.055647;-0.22984336
09:58:00:497;0.21068975;10.093954;-0.30645782
09:58:00:497;0.21068975;10.093954;-0.30645782
09:58:00:497;0.21068975;10.093954;-0.30645782
09:58:00:497;0.21068975;10.093954;-0.30645782
09:58:00:497;0.21068975;10.093954;-0.30645782
09:58:00:497;0.21068975;10.093954;-0.30645782
09:58:00:497;0.21068975;10.093954;-0.30645782
09:58:00:497;0.21068975;10.093954;-0.30645782
09:58:00:497;0.21068975;10.093954;-0.30645782
09:58:00:497;0.21068975;10.093954;-0.30645782
09:58:00:497;0.21068975;10.093954;-0.30645782
09:58:00:497;0.21068975;10.093954;-0.30645782
09:58:00:497;0.21068975;10.093954;-0.30645782
09:58:00:497;0.21068975;10.093954;-0.30645782
09:58:00:497;0.21068975;10.093954;-0.30645782
09:58:00:612;0.05746084;9.998186;-0.38307226
09:58:00:612;0.05746084;9.998186;-0.38307226
09:58:00:612;0.05746084;9.998186;-0.38307226
09:58:00:612;0.05746084;9.998186;-0.38307226
09:58:00:612;0.05746084;9.998186;-0.38307226
09:58:00:612;0.05746084;9.998186;-0.38307226
09:58:00:612;0.05746084;9.998186;-0.38307226
09:58:00:612;0.05746084;9.998186;-0.38307226
09:58:00:612;0.05746084;9.998186;-0.38307226
09:58:00:612;0.05746084;9.998186;-0.38307226
09:58:00:612;0.05746084;9.998186;-0.38307226
09:58:00:612;0.05746084;9.998186;-0.38307226
09:58:00:612;0.05746084;9.998186;-0.38307226
09:58:00:612;0.05746084;9.998186;-0.38307226
09:58:00:612;0.05746084;9.998186;-0.38307226
09:58:00:733;-0.038307227;9.998186;-0.61291564
09:58:00:733;-0.038307227;9.998186;-0.61291564
09:58:00:733;-0.038307227;9.998186;-0.61291564
09:58:00:733;-0.038307227;9.998186;-0.61291564
09:58:00:733;-0.038307227;9.998186;-0.61291564
09:58:00:733;-0.038307227;9.998186;-0.61291564
09:58:00:733;-0.038307227;9.998186;-0.61291564
09:58:00:733;-0.038307227;9.998186;-0.61291564
09:58:00:733;-0.038307227;9.998186;-0.61291564
09:58:00:733;-0.038307227;9.998186;-0.61291564
09:58:00:733;-0.038307227;9.998186;-0.61291564
09:58:00:733;-0.038307227;9.998186;-0.61291564
09:58:00:733;-0.038307227;9.998186;-0.61291564
09:58:00:733;-0.038307227;9.998186;-0.61291564
09:58:00:733;-0.038307227;9.998186;-0.61291564
09:58:00:733;-0.038307227;9.998186;-0.61291564
09:58:00:733;-0.038307227;9.998186;-0.61291564
09:58:00:861;0.038307227;10.093954;-0.6895301
09:58:00:861;0.038307227;10.093954;-0.6895301
09:58:00:861;0.038307227;10.093954;-0.6895301
09:58:00:861;0.038307227;10.093954;-0.6895301
09:58:00:861;0.038307227;10.093954;-0.6895301
09:58:00:861;0.038307227;10.093954;-0.6895301
09:58:00:861;0.038307227;10.093954;-0.6895301
09:58:00:861;0.038307227;10.093954;-0.6895301
09:58:00:861;0.038307227;10.093954;-0.6895301
09:58:00:861;0.038307227;10.093954;-0.6895301
09:58:00:861;0.038307227;10.093954;-0.6895301
09:58:00:861;0.038307227;10.093954;-0.6895301
09:58:00:861;0.038307227;10.093954;-0.6895301
09:58:00:967;0.24899697;10.0748005;-0.5554548
09:58:00:967;0.24899697;10.0748005;-0.5554548
09:58:00:967;0.24899697;10.0748005;-0.5554548
09:58:00:967;0.24899697;10.0748005;-0.5554548
09:58:00:967;0.24899697;10.0748005;-0.5554548
09:58:00:967;0.24899697;10.0748005;-0.5554548
09:58:00:967;0.24899697;10.0748005;-0.5554548
09:58:00:967;0.24899697;10.0748005;-0.5554548
09:58:00:967;0.24899697;10.0748005;-0.5554548
09:58:00:967;0.24899697;10.0748005;-0.5554548
09:58:00:967;0.24899697;10.0748005;-0.5554548
09:58:00:967;0.24899697;10.0748005;-0.5554548
09:58:00:967;0.24899697;10.0748005;-0.5554548
09:58:00:967;0.24899697;10.0748005;-0.5554548
09:58:00:967;0.24899697;10.0748005;-0.5554548
09:58:00:967;0.24899697;10.0748005;-0.5554548
09:58:00:967;0.24899697;10.0748005;-0.5554548
09:58:00:967;0.24899697;10.0748005;-0.5554548
09:58:00:967;0.24899697;10.0748005;-0.5554548
09:58:00:967;0.24899697;10.0748005;-0.5554548
09:58:01:123;0.30645782;10.055647;-0.6703765
09:58:01:123;0.30645782;10.055647;-0.6703765
09:58:01:123;0.30645782;10.055647;-0.6703765
09:58:01:123;0.30645782;10.055647;-0.6703765
09:58:01:123;0.30645782;10.055647;-0.6703765
09:58:01:123;0.30645782;10.055647;-0.6703765
09:58:01:123;0.30645782;10.055647;-0.6703765
09:58:01:123;0.30645782;10.055647;-0.6703765
09:58:01:123;0.30645782;10.055647;-0.6703765
09:58:01:123;0.30645782;10.055647;-0.6703765
09:58:01:123;0.30645782;10.055647;-0.6703765
09:58:01:123;0.30645782;10.055647;-0.6703765
09:58:01:123;0.30645782;10.055647;-0.6703765
09:58:01:224;0.24899697;10.01734;-0.5746084
09:58:01:224;0.24899697;10.01734;-0.5746084
09:58:01:224;0.24899697;10.01734;-0.5746084
09:58:01:224;0.24899697;10.01734;-0.5746084
09:58:01:224;0.24899697;10.01734;-0.5746084
09:58:01:224;0.24899697;10.01734;-0.5746084
09:58:01:224;0.24899697;10.01734;-0.5746084
09:58:01:224;0.24899697;10.01734;-0.5746084
09:58:01:224;0.24899697;10.01734;-0.5746084
09:58:01:224;0.24899697;10.01734;-0.5746084
09:58:01:224;0.24899697;10.01734;-0.5746084
09:58:01:224;0.24899697;10.01734;-0.5746084
09:58:01:224;0.24899697;10.01734;-0.5746084
09:58:01:224;0.24899697;10.01734;-0.5746084
09:58:01:224;0.24899697;10.01734;-0.5746084
09:58:01:224;0.24899697;10.01734;-0.5746084
09:58:01:344;0.11492168;9.844957;-0.5363012
09:58:01:344;0.11492168;9.844957;-0.5363012
09:58:01:344;0.11492168;9.844957;-0.5363012
09:58:01:344;0.11492168;9.844957;-0.5363012
09:58:01:344;0.11492168;9.844957;-0.5363012
09:58:01:344;0.11492168;9.844957;-0.5363012
09:58:01:344;0.11492168;9.844957;-0.5363012
09:58:01:344;0.11492168;9.844957;-0.5363012
09:58:01:344;0.11492168;9.844957;-0.5363012
09:58:01:344;0.11492168;9.844957;-0.5363012
09:58:01:344;0.11492168;9.844957;-0.5363012
09:58:01:344;0.11492168;9.844957;-0.5363012
09:58:01:445;-0.15322891;9.998186;-0.47884035
09:58:01:445;-0.15322891;9.998186;-0.47884035
09:58:01:445;-0.15322891;9.998186;-0.47884035
09:58:01:445;-0.15322891;9.998186;-0.47884035
09:58:01:445;-0.15322891;9.998186;-0.47884035
09:58:01:445;-0.15322891;9.998186;-0.47884035
09:58:01:445;-0.15322891;9.998186;-0.47884035
09:58:01:445;-0.15322891;9.998186;-0.47884035
09:58:01:445;-0.15322891;9.998186;-0.47884035
09:58:01:445;-0.15322891;9.998186;-0.47884035
09:58:01:445;-0.15322891;9.998186;-0.47884035
09:58:01:445;-0.15322891;9.998186;-0.47884035
09:58:01:445;-0.15322891;9.998186;-0.47884035
09:58:01:445;-0.15322891;9.998186;-0.47884035
09:58:01:445;-0.15322891;9.998186;-0.47884035
09:58:01:445;-0.15322891;9.998186;-0.47884035
09:58:01:445;-0.15322891;9.998186;-0.47884035
09:58:01:571;-0.019153614;10.036493;-0.5554548
09:58:01:571;-0.019153614;10.036493;-0.5554548
09:58:01:571;-0.019153614;10.036493;-0.5554548
09:58:01:571;-0.019153614;10.036493;-0.5554548
09:58:01:571;-0.019153614;10.036493;-0.5554548
09:58:01:571;-0.019153614;10.036493;-0.5554548
09:58:01:571;-0.019153614;10.036493;-0.5554548
09:58:01:571;-0.019153614;10.036493;-0.5554548
09:58:01:571;-0.019153614;10.036493;-0.5554548
09:58:01:571;-0.019153614;10.036493;-0.5554548
09:58:01:571;-0.019153614;10.036493;-0.5554548
09:58:01:571;-0.019153614;10.036493;-0.5554548
09:58:01:571;-0.019153614;10.036493;-0.5554548
09:58:01:571;-0.019153614;10.036493;-0.5554548
09:58:01:682;-0.2873042;9.959879;-0.2681506
09:58:01:682;-0.2873042;9.959879;-0.2681506
09:58:01:682;-0.2873042;9.959879;-0.2681506
09:58:01:682;-0.2873042;9.959879;-0.2681506
09:58:01:682;-0.2873042;9.959879;-0.2681506
09:58:01:682;-0.2873042;9.959879;-0.2681506
09:58:01:682;-0.2873042;9.959879;-0.2681506
09:58:01:682;-0.2873042;9.959879;-0.2681506
09:58:01:682;-0.2873042;9.959879;-0.2681506
09:58:01:682;-0.2873042;9.959879;-0.2681506
09:58:01:682;-0.2873042;9.959879;-0.2681506
09:58:01:682;-0.2873042;9.959879;-0.2681506
09:58:01:682;-0.2873042;9.959879;-0.2681506
09:58:01:682;-0.2873042;9.959879;-0.2681506
09:58:01:682;-0.2873042;9.959879;-0.2681506
09:58:01:799;-0.2873042;9.940725;-0.11492168
09:58:01:799;-0.2873042;9.940725;-0.11492168
09:58:01:799;-0.2873042;9.940725;-0.11492168
09:58:01:799;-0.2873042;9.940725;-0.11492168
09:58:01:799;-0.2873042;9.940725;-0.11492168
09:58:01:799;-0.2873042;9.940725;-0.11492168
09:58:01:799;-0.2873042;9.940725;-0.11492168
09:58:01:799;-0.2873042;9.940725;-0.11492168
09:58:01:799;-0.2873042;9.940725;-0.11492168
09:58:01:799;-0.2873042;9.940725;-0.11492168
09:58:01:799;-0.2873042;9.940725;-0.11492168
09:58:01:799;-0.2873042;9.940725;-0.11492168
09:58:01:799;-0.2873042;9.940725;-0.11492168
09:58:01:799;-0.2873042;9.940725;-0.11492168
09:58:01:799;-0.2873042;9.940725;-0.11492168
09:58:01:920;-0.4405331;9.9790325;-0.4213795
09:58:01:920;-0.4405331;9.9790325;-0.4213795
09:58:01:920;-0.4405331;9.9790325;-0.4213795
09:58:01:920;-0.4405331;9.9790325;-0.4213795
09:58:01:920;-0.4405331;9.9790325;-0.4213795
09:58:01:920;-0.4405331;9.9790325;-0.4213795
09:58:01:920;-0.4405331;9.9790325;-0.4213795
09:58:01:920;-0.4405331;9.9790325;-0.4213795
09:58:01:920;-0.4405331;9.9790325;-0.4213795
09:58:01:920;-0.4405331;9.9790325;-0.4213795
09:58:01:920;-0.4405331;9.9790325;-0.4213795
09:58:01:920;-0.4405331;9.9790325;-0.4213795
09:58:01:920;-0.4405331;9.9790325;-0.4213795
09:58:01:920;-0.4405331;9.9790325;-0.4213795
09:58:02:029;-0.21068975;10.132261;-0.4213795
09:58:02:029;-0.21068975;10.132261;-0.4213795
09:58:02:029;-0.21068975;10.132261;-0.4213795
09:58:02:029;-0.21068975;10.132261;-0.4213795
09:58:02:029;-0.21068975;10.132261;-0.4213795
09:58:02:029;-0.21068975;10.132261;-0.4213795
09:58:02:029;-0.21068975;10.132261;-0.4213795
09:58:02:029;-0.21068975;10.132261;-0.4213795
09:58:02:029;-0.21068975;10.132261;-0.4213795
09:58:02:029;-0.21068975;10.132261;-0.4213795
09:58:02:029;-0.21068975;10.132261;-0.4213795
09:58:02:029;-0.21068975;10.132261;-0.4213795
09:58:02:029;-0.21068975;10.132261;-0.4213795
09:58:02:029;-0.21068975;10.132261;-0.4213795
09:58:02:029;-0.21068975;10.132261;-0.4213795
09:58:02:147;-0.45968673;9.844957;-0.61291564
09:58:02:147;-0.45968673;9.844957;-0.61291564
09:58:02:147;-0.45968673;9.844957;-0.61291564
09:58:02:147;-0.45968673;9.844957;-0.61291564
09:58:02:147;-0.45968673;9.844957;-0.61291564
09:58:02:147;-0.45968673;9.844957;-0.61291564
09:58:02:147;-0.45968673;9.844957;-0.61291564
09:58:02:147;-0.45968673;9.844957;-0.61291564
09:58:02:147;-0.45968673;9.844957;-0.61291564
09:58:02:147;-0.45968673;9.844957;-0.61291564
09:58:02:147;-0.45968673;9.844957;-0.61291564
09:58:02:147;-0.45968673;9.844957;-0.61291564
09:58:02:147;-0.45968673;9.844957;-0.61291564
09:58:02:147;-0.45968673;9.844957;-0.61291564
09:58:02:147;-0.45968673;9.844957;-0.61291564
09:58:02:265;-0.7278373;10.055647;-0.59376204
09:58:02:265;-0.7278373;10.055647;-0.59376204
09:58:02:265;-0.7278373;10.055647;-0.59376204
09:58:02:265;-0.7278373;10.055647;-0.59376204
09:58:02:265;-0.7278373;10.055647;-0.59376204
09:58:02:265;-0.7278373;10.055647;-0.59376204
09:58:02:265;-0.7278373;10.055647;-0.59376204
09:58:02:265;-0.7278373;10.055647;-0.59376204
09:58:02:265;-0.7278373;10.055647;-0.59376204
09:58:02:265;-0.7278373;10.055647;-0.59376204
09:58:02:265;-0.7278373;10.055647;-0.59376204
09:58:02:265;-0.7278373;10.055647;-0.59376204
09:58:02:265;-0.7278373;10.055647;-0.59376204
09:58:02:265;-0.7278373;10.055647;-0.59376204
09:58:02:265;-0.7278373;10.055647;-0.59376204
09:58:02:382;-0.15322891;10.0748005;-0.5554548
09:58:02:382;-0.15322891;10.0748005;-0.5554548
09:58:02:382;-0.15322891;10.0748005;-0.5554548
09:58:02:382;-0.15322891;10.0748005;-0.5554548
09:58:02:382;-0.15322891;10.0748005;-0.5554548
09:58:02:382;-0.15322891;10.0748005;-0.5554548
09:58:02:382;-0.15322891;10.0748005;-0.5554548
09:58:02:382;-0.15322891;10.0748005;-0.5554548
09:58:02:382;-0.15322891;10.0748005;-0.5554548
09:58:02:382;-0.15322891;10.0748005;-0.5554548
09:58:02:382;-0.15322891;10.0748005;-0.5554548
09:58:02:382;-0.15322891;10.0748005;-0.5554548
09:58:02:382;-0.15322891;10.0748005;-0.5554548
09:58:02:382;-0.15322891;10.0748005;-0.5554548
09:58:02:485;-0.11492168;9.959879;0.2681506
09:58:02:485;-0.11492168;9.959879;0.2681506
09:58:02:485;-0.11492168;9.959879;0.2681506
09:58:02:485;-0.11492168;9.959879;0.2681506
09:58:02:485;-0.11492168;9.959879;0.2681506
09:58:02:485;-0.11492168;9.959879;0.2681506
09:58:02:485;-0.11492168;9.959879;0.2681506
09:58:02:485;-0.11492168;9.959879;0.2681506
09:58:02:485;-0.11492168;9.959879;0.2681506
09:58:02:485;-0.11492168;9.959879;0.2681506
09:58:02:485;-0.11492168;9.959879;0.2681506
09:58:02:485;-0.11492168;9.959879;0.2681506
09:58:02:485;-0.11492168;9.959879;0.2681506
09:58:02:485;-0.11492168;9.959879;0.2681506
09:58:02:485;-0.11492168;9.959879;0.2681506
09:58:02:603;-0.2681506;10.228029;0.22984336
09:58:02:603;-0.2681506;10.228029;0.22984336
09:58:02:603;-0.2681506;10.228029;0.22984336
09:58:02:603;-0.2681506;10.228029;0.22984336
09:58:02:603;-0.2681506;10.228029;0.22984336
09:58:02:603;-0.2681506;10.228029;0.22984336
09:58:02:603;-0.2681506;10.228029;0.22984336
09:58:02:603;-0.2681506;10.228029;0.22984336
09:58:02:603;-0.2681506;10.228029;0.22984336
09:58:02:603;-0.2681506;10.228029;0.22984336
09:58:02:603;-0.2681506;10.228029;0.22984336
09:58:02:603;-0.2681506;10.228029;0.22984336
09:58:02:603;-0.2681506;10.228029;0.22984336
09:58:02:603;-0.2681506;10.228029;0.22984336
09:58:02:603;-0.2681506;10.228029;0.22984336
09:58:02:719;-0.24899697;10.113108;0.47884035
09:58:02:719;-0.24899697;10.113108;0.47884035
09:58:02:719;-0.24899697;10.113108;0.47884035
09:58:02:719;-0.24899697;10.113108;0.47884035
09:58:02:719;-0.24899697;10.113108;0.47884035
09:58:02:719;-0.24899697;10.113108;0.47884035
09:58:02:719;-0.24899697;10.113108;0.47884035
09:58:02:719;-0.24899697;10.113108;0.47884035
09:58:02:719;-0.24899697;10.113108;0.47884035
09:58:02:719;-0.24899697;10.113108;0.47884035
09:58:02:719;-0.24899697;10.113108;0.47884035
09:58:02:719;-0.24899697;10.113108;0.47884035
09:58:02:719;-0.24899697;10.113108;0.47884035
09:58:02:719;-0.24899697;10.113108;0.47884035
09:58:02:832;-0.2873042;9.80665;0.6512229
09:58:02:832;-0.2873042;9.80665;0.6512229
09:58:02:832;-0.2873042;9.80665;0.6512229
09:58:02:832;-0.2873042;9.80665;0.6512229
09:58:02:832;-0.2873042;9.80665;0.6512229
09:58:02:832;-0.2873042;9.80665;0.6512229
09:58:02:832;-0.2873042;9.80665;0.6512229
09:58:02:832;-0.2873042;9.80665;0.6512229
09:58:02:832;-0.2873042;9.80665;0.6512229
09:58:02:832;-0.2873042;9.80665;0.6512229
09:58:02:832;-0.2873042;9.80665;0.6512229
09:58:02:832;-0.2873042;9.80665;0.6512229
09:58:02:832;-0.2873042;9.80665;0.6512229
09:58:02:832;-0.2873042;9.80665;0.6512229
09:58:02:832;-0.2873042;9.80665;0.6512229
09:58:02:950;-0.24899697;9.864111;0.32561144
09:58:02:950;-0.24899697;9.864111;0.32561144
09:58:02:950;-0.24899697;9.864111;0.32561144
09:58:02:950;-0.24899697;9.864111;0.32561144
09:58:02:950;-0.24899697;9.864111;0.32561144
09:58:02:950;-0.24899697;9.864111;0.32561144
09:58:02:950;-0.24899697;9.864111;0.32561144
09:58:02:950;-0.24899697;9.864111;0.32561144
09:58:02:950;-0.24899697;9.864111;0.32561144
09:58:02:950;-0.24899697;9.864111;0.32561144
09:58:02:950;-0.24899697;9.864111;0.32561144
09:58:02:950;-0.24899697;9.864111;0.32561144
09:58:02:950;-0.24899697;9.864111;0.32561144
09:58:02:950;-0.24899697;9.864111;0.32561144
09:58:02:950;-0.24899697;9.864111;0.32561144
09:58:02:950;-0.24899697;9.864111;0.32561144
09:58:03:075;-0.19153613;10.132261;0.05746084
09:58:03:075;-0.19153613;10.132261;0.05746084
09:58:03:075;-0.19153613;10.132261;0.05746084
09:58:03:075;-0.19153613;10.132261;0.05746084
09:58:03:075;-0.19153613;10.132261;0.05746084
09:58:03:075;-0.19153613;10.132261;0.05746084
09:58:03:075;-0.19153613;10.132261;0.05746084
09:58:03:075;-0.19153613;10.132261;0.05746084
09:58:03:075;-0.19153613;10.132261;0.05746084
09:58:03:075;-0.19153613;10.132261;0.05746084
09:58:03:075;-0.19153613;10.132261;0.05746084
09:58:03:075;-0.19153613;10.132261;0.05746084
09:58:03:075;-0.19153613;10.132261;0.05746084
09:58:03:075;-0.19153613;10.132261;0.05746084
09:58:03:075;-0.19153613;10.132261;0.05746084
09:58:03:193;-0.11492168;10.151415;0.17238252
09:58:03:193;-0.11492168;10.151415;0.17238252
09:58:03:193;-0.11492168;10.151415;0.17238252
09:58:03:193;-0.11492168;10.151415;0.17238252
09:58:03:193;-0.11492168;10.151415;0.17238252
09:58:03:193;-0.11492168;10.151415;0.17238252
09:58:03:193;-0.11492168;10.151415;0.17238252
09:58:03:193;-0.11492168;10.151415;0.17238252
09:58:03:193;-0.11492168;10.151415;0.17238252
09:58:03:193;-0.11492168;10.151415;0.17238252
09:58:03:193;-0.11492168;10.151415;0.17238252
09:58:03:193;-0.11492168;10.151415;0.17238252
09:58:03:193;-0.11492168;10.151415;0.17238252
09:58:03:193;-0.11492168;10.151415;0.17238252
09:58:03:193;-0.11492168;10.151415;0.17238252
09:58:03:305;-0.2681506;9.864111;0.22984336
09:58:03:305;-0.2681506;9.864111;0.22984336
09:58:03:305;-0.2681506;9.864111;0.22984336
09:58:03:305;-0.2681506;9.864111;0.22984336
09:58:03:305;-0.2681506;9.864111;0.22984336
09:58:03:305;-0.2681506;9.864111;0.22984336
09:58:03:305;-0.2681506;9.864111;0.22984336
09:58:03:305;-0.2681506;9.864111;0.22984336
09:58:03:305;-0.2681506;9.864111;0.22984336
09:58:03:305;-0.2681506;9.864111;0.22984336
09:58:03:305;-0.2681506;9.864111;0.22984336
09:58:03:305;-0.2681506;9.864111;0.22984336
09:58:03:305;-0.2681506;9.864111;0.22984336
09:58:03:305;-0.2681506;9.864111;0.22984336
09:58:03:417;-0.11492168;9.864111;0.17238252
09:58:03:417;-0.11492168;9.864111;0.17238252
09:58:03:417;-0.11492168;9.864111;0.17238252
09:58:03:417;-0.11492168;9.864111;0.17238252
09:58:03:417;-0.11492168;9.864111;0.17238252
09:58:03:417;-0.11492168;9.864111;0.17238252
09:58:03:417;-0.11492168;9.864111;0.17238252
09:58:03:417;-0.11492168;9.864111;0.17238252
09:58:03:417;-0.11492168;9.864111;0.17238252
09:58:03:417;-0.11492168;9.864111;0.17238252
09:58:03:417;-0.11492168;9.864111;0.17238252
09:58:03:417;-0.11492168;9.864111;0.17238252
09:58:03:417;-0.11492168;9.864111;0.17238252
09:58:03:417;-0.11492168;9.864111;0.17238252
09:58:03:527;0.1340753;9.998186;0.095768064
09:58:03:527;0.1340753;9.998186;0.095768064
09:58:03:527;0.1340753;9.998186;0.095768064
09:58:03:527;0.1340753;9.998186;0.095768064
09:58:03:527;0.1340753;9.998186;0.095768064
09:58:03:527;0.1340753;9.998186;0.095768064
09:58:03:527;0.1340753;9.998186;0.095768064
09:58:03:527;0.1340753;9.998186;0.095768064
09:58:03:527;0.1340753;9.998186;0.095768064
09:58:03:527;0.1340753;9.998186;0.095768064
09:58:03:527;0.1340753;9.998186;0.095768064
09:58:03:527;0.1340753;9.998186;0.095768064
09:58:03:527;0.1340753;9.998186;0.095768064
09:58:03:630;0.32561144;10.093954;0.4213795
09:58:03:630;0.32561144;10.093954;0.4213795
09:58:03:630;0.32561144;10.093954;0.4213795
09:58:03:630;0.32561144;10.093954;0.4213795
09:58:03:630;0.32561144;10.093954;0.4213795
09:58:03:630;0.32561144;10.093954;0.4213795
09:58:03:630;0.32561144;10.093954;0.4213795
09:58:03:630;0.32561144;10.093954;0.4213795
09:58:03:630;0.32561144;10.093954;0.4213795
09:58:03:630;0.32561144;10.093954;0.4213795
09:58:03:630;0.32561144;10.093954;0.4213795
09:58:03:630;0.32561144;10.093954;0.4213795
09:58:03:630;0.32561144;10.093954;0.4213795
09:58:03:630;0.32561144;10.093954;0.4213795
09:58:03:740;0.40222588;9.883265;0.40222588
09:58:03:740;0.40222588;9.883265;0.40222588
09:58:03:740;0.40222588;9.883265;0.40222588
09:58:03:740;0.40222588;9.883265;0.40222588
09:58:03:740;0.40222588;9.883265;0.40222588
09:58:03:740;0.40222588;9.883265;0.40222588
09:58:03:740;0.40222588;9.883265;0.40222588
09:58:03:740;0.40222588;9.883265;0.40222588
09:58:03:740;0.40222588;9.883265;0.40222588
09:58:03:740;0.40222588;9.883265;0.40222588
09:58:03:740;0.40222588;9.883265;0.40222588
09:58:03:740;0.40222588;9.883265;0.40222588
09:58:03:740;0.40222588;9.883265;0.40222588
09:58:03:740;0.40222588;9.883265;0.40222588
09:58:03:740;0.40222588;9.883265;0.40222588
09:58:03:740;0.40222588;9.883265;0.40222588
09:58:03:860;-0.11492168;9.787497;0.24899697
09:58:03:860;-0.11492168;9.787497;0.24899697
09:58:03:860;-0.11492168;9.787497;0.24899697
09:58:03:860;-0.11492168;9.787497;0.24899697
09:58:03:860;-0.11492168;9.787497;0.24899697
09:58:03:860;-0.11492168;9.787497;0.24899697
09:58:03:860;-0.11492168;9.787497;0.24899697
09:58:03:860;-0.11492168;9.787497;0.24899697
09:58:03:860;-0.11492168;9.787497;0.24899697
09:58:03:860;-0.11492168;9.787497;0.24899697
09:58:03:860;-0.11492168;9.787497;0.24899697
09:58:03:860;-0.11492168;9.787497;0.24899697
09:58:03:860;-0.11492168;9.787497;0.24899697
09:58:03:965;-0.4213795;10.036493;0.11492168
09:58:03:965;-0.4213795;10.036493;0.11492168
09:58:03:965;-0.4213795;10.036493;0.11492168
09:58:03:965;-0.4213795;10.036493;0.11492168
09:58:03:965;-0.4213795;10.036493;0.11492168
09:58:03:965;-0.4213795;10.036493;0.11492168
09:58:03:965;-0.4213795;10.036493;0.11492168
09:58:03:965;-0.4213795;10.036493;0.11492168
09:58:03:965;-0.4213795;10.036493;0.11492168
09:58:03:965;-0.4213795;10.036493;0.11492168
09:58:03:965;-0.4213795;10.036493;0.11492168
09:58:03:965;-0.4213795;10.036493;0.11492168
09:58:03:965;-0.4213795;10.036493;0.11492168
09:58:04:069;-0.1340753;10.01734;0.22984336
09:58:04:069;-0.1340753;10.01734;0.22984336
09:58:04:069;-0.1340753;10.01734;0.22984336
09:58:04:069;-0.1340753;10.01734;0.22984336
09:58:04:069;-0.1340753;10.01734;0.22984336
09:58:04:069;-0.1340753;10.01734;0.22984336
09:58:04:069;-0.1340753;10.01734;0.22984336
09:58:04:069;-0.1340753;10.01734;0.22984336
09:58:04:069;-0.1340753;10.01734;0.22984336
09:58:04:069;-0.1340753;10.01734;0.22984336
09:58:04:069;-0.1340753;10.01734;0.22984336
09:58:04:069;-0.1340753;10.01734;0.22984336
09:58:04:069;-0.1340753;10.01734;0.22984336
09:58:04:170;0.30645782;10.01734;0.1340753
09:58:04:170;0.30645782;10.01734;0.1340753
09:58:04:170;0.30645782;10.01734;0.1340753
09:58:04:170;0.30645782;10.01734;0.1340753
09:58:04:170;0.30645782;10.01734;0.1340753
09:58:04:170;0.30645782;10.01734;0.1340753
09:58:04:170;0.30645782;10.01734;0.1340753
09:58:04:170;0.30645782;10.01734;0.1340753
09:58:04:170;0.30645782;10.01734;0.1340753
09:58:04:170;0.30645782;10.01734;0.1340753
09:58:04:170;0.30645782;10.01734;0.1340753
09:58:04:170;0.30645782;10.01734;0.1340753
09:58:04:170;0.30645782;10.01734;0.1340753
09:58:04:170;0.30645782;10.01734;0.1340753
09:58:04:170;0.30645782;10.01734;0.1340753
09:58:04:286;0.11492168;10.01734;0.61291564
09:58:04:286;0.11492168;10.01734;0.61291564
09:58:04:286;0.11492168;10.01734;0.61291564
09:58:04:286;0.11492168;10.01734;0.61291564
09:58:04:286;0.11492168;10.01734;0.61291564
09:58:04:286;0.11492168;10.01734;0.61291564
09:58:04:286;0.11492168;10.01734;0.61291564
09:58:04:286;0.11492168;10.01734;0.61291564
09:58:04:286;0.11492168;10.01734;0.61291564
09:58:04:286;0.11492168;10.01734;0.61291564
09:58:04:286;0.11492168;10.01734;0.61291564
09:58:04:286;0.11492168;10.01734;0.61291564
09:58:04:286;0.11492168;10.01734;0.61291564
09:58:04:286;0.11492168;10.01734;0.61291564
09:58:04:286;0.11492168;10.01734;0.61291564
09:58:04:404;0.1340753;10.132261;0.6512229
09:58:04:404;0.1340753;10.132261;0.6512229
09:58:04:404;0.1340753;10.132261;0.6512229
09:58:04:404;0.1340753;10.132261;0.6512229
09:58:04:404;0.1340753;10.132261;0.6512229
09:58:04:404;0.1340753;10.132261;0.6512229
09:58:04:404;0.1340753;10.132261;0.6512229
09:58:04:404;0.1340753;10.132261;0.6512229
09:58:04:404;0.1340753;10.132261;0.6512229
09:58:04:404;0.1340753;10.132261;0.6512229
09:58:04:404;0.1340753;10.132261;0.6512229
09:58:04:404;0.1340753;10.132261;0.6512229
09:58:04:404;0.1340753;10.132261;0.6512229
09:58:04:404;0.1340753;10.132261;0.6512229
09:58:04:404;0.1340753;10.132261;0.6512229
09:58:04:404;0.1340753;10.132261;0.6512229
09:58:04:529;0.019153614;10.132261;0.93852705
09:58:04:529;0.019153614;10.132261;0.93852705
09:58:04:529;0.019153614;10.132261;0.93852705
09:58:04:529;0.019153614;10.132261;0.93852705
09:58:04:529;0.019153614;10.132261;0.93852705
09:58:04:529;0.019153614;10.132261;0.93852705
09:58:04:529;0.019153614;10.132261;0.93852705
09:58:04:529;0.019153614;10.132261;0.93852705
09:58:04:529;0.019153614;10.132261;0.93852705
09:58:04:529;0.019153614;10.132261;0.93852705
09:58:04:529;0.019153614;10.132261;0.93852705
09:58:04:529;0.019153614;10.132261;0.93852705
09:58:04:529;0.019153614;10.132261;0.93852705
09:58:04:529;0.019153614;10.132261;0.93852705
09:58:04:529;0.019153614;10.132261;0.93852705
09:58:04:646;0.095768064;9.902418;0.8619126
09:58:04:646;0.095768064;9.902418;0.8619126
09:58:04:646;0.095768064;9.902418;0.8619126
09:58:04:646;0.095768064;9.902418;0.8619126
09:58:04:646;0.095768064;9.902418;0.8619126
09:58:04:646;0.095768064;9.902418;0.8619126
09:58:04:646;0.095768064;9.902418;0.8619126
09:58:04:646;0.095768064;9.902418;0.8619126
09:58:04:646;0.095768064;9.902418;0.8619126
09:58:04:646;0.095768064;9.902418;0.8619126
09:58:04:646;0.095768064;9.902418;0.8619126
09:58:04:646;0.095768064;9.902418;0.8619126
09:58:04:646;0.095768064;9.902418;0.8619126
09:58:04:646;0.095768064;9.902418;0.8619126
09:58:04:646;0.095768064;9.902418;0.8619126
09:58:04:763;-0.095768064;9.844957;0.6895301
09:58:04:763;-0.095768064;9.844957;0.6895301
09:58:04:763;-0.095768064;9.844957;0.6895301
09:58:04:763;-0.095768064;9.844957;0.6895301
09:58:04:763;-0.095768064;9.844957;0.6895301
09:58:04:763;-0.095768064;9.844957;0.6895301
09:58:04:763;-0.095768064;9.844957;0.6895301
09:58:04:763;-0.095768064;9.844957;0.6895301
09:58:04:763;-0.095768064;9.844957;0.6895301
09:58:04:763;-0.095768064;9.844957;0.6895301
09:58:04:763;-0.095768064;9.844957;0.6895301
09:58:04:763;-0.095768064;9.844957;0.6895301
09:58:04:763;-0.095768064;9.844957;0.6895301
09:58:04:763;-0.095768064;9.844957;0.6895301
09:58:04:763;-0.095768064;9.844957;0.6895301
09:58:04:763;-0.095768064;9.844957;0.6895301
09:58:04:887;-0.21068975;10.055647;0.51714754
09:58:04:887;-0.21068975;10.055647;0.51714754
09:58:04:887;-0.21068975;10.055647;0.51714754
09:58:04:887;-0.21068975;10.055647;0.51714754
09:58:04:887;-0.21068975;10.055647;0.51714754
09:58:04:887;-0.21068975;10.055647;0.51714754
09:58:04:887;-0.21068975;10.055647;0.51714754
09:58:04:887;-0.21068975;10.055647;0.51714754
09:58:04:887;-0.21068975;10.055647;0.51714754
09:58:04:887;-0.21068975;10.055647;0.51714754
09:58:04:887;-0.21068975;10.055647;0.51714754
09:58:04:887;-0.21068975;10.055647;0.51714754
09:58:04:887;-0.21068975;10.055647;0.51714754
09:58:04:991;-0.15322891;9.883265;0.51714754
09:58:04:991;-0.15322891;9.883265;0.51714754
09:58:04:991;-0.15322891;9.883265;0.51714754
09:58:04:991;-0.15322891;9.883265;0.51714754
09:58:04:991;-0.15322891;9.883265;0.51714754
09:58:04:991;-0.15322891;9.883265;0.51714754
09:58:04:991;-0.15322891;9.883265;0.51714754
09:58:04:991;-0.15322891;9.883265;0.51714754
09:58:04:991;-0.15322891;9.883265;0.51714754
09:58:04:991;-0.15322891;9.883265;0.51714754
09:58:04:991;-0.15322891;9.883265;0.51714754
09:58:04:991;-0.15322891;9.883265;0.51714754
09:58:04:991;-0.15322891;9.883265;0.51714754
09:58:04:991;-0.15322891;9.883265;0.51714754
09:58:04:991;-0.15322891;9.883265;0.51714754
09:58:04:991;-0.15322891;9.883265;0.51714754
09:58:04:991;-0.15322891;9.883265;0.51714754
09:58:05:124;0.22984336;10.01734;0.49799395
09:58:05:124;0.22984336;10.01734;0.49799395
09:58:05:124;0.22984336;10.01734;0.49799395
09:58:05:124;0.22984336;10.01734;0.49799395
09:58:05:124;0.22984336;10.01734;0.49799395
09:58:05:124;0.22984336;10.01734;0.49799395
09:58:05:124;0.22984336;10.01734;0.49799395
09:58:05:124;0.22984336;10.01734;0.49799395
09:58:05:124;0.22984336;10.01734;0.49799395
09:58:05:124;0.22984336;10.01734;0.49799395
09:58:05:124;0.22984336;10.01734;0.49799395
09:58:05:124;0.22984336;10.01734;0.49799395
09:58:05:124;0.22984336;10.01734;0.49799395
09:58:05:124;0.22984336;10.01734;0.49799395
09:58:05:231;0.9576807;9.883265;1.5514427
09:58:05:231;0.9576807;9.883265;1.5514427
09:58:05:231;0.9576807;9.883265;1.5514427
09:58:05:231;0.9576807;9.883265;1.5514427
09:58:05:231;0.9576807;9.883265;1.5514427
09:58:05:231;0.9576807;9.883265;1.5514427
09:58:05:231;0.9576807;9.883265;1.5514427
09:58:05:231;0.9576807;9.883265;1.5514427
09:58:05:231;0.9576807;9.883265;1.5514427
09:58:05:231;0.9576807;9.883265;1.5514427
09:58:05:231;0.9576807;9.883265;1.5514427
09:58:05:231;0.9576807;9.883265;1.5514427
09:58:05:231;0.9576807;9.883265;1.5514427
09:58:05:231;0.9576807;9.883265;1.5514427
09:58:05:231;0.9576807;9.883265;1.5514427
09:58:05:347;0.5363012;9.844957;2.1643584
09:58:05:347;0.5363012;9.844957;2.1643584
09:58:05:347;0.5363012;9.844957;2.1643584
09:58:05:347;0.5363012;9.844957;2.1643584
09:58:05:347;0.5363012;9.844957;2.1643584
09:58:05:347;0.5363012;9.844957;2.1643584
09:58:05:347;0.5363012;9.844957;2.1643584
09:58:05:347;0.5363012;9.844957;2.1643584
09:58:05:347;0.5363012;9.844957;2.1643584
09:58:05:347;0.5363012;9.844957;2.1643584
09:58:05:347;0.5363012;9.844957;2.1643584
09:58:05:347;0.5363012;9.844957;2.1643584
09:58:05:347;0.5363012;9.844957;2.1643584
09:58:05:448;-0.11492168;10.43872;2.432509
09:58:05:448;-0.11492168;10.43872;2.432509
09:58:05:448;-0.11492168;10.43872;2.432509
09:58:05:448;-0.11492168;10.43872;2.432509
09:58:05:448;-0.11492168;10.43872;2.432509
09:58:05:448;-0.11492168;10.43872;2.432509
09:58:05:448;-0.11492168;10.43872;2.432509
09:58:05:448;-0.11492168;10.43872;2.432509
09:58:05:448;-0.11492168;10.43872;2.432509
09:58:05:448;-0.11492168;10.43872;2.432509
09:58:05:448;-0.11492168;10.43872;2.432509
09:58:05:448;-0.11492168;10.43872;2.432509
09:58:05:448;-0.11492168;10.43872;2.432509
09:58:05:554;-0.24899697;10.247183;1.7812861
09:58:05:554;-0.24899697;10.247183;1.7812861
09:58:05:554;-0.24899697;10.247183;1.7812861
09:58:05:554;-0.24899697;10.247183;1.7812861
09:58:05:554;-0.24899697;10.247183;1.7812861
09:58:05:554;-0.24899697;10.247183;1.7812861
09:58:05:554;-0.24899697;10.247183;1.7812861
09:58:05:554;-0.24899697;10.247183;1.7812861
09:58:05:554;-0.24899697;10.247183;1.7812861
09:58:05:554;-0.24899697;10.247183;1.7812861
09:58:05:554;-0.24899697;10.247183;1.7812861
09:58:05:554;-0.24899697;10.247183;1.7812861
09:58:05:554;-0.24899697;10.247183;1.7812861
09:58:05:554;-0.24899697;10.247183;1.7812861
09:58:05:554;-0.24899697;10.247183;1.7812861
09:58:05:669;-0.095768064;10.170568;-0.80445176
09:58:05:669;-0.095768064;10.170568;-0.80445176
09:58:05:669;-0.095768064;10.170568;-0.80445176
09:58:05:669;-0.095768064;10.170568;-0.80445176
09:58:05:669;-0.095768064;10.170568;-0.80445176
09:58:05:669;-0.095768064;10.170568;-0.80445176
09:58:05:669;-0.095768064;10.170568;-0.80445176
09:58:05:669;-0.095768064;10.170568;-0.80445176
09:58:05:669;-0.095768064;10.170568;-0.80445176
09:58:05:669;-0.095768064;10.170568;-0.80445176
09:58:05:669;-0.095768064;10.170568;-0.80445176
09:58:05:669;-0.095768064;10.170568;-0.80445176
09:58:05:669;-0.095768064;10.170568;-0.80445176
09:58:05:770;0.4405331;9.710882;-0.9959879
09:58:05:770;0.4405331;9.710882;-0.9959879
09:58:05:770;0.4405331;9.710882;-0.9959879
09:58:05:770;0.4405331;9.710882;-0.9959879
09:58:05:770;0.4405331;9.710882;-0.9959879
09:58:05:770;0.4405331;9.710882;-0.9959879
09:58:05:770;0.4405331;9.710882;-0.9959879
09:58:05:770;0.4405331;9.710882;-0.9959879
09:58:05:770;0.4405331;9.710882;-0.9959879
09:58:05:770;0.4405331;9.710882;-0.9959879
09:58:05:770;0.4405331;9.710882;-0.9959879
09:58:05:770;0.4405331;9.710882;-0.9959879
09:58:05:770;0.4405331;9.710882;-0.9959879
09:58:05:770;0.4405331;9.710882;-0.9959879
09:58:05:882;0.34476504;9.576807;0.2681506
09:58:05:882;0.34476504;9.576807;0.2681506
09:58:05:882;0.34476504;9.576807;0.2681506
09:58:05:882;0.34476504;9.576807;0.2681506
09:58:05:882;0.34476504;9.576807;0.2681506
09:58:05:882;0.34476504;9.576807;0.2681506
09:58:05:882;0.34476504;9.576807;0.2681506
09:58:05:882;0.34476504;9.576807;0.2681506
09:58:05:882;0.34476504;9.576807;0.2681506
09:58:05:882;0.34476504;9.576807;0.2681506
09:58:05:882;0.34476504;9.576807;0.2681506
09:58:05:882;0.34476504;9.576807;0.2681506
09:58:05:882;0.34476504;9.576807;0.2681506
09:58:05:882;0.34476504;9.576807;0.2681506
09:58:05:987;0.019153614;10.151415;0.19153613
09:58:05:987;0.019153614;10.151415;0.19153613
09:58:05:987;0.019153614;10.151415;0.19153613
09:58:05:987;0.019153614;10.151415;0.19153613
09:58:05:987;0.019153614;10.151415;0.19153613
09:58:05:987;0.019153614;10.151415;0.19153613
09:58:05:987;0.019153614;10.151415;0.19153613
09:58:05:987;0.019153614;10.151415;0.19153613
09:58:05:987;0.019153614;10.151415;0.19153613
09:58:05:987;0.019153614;10.151415;0.19153613
09:58:05:987;0.019153614;10.151415;0.19153613
09:58:05:987;0.019153614;10.151415;0.19153613
09:58:05:987;0.019153614;10.151415;0.19153613
09:58:05:987;0.019153614;10.151415;0.19153613
09:58:05:987;0.019153614;10.151415;0.19153613
09:58:06:107;-0.095768064;10.304645;-0.019153614
09:58:06:107;-0.095768064;10.304645;-0.019153614
09:58:06:107;-0.095768064;10.304645;-0.019153614
09:58:06:107;-0.095768064;10.304645;-0.019153614
09:58:06:107;-0.095768064;10.304645;-0.019153614
09:58:06:107;-0.095768064;10.304645;-0.019153614
09:58:06:107;-0.095768064;10.304645;-0.019153614
09:58:06:107;-0.095768064;10.304645;-0.019153614
09:58:06:107;-0.095768064;10.304645;-0.019153614
09:58:06:107;-0.095768064;10.304645;-0.019153614
09:58:06:107;-0.095768064;10.304645;-0.019153614
09:58:06:107;-0.095768064;10.304645;-0.019153614
09:58:06:107;-0.095768064;10.304645;-0.019153614
09:58:06:107;-0.095768064;10.304645;-0.019153614
09:58:06:107;-0.095768064;10.304645;-0.019153614
09:58:06:107;-0.095768064;10.304645;-0.019153614
09:58:06:233;0.019153614;10.0748005;0.15322891
09:58:06:233;0.019153614;10.0748005;0.15322891
09:58:06:233;0.019153614;10.0748005;0.15322891
09:58:06:233;0.019153614;10.0748005;0.15322891
09:58:06:233;0.019153614;10.0748005;0.15322891
09:58:06:233;0.019153614;10.0748005;0.15322891
09:58:06:233;0.019153614;10.0748005;0.15322891
09:58:06:233;0.019153614;10.0748005;0.15322891
09:58:06:233;0.019153614;10.0748005;0.15322891
09:58:06:233;0.019153614;10.0748005;0.15322891
09:58:06:233;0.019153614;10.0748005;0.15322891
09:58:06:233;0.019153614;10.0748005;0.15322891
09:58:06:233;0.019153614;10.0748005;0.15322891
09:58:06:233;0.019153614;10.0748005;0.15322891
09:58:06:337;0.05746084;10.0748005;0.095768064
09:58:06:337;0.05746084;10.0748005;0.095768064
09:58:06:337;0.05746084;10.0748005;0.095768064
09:58:06:337;0.05746084;10.0748005;0.095768064
09:58:06:337;0.05746084;10.0748005;0.095768064
09:58:06:337;0.05746084;10.0748005;0.095768064
09:58:06:337;0.05746084;10.0748005;0.095768064
09:58:06:337;0.05746084;10.0748005;0.095768064
09:58:06:337;0.05746084;10.0748005;0.095768064
09:58:06:337;0.05746084;10.0748005;0.095768064
09:58:06:337;0.05746084;10.0748005;0.095768064
09:58:06:337;0.05746084;10.0748005;0.095768064
09:58:06:337;0.05746084;10.0748005;0.095768064
09:58:06:439;0.076614454;9.921572;0.11492168
09:58:06:439;0.076614454;9.921572;0.11492168
09:58:06:439;0.076614454;9.921572;0.11492168
09:58:06:439;0.076614454;9.921572;0.11492168
09:58:06:439;0.076614454;9.921572;0.11492168
09:58:06:439;0.076614454;9.921572;0.11492168
09:58:06:439;0.076614454;9.921572;0.11492168
09:58:06:439;0.076614454;9.921572;0.11492168
09:58:06:439;0.076614454;9.921572;0.11492168
09:58:06:439;0.076614454;9.921572;0.11492168
09:58:06:439;0.076614454;9.921572;0.11492168
09:58:06:439;0.076614454;9.921572;0.11492168
09:58:06:439;0.076614454;9.921572;0.11492168
09:58:06:439;0.076614454;9.921572;0.11492168
09:58:06:551;0.21068975;10.01734;0.17238252
09:58:06:551;0.21068975;10.01734;0.17238252
09:58:06:551;0.21068975;10.01734;0.17238252
09:58:06:551;0.21068975;10.01734;0.17238252
09:58:06:551;0.21068975;10.01734;0.17238252
09:58:06:551;0.21068975;10.01734;0.17238252
09:58:06:551;0.21068975;10.01734;0.17238252
09:58:06:551;0.21068975;10.01734;0.17238252
09:58:06:551;0.21068975;10.01734;0.17238252
09:58:06:551;0.21068975;10.01734;0.17238252
09:58:06:551;0.21068975;10.01734;0.17238252
09:58:06:551;0.21068975;10.01734;0.17238252
09:58:06:551;0.21068975;10.01734;0.17238252
09:58:06:551;0.21068975;10.01734;0.17238252
09:58:06:663;0.11492168;10.0748005;0.2681506
09:58:06:663;0.11492168;10.0748005;0.2681506
09:58:06:663;0.11492168;10.0748005;0.2681506
09:58:06:663;0.11492168;10.0748005;0.2681506
09:58:06:663;0.11492168;10.0748005;0.2681506
09:58:06:663;0.11492168;10.0748005;0.2681506
09:58:06:663;0.11492168;10.0748005;0.2681506
09:58:06:663;0.11492168;10.0748005;0.2681506
09:58:06:663;0.11492168;10.0748005;0.2681506
09:58:06:663;0.11492168;10.0748005;0.2681506
09:58:06:663;0.11492168;10.0748005;0.2681506
09:58:06:663;0.11492168;10.0748005;0.2681506
09:58:06:663;0.11492168;10.0748005;0.2681506
09:58:06:663;0.11492168;10.0748005;0.2681506
09:58:06:663;0.11492168;10.0748005;0.2681506
09:58:06:663;0.11492168;10.0748005;0.2681506
09:58:06:663;0.11492168;10.0748005;0.2681506
09:58:06:663;0.11492168;10.0748005;0.2681506
09:58:06:663;0.11492168;10.0748005;0.2681506
09:58:06:663;0.11492168;10.0748005;0.2681506
09:58:06:815;0.11492168;10.0748005;0.095768064
09:58:06:815;0.11492168;10.0748005;0.095768064
09:58:06:815;0.11492168;10.0748005;0.095768064
09:58:06:815;0.11492168;10.0748005;0.095768064
09:58:06:815;0.11492168;10.0748005;0.095768064
09:58:06:815;0.11492168;10.0748005;0.095768064
09:58:06:815;0.11492168;10.0748005;0.095768064
09:58:06:815;0.11492168;10.0748005;0.095768064
09:58:06:815;0.11492168;10.0748005;0.095768064
09:58:06:815;0.11492168;10.0748005;0.095768064
09:58:06:815;0.11492168;10.0748005;0.095768064
09:58:06:815;0.11492168;10.0748005;0.095768064
09:58:06:815;0.11492168;10.0748005;0.095768064
09:58:06:815;0.11492168;10.0748005;0.095768064
09:58:06:815;0.11492168;10.0748005;0.095768064
09:58:06:932;0.17238252;9.80665;0.6703765
09:58:06:932;0.17238252;9.80665;0.6703765
09:58:06:932;0.17238252;9.80665;0.6703765
09:58:06:932;0.17238252;9.80665;0.6703765
09:58:06:932;0.17238252;9.80665;0.6703765
09:58:06:932;0.17238252;9.80665;0.6703765
09:58:06:932;0.17238252;9.80665;0.6703765
09:58:06:932;0.17238252;9.80665;0.6703765
09:58:06:932;0.17238252;9.80665;0.6703765
09:58:06:932;0.17238252;9.80665;0.6703765
09:58:06:932;0.17238252;9.80665;0.6703765
09:58:06:932;0.17238252;9.80665;0.6703765
09:58:06:932;0.17238252;9.80665;0.6703765
09:58:06:932;0.17238252;9.80665;0.6703765
09:58:06:932;0.17238252;9.80665;0.6703765
09:58:07:049;0.22984336;10.611102;0.05746084
09:58:07:049;0.22984336;10.611102;0.05746084
09:58:07:049;0.22984336;10.611102;0.05746084
09:58:07:049;0.22984336;10.611102;0.05746084
09:58:07:049;0.22984336;10.611102;0.05746084
09:58:07:049;0.22984336;10.611102;0.05746084
09:58:07:049;0.22984336;10.611102;0.05746084
09:58:07:049;0.22984336;10.611102;0.05746084
09:58:07:049;0.22984336;10.611102;0.05746084
09:58:07:049;0.22984336;10.611102;0.05746084
09:58:07:049;0.22984336;10.611102;0.05746084
09:58:07:049;0.22984336;10.611102;0.05746084
09:58:07:049;0.22984336;10.611102;0.05746084
09:58:07:049;0.22984336;10.611102;0.05746084
09:58:07:049;0.22984336;10.611102;0.05746084
09:58:07:169;0.21068975;10.247183;0.2681506
09:58:07:169;0.21068975;10.247183;0.2681506
09:58:07:169;0.21068975;10.247183;0.2681506
09:58:07:169;0.21068975;10.247183;0.2681506
09:58:07:169;0.21068975;10.247183;0.2681506
09:58:07:169;0.21068975;10.247183;0.2681506
09:58:07:169;0.21068975;10.247183;0.2681506
09:58:07:169;0.21068975;10.247183;0.2681506
09:58:07:169;0.21068975;10.247183;0.2681506
09:58:07:169;0.21068975;10.247183;0.2681506
09:58:07:169;0.21068975;10.247183;0.2681506
09:58:07:169;0.21068975;10.247183;0.2681506
09:58:07:169;0.21068975;10.247183;0.2681506
09:58:07:169;0.21068975;10.247183;0.2681506
09:58:07:169;0.21068975;10.247183;0.2681506
09:58:07:169;0.21068975;10.247183;0.2681506
09:58:07:291;0.2873042;9.921572;0.38307226
09:58:07:291;0.2873042;9.921572;0.38307226
09:58:07:291;0.2873042;9.921572;0.38307226
09:58:07:291;0.2873042;9.921572;0.38307226
09:58:07:291;0.2873042;9.921572;0.38307226
09:58:07:291;0.2873042;9.921572;0.38307226
09:58:07:291;0.2873042;9.921572;0.38307226
09:58:07:291;0.2873042;9.921572;0.38307226
09:58:07:291;0.2873042;9.921572;0.38307226
09:58:07:291;0.2873042;9.921572;0.38307226
09:58:07:291;0.2873042;9.921572;0.38307226
09:58:07:291;0.2873042;9.921572;0.38307226
09:58:07:291;0.2873042;9.921572;0.38307226
09:58:07:291;0.2873042;9.921572;0.38307226
09:58:07:291;0.2873042;9.921572;0.38307226
09:58:07:409;0.095768064;9.864111;0.32561144
09:58:07:409;0.095768064;9.864111;0.32561144
09:58:07:409;0.095768064;9.864111;0.32561144
09:58:07:409;0.095768064;9.864111;0.32561144
09:58:07:409;0.095768064;9.864111;0.32561144
09:58:07:409;0.095768064;9.864111;0.32561144
09:58:07:409;0.095768064;9.864111;0.32561144
09:58:07:409;0.095768064;9.864111;0.32561144
09:58:07:409;0.095768064;9.864111;0.32561144
09:58:07:409;0.095768064;9.864111;0.32561144
09:58:07:409;0.095768064;9.864111;0.32561144
09:58:07:409;0.095768064;9.864111;0.32561144
09:58:07:409;0.095768064;9.864111;0.32561144
09:58:07:513;0.32561144;9.959879;0.076614454
09:58:07:513;0.32561144;9.959879;0.076614454
09:58:07:513;0.32561144;9.959879;0.076614454
09:58:07:513;0.32561144;9.959879;0.076614454
09:58:07:513;0.32561144;9.959879;0.076614454
09:58:07:513;0.32561144;9.959879;0.076614454
09:58:07:513;0.32561144;9.959879;0.076614454
09:58:07:513;0.32561144;9.959879;0.076614454
09:58:07:513;0.32561144;9.959879;0.076614454
09:58:07:513;0.32561144;9.959879;0.076614454
09:58:07:513;0.32561144;9.959879;0.076614454
09:58:07:513;0.32561144;9.959879;0.076614454
09:58:07:513;0.32561144;9.959879;0.076614454
09:58:07:513;0.32561144;9.959879;0.076614454
09:58:07:513;0.32561144;9.959879;0.076614454
09:58:07:630;0.19153613;10.055647;0.019153614
09:58:07:630;0.19153613;10.055647;0.019153614
09:58:07:630;0.19153613;10.055647;0.019153614
09:58:07:630;0.19153613;10.055647;0.019153614
09:58:07:630;0.19153613;10.055647;0.019153614
09:58:07:630;0.19153613;10.055647;0.019153614
09:58:07:630;0.19153613;10.055647;0.019153614
09:58:07:630;0.19153613;10.055647;0.019153614
09:58:07:630;0.19153613;10.055647;0.019153614
09:58:07:630;0.19153613;10.055647;0.019153614
09:58:07:630;0.19153613;10.055647;0.019153614
09:58:07:630;0.19153613;10.055647;0.019153614
09:58:07:630;0.19153613;10.055647;0.019153614
09:58:07:630;0.19153613;10.055647;0.019153614
09:58:07:630;0.19153613;10.055647;0.019153614
09:58:07:747;0.19153613;9.998186;0.095768064
09:58:07:747;0.19153613;9.998186;0.095768064
09:58:07:747;0.19153613;9.998186;0.095768064
09:58:07:747;0.19153613;9.998186;0.095768064
09:58:07:747;0.19153613;9.998186;0.095768064
09:58:07:747;0.19153613;9.998186;0.095768064
09:58:07:747;0.19153613;9.998186;0.095768064
09:58:07:747;0.19153613;9.998186;0.095768064
09:58:07:747;0.19153613;9.998186;0.095768064
09:58:07:747;0.19153613;9.998186;0.095768064
09:58:07:747;0.19153613;9.998186;0.095768064
09:58:07:747;0.19153613;9.998186;0.095768064
09:58:07:747;0.19153613;9.998186;0.095768064
09:58:07:850;0.2873042;9.864111;0.24899697
09:58:07:850;0.2873042;9.864111;0.24899697
09:58:07:850;0.2873042;9.864111;0.24899697
09:58:07:850;0.2873042;9.864111;0.24899697
09:58:07:850;0.2873042;9.864111;0.24899697
09:58:07:850;0.2873042;9.864111;0.24899697
09:58:07:850;0.2873042;9.864111;0.24899697
09:58:07:850;0.2873042;9.864111;0.24899697
09:58:07:850;0.2873042;9.864111;0.24899697
09:58:07:850;0.2873042;9.864111;0.24899697
09:58:07:850;0.2873042;9.864111;0.24899697
09:58:07:850;0.2873042;9.864111;0.24899697
09:58:07:850;0.2873042;9.864111;0.24899697
09:58:07:952;0.038307227;9.9790325;0.34476504
09:58:07:952;0.038307227;9.9790325;0.34476504
09:58:07:952;0.038307227;9.9790325;0.34476504
09:58:07:952;0.038307227;9.9790325;0.34476504
09:58:07:952;0.038307227;9.9790325;0.34476504
09:58:07:952;0.038307227;9.9790325;0.34476504
09:58:07:952;0.038307227;9.9790325;0.34476504
09:58:07:952;0.038307227;9.9790325;0.34476504
09:58:07:952;0.038307227;9.9790325;0.34476504
09:58:07:952;0.038307227;9.9790325;0.34476504
09:58:07:952;0.038307227;9.9790325;0.34476504
09:58:07:952;0.038307227;9.9790325;0.34476504
09:58:07:952;0.038307227;9.9790325;0.34476504
09:58:07:952;0.038307227;9.9790325;0.34476504
09:58:07:952;0.038307227;9.9790325;0.34476504
09:58:07:952;0.038307227;9.9790325;0.34476504
09:58:08:071;-0.19153613;10.01734;0.095768064
09:58:08:071;-0.19153613;10.01734;0.095768064
09:58:08:071;-0.19153613;10.01734;0.095768064
09:58:08:071;-0.19153613;10.01734;0.095768064
09:58:08:071;-0.19153613;10.01734;0.095768064
09:58:08:071;-0.19153613;10.01734;0.095768064
09:58:08:071;-0.19153613;10.01734;0.095768064
09:58:08:071;-0.19153613;10.01734;0.095768064
09:58:08:071;-0.19153613;10.01734;0.095768064
09:58:08:071;-0.19153613;10.01734;0.095768064
09:58:08:071;-0.19153613;10.01734;0.095768064
09:58:08:071;-0.19153613;10.01734;0.095768064
09:58:08:071;-0.19153613;10.01734;0.095768064
09:58:08:071;-0.19153613;10.01734;0.095768064
09:58:08:071;-0.19153613;10.01734;0.095768064
09:58:08:190;-0.019153614;9.9790325;0.21068975
09:58:08:190;-0.019153614;9.9790325;0.21068975
09:58:08:190;-0.019153614;9.9790325;0.21068975
09:58:08:190;-0.019153614;9.9790325;0.21068975
09:58:08:190;-0.019153614;9.9790325;0.21068975
09:58:08:190;-0.019153614;9.9790325;0.21068975
09:58:08:190;-0.019153614;9.9790325;0.21068975
09:58:08:190;-0.019153614;9.9790325;0.21068975
09:58:08:190;-0.019153614;9.9790325;0.21068975
09:58:08:190;-0.019153614;9.9790325;0.21068975
09:58:08:190;-0.019153614;9.9790325;0.21068975
09:58:08:190;-0.019153614;9.9790325;0.21068975
09:58:08:190;-0.019153614;9.9790325;0.21068975
09:58:08:190;-0.019153614;9.9790325;0.21068975
09:58:08:297;0.21068975;9.998186;0.30645782
09:58:08:297;0.21068975;9.998186;0.30645782
09:58:08:297;0.21068975;9.998186;0.30645782
09:58:08:297;0.21068975;9.998186;0.30645782
09:58:08:297;0.21068975;9.998186;0.30645782
09:58:08:297;0.21068975;9.998186;0.30645782
09:58:08:297;0.21068975;9.998186;0.30645782
09:58:08:297;0.21068975;9.998186;0.30645782
09:58:08:297;0.21068975;9.998186;0.30645782
09:58:08:297;0.21068975;9.998186;0.30645782
09:58:08:297;0.21068975;9.998186;0.30645782
09:58:08:297;0.21068975;9.998186;0.30645782
09:58:08:297;0.21068975;9.998186;0.30645782
09:58:08:297;0.21068975;9.998186;0.30645782
09:58:08:297;0.21068975;9.998186;0.30645782
09:58:08:421;-0.05746084;10.093954;0.19153613
09:58:08:421;-0.05746084;10.093954;0.19153613
09:58:08:421;-0.05746084;10.093954;0.19153613
09:58:08:421;-0.05746084;10.093954;0.19153613
09:58:08:421;-0.05746084;10.093954;0.19153613
09:58:08:421;-0.05746084;10.093954;0.19153613
09:58:08:421;-0.05746084;10.093954;0.19153613
09:58:08:421;-0.05746084;10.093954;0.19153613
09:58:08:421;-0.05746084;10.093954;0.19153613
09:58:08:421;-0.05746084;10.093954;0.19153613
09:58:08:421;-0.05746084;10.093954;0.19153613
09:58:08:421;-0.05746084;10.093954;0.19153613
09:58:08:421;-0.05746084;10.093954;0.19153613
09:58:08:522;-0.11492168;9.959879;0.5554548
09:58:08:522;-0.11492168;9.959879;0.5554548
09:58:08:522;-0.11492168;9.959879;0.5554548
09:58:08:522;-0.11492168;9.959879;0.5554548
09:58:08:522;-0.11492168;9.959879;0.5554548
09:58:08:522;-0.11492168;9.959879;0.5554548
09:58:08:522;-0.11492168;9.959879;0.5554548
09:58:08:522;-0.11492168;9.959879;0.5554548
09:58:08:522;-0.11492168;9.959879;0.5554548
09:58:08:522;-0.11492168;9.959879;0.5554548
09:58:08:522;-0.11492168;9.959879;0.5554548
09:58:08:522;-0.11492168;9.959879;0.5554548
09:58:08:522;-0.11492168;9.959879;0.5554548
09:58:08:522;-0.11492168;9.959879;0.5554548
09:58:08:626;0.21068975;9.902418;0.5554548
09:58:08:626;0.21068975;9.902418;0.5554548
09:58:08:626;0.21068975;9.902418;0.5554548
09:58:08:626;0.21068975;9.902418;0.5554548
09:58:08:626;0.21068975;9.902418;0.5554548
09:58:08:626;0.21068975;9.902418;0.5554548
09:58:08:626;0.21068975;9.902418;0.5554548
09:58:08:626;0.21068975;9.902418;0.5554548
09:58:08:626;0.21068975;9.902418;0.5554548
09:58:08:626;0.21068975;9.902418;0.5554548
09:58:08:626;0.21068975;9.902418;0.5554548
09:58:08:626;0.21068975;9.902418;0.5554548
09:58:08:626;0.21068975;9.902418;0.5554548
09:58:08:626;0.21068975;9.902418;0.5554548
09:58:08:740;0.19153613;10.0748005;0.6703765
09:58:08:740;0.19153613;10.0748005;0.6703765
09:58:08:740;0.19153613;10.0748005;0.6703765
09:58:08:740;0.19153613;10.0748005;0.6703765
09:58:08:740;0.19153613;10.0748005;0.6703765
09:58:08:740;0.19153613;10.0748005;0.6703765
09:58:08:740;0.19153613;10.0748005;0.6703765
09:58:08:740;0.19153613;10.0748005;0.6703765
09:58:08:740;0.19153613;10.0748005;0.6703765
09:58:08:740;0.19153613;10.0748005;0.6703765
09:58:08:740;0.19153613;10.0748005;0.6703765
09:58:08:740;0.19153613;10.0748005;0.6703765
09:58:08:740;0.19153613;10.0748005;0.6703765
09:58:08:843;0.038307227;9.883265;0.7278373
09:58:08:843;0.038307227;9.883265;0.7278373
09:58:08:843;0.038307227;9.883265;0.7278373
09:58:08:843;0.038307227;9.883265;0.7278373
09:58:08:843;0.038307227;9.883265;0.7278373
09:58:08:843;0.038307227;9.883265;0.7278373
09:58:08:843;0.038307227;9.883265;0.7278373
09:58:08:843;0.038307227;9.883265;0.7278373
09:58:08:843;0.038307227;9.883265;0.7278373
09:58:08:843;0.038307227;9.883265;0.7278373
09:58:08:843;0.038307227;9.883265;0.7278373
09:58:08:843;0.038307227;9.883265;0.7278373
09:58:08:843;0.038307227;9.883265;0.7278373
09:58:08:843;0.038307227;9.883265;0.7278373
09:58:08:949;0.038307227;9.998186;0.61291564
09:58:08:949;0.038307227;9.998186;0.61291564
09:58:08:949;0.038307227;9.998186;0.61291564
09:58:08:949;0.038307227;9.998186;0.61291564
09:58:08:949;0.038307227;9.998186;0.61291564
09:58:08:949;0.038307227;9.998186;0.61291564
09:58:08:949;0.038307227;9.998186;0.61291564
09:58:08:949;0.038307227;9.998186;0.61291564
09:58:08:949;0.038307227;9.998186;0.61291564
09:58:08:949;0.038307227;9.998186;0.61291564
09:58:08:949;0.038307227;9.998186;0.61291564
09:58:08:949;0.038307227;9.998186;0.61291564
09:58:08:949;0.038307227;9.998186;0.61291564
09:58:08:949;0.038307227;9.998186;0.61291564
09:58:08:949;0.038307227;9.998186;0.61291564
09:58:09:066;-0.019153614;10.132261;0.5554548
09:58:09:066;-0.019153614;10.132261;0.5554548
09:58:09:066;-0.019153614;10.132261;0.5554548
09:58:09:066;-0.019153614;10.132261;0.5554548
09:58:09:066;-0.019153614;10.132261;0.5554548
09:58:09:066;-0.019153614;10.132261;0.5554548
09:58:09:066;-0.019153614;10.132261;0.5554548
09:58:09:066;-0.019153614;10.132261;0.5554548
09:58:09:066;-0.019153614;10.132261;0.5554548
09:58:09:066;-0.019153614;10.132261;0.5554548
09:58:09:066;-0.019153614;10.132261;0.5554548
09:58:09:066;-0.019153614;10.132261;0.5554548
09:58:09:066;-0.019153614;10.132261;0.5554548
09:58:09:066;-0.019153614;10.132261;0.5554548
09:58:09:066;-0.019153614;10.132261;0.5554548
09:58:09:185;0.2681506;9.9790325;0.32561144
09:58:09:185;0.2681506;9.9790325;0.32561144
09:58:09:185;0.2681506;9.9790325;0.32561144
09:58:09:185;0.2681506;9.9790325;0.32561144
09:58:09:185;0.2681506;9.9790325;0.32561144
09:58:09:185;0.2681506;9.9790325;0.32561144
09:58:09:185;0.2681506;9.9790325;0.32561144
09:58:09:185;0.2681506;9.9790325;0.32561144
09:58:09:185;0.2681506;9.9790325;0.32561144
09:58:09:185;0.2681506;9.9790325;0.32561144
09:58:09:185;0.2681506;9.9790325;0.32561144
09:58:09:185;0.2681506;9.9790325;0.32561144
09:58:09:185;0.2681506;9.9790325;0.32561144
09:58:09:185;0.2681506;9.9790325;0.32561144
09:58:09:185;0.2681506;9.9790325;0.32561144
09:58:09:185;0.2681506;9.9790325;0.32561144
09:58:09:185;0.2681506;9.9790325;0.32561144
09:58:09:185;0.2681506;9.9790325;0.32561144
09:58:09:185;0.2681506;9.9790325;0.32561144
09:58:09:185;0.2681506;9.9790325;0.32561144
09:58:09:185;0.2681506;9.9790325;0.32561144
09:58:09:185;0.2681506;9.9790325;0.32561144
09:58:09:355;0.1340753;9.959879;0.15322891
09:58:09:355;0.1340753;9.959879;0.15322891
09:58:09:355;0.1340753;9.959879;0.15322891
09:58:09:355;0.1340753;9.959879;0.15322891
09:58:09:355;0.1340753;9.959879;0.15322891
09:58:09:355;0.1340753;9.959879;0.15322891
09:58:09:355;0.1340753;9.959879;0.15322891
09:58:09:355;0.1340753;9.959879;0.15322891
09:58:09:355;0.1340753;9.959879;0.15322891
09:58:09:355;0.1340753;9.959879;0.15322891
09:58:09:355;0.1340753;9.959879;0.15322891
09:58:09:355;0.1340753;9.959879;0.15322891
09:58:09:355;0.1340753;9.959879;0.15322891
09:58:09:355;0.1340753;9.959879;0.15322891
09:58:09:465;-0.11492168;10.113108;0.49799395
09:58:09:465;-0.11492168;10.113108;0.49799395
09:58:09:465;-0.11492168;10.113108;0.49799395
09:58:09:465;-0.11492168;10.113108;0.49799395
09:58:09:465;-0.11492168;10.113108;0.49799395
09:58:09:465;-0.11492168;10.113108;0.49799395
09:58:09:465;-0.11492168;10.113108;0.49799395
09:58:09:465;-0.11492168;10.113108;0.49799395
09:58:09:465;-0.11492168;10.113108;0.49799395
09:58:09:465;-0.11492168;10.113108;0.49799395
09:58:09:465;-0.11492168;10.113108;0.49799395
09:58:09:465;-0.11492168;10.113108;0.49799395
09:58:09:465;-0.11492168;10.113108;0.49799395
09:58:09:567;0.1340753;10.036493;0.1340753
09:58:09:567;0.1340753;10.036493;0.1340753
09:58:09:567;0.1340753;10.036493;0.1340753
09:58:09:567;0.1340753;10.036493;0.1340753
09:58:09:567;0.1340753;10.036493;0.1340753
09:58:09:567;0.1340753;10.036493;0.1340753
09:58:09:567;0.1340753;10.036493;0.1340753
09:58:09:567;0.1340753;10.036493;0.1340753
09:58:09:567;0.1340753;10.036493;0.1340753
09:58:09:567;0.1340753;10.036493;0.1340753
09:58:09:567;0.1340753;10.036493;0.1340753
09:58:09:567;0.1340753;10.036493;0.1340753
09:58:09:567;0.1340753;10.036493;0.1340753
09:58:09:567;0.1340753;10.036493;0.1340753
09:58:09:567;0.1340753;10.036493;0.1340753
09:58:09:687;0.15322891;9.959879;-0.076614454
09:58:09:687;0.15322891;9.959879;-0.076614454
09:58:09:687;0.15322891;9.959879;-0.076614454
09:58:09:687;0.15322891;9.959879;-0.076614454
09:58:09:687;0.15322891;9.959879;-0.076614454
09:58:09:687;0.15322891;9.959879;-0.076614454
09:58:09:687;0.15322891;9.959879;-0.076614454
09:58:09:687;0.15322891;9.959879;-0.076614454
09:58:09:687;0.15322891;9.959879;-0.076614454
09:58:09:687;0.15322891;9.959879;-0.076614454
09:58:09:687;0.15322891;9.959879;-0.076614454
09:58:09:687;0.15322891;9.959879;-0.076614454
09:58:09:687;0.15322891;9.959879;-0.076614454
09:58:09:687;0.15322891;9.959879;-0.076614454
09:58:09:687;0.15322891;9.959879;-0.076614454
09:58:09:802;-0.17238252;9.940725;-0.038307227
09:58:09:802;-0.17238252;9.940725;-0.038307227
09:58:09:802;-0.17238252;9.940725;-0.038307227
09:58:09:802;-0.17238252;9.940725;-0.038307227
09:58:09:802;-0.17238252;9.940725;-0.038307227
09:58:09:802;-0.17238252;9.940725;-0.038307227
09:58:09:802;-0.17238252;9.940725;-0.038307227
09:58:09:802;-0.17238252;9.940725;-0.038307227
09:58:09:802;-0.17238252;9.940725;-0.038307227
09:58:09:802;-0.17238252;9.940725;-0.038307227
09:58:09:802;-0.17238252;9.940725;-0.038307227
09:58:09:802;-0.17238252;9.940725;-0.038307227
09:58:09:802;-0.17238252;9.940725;-0.038307227
09:58:09:802;-0.17238252;9.940725;-0.038307227
09:58:09:802;-0.17238252;9.940725;-0.038307227
09:58:09:802;-0.17238252;9.940725;-0.038307227
09:58:09:928;-0.45968673;10.189722;-0.038307227
09:58:09:928;-0.45968673;10.189722;-0.038307227
09:58:09:928;-0.45968673;10.189722;-0.038307227
09:58:09:928;-0.45968673;10.189722;-0.038307227
09:58:09:928;-0.45968673;10.189722;-0.038307227
09:58:09:928;-0.45968673;10.189722;-0.038307227
09:58:09:928;-0.45968673;10.189722;-0.038307227
09:58:09:928;-0.45968673;10.189722;-0.038307227
09:58:09:928;-0.45968673;10.189722;-0.038307227
09:58:09:928;-0.45968673;10.189722;-0.038307227
09:58:09:928;-0.45968673;10.189722;-0.038307227
09:58:09:928;-0.45968673;10.189722;-0.038307227
09:58:09:928;-0.45968673;10.189722;-0.038307227
09:58:10:030;0.095768064;10.055647;0.019153614
09:58:10:030;0.095768064;10.055647;0.019153614
09:58:10:030;0.095768064;10.055647;0.019153614
09:58:10:030;0.095768064;10.055647;0.019153614
09:58:10:030;0.095768064;10.055647;0.019153614
09:58:10:030;0.095768064;10.055647;0.019153614
09:58:10:030;0.095768064;10.055647;0.019153614
09:58:10:030;0.095768064;10.055647;0.019153614
09:58:10:030;0.095768064;10.055647;0.019153614
09:58:10:030;0.095768064;10.055647;0.019153614
09:58:10:030;0.095768064;10.055647;0.019153614
09:58:10:030;0.095768064;10.055647;0.019153614
09:58:10:030;0.095768064;10.055647;0.019153614
09:58:10:030;0.095768064;10.055647;0.019153614
09:58:10:134;0.2873042;9.883265;-0.038307227
09:58:10:134;0.2873042;9.883265;-0.038307227
09:58:10:134;0.2873042;9.883265;-0.038307227
09:58:10:134;0.2873042;9.883265;-0.038307227
09:58:10:134;0.2873042;9.883265;-0.038307227
09:58:10:134;0.2873042;9.883265;-0.038307227
09:58:10:134;0.2873042;9.883265;-0.038307227
09:58:10:134;0.2873042;9.883265;-0.038307227
09:58:10:134;0.2873042;9.883265;-0.038307227
09:58:10:134;0.2873042;9.883265;-0.038307227
09:58:10:134;0.2873042;9.883265;-0.038307227
09:58:10:134;0.2873042;9.883265;-0.038307227
09:58:10:134;0.2873042;9.883265;-0.038307227
09:58:10:134;0.2873042;9.883265;-0.038307227
09:58:10:134;0.2873042;9.883265;-0.038307227
09:58:10:253;0.076614454;10.055647;-0.019153614
09:58:10:253;0.076614454;10.055647;-0.019153614
09:58:10:253;0.076614454;10.055647;-0.019153614
09:58:10:253;0.076614454;10.055647;-0.019153614
09:58:10:253;0.076614454;10.055647;-0.019153614
09:58:10:253;0.076614454;10.055647;-0.019153614
09:58:10:253;0.076614454;10.055647;-0.019153614
09:58:10:253;0.076614454;10.055647;-0.019153614
09:58:10:253;0.076614454;10.055647;-0.019153614
09:58:10:253;0.076614454;10.055647;-0.019153614
09:58:10:253;0.076614454;10.055647;-0.019153614
09:58:10:253;0.076614454;10.055647;-0.019153614
09:58:10:253;0.076614454;10.055647;-0.019153614
09:58:10:253;0.076614454;10.055647;-0.019153614
09:58:10:253;0.076614454;10.055647;-0.019153614
09:58:10:253;0.076614454;10.055647;-0.019153614
09:58:10:382;0.05746084;9.998186;0.038307227
09:58:10:382;0.05746084;9.998186;0.038307227
09:58:10:382;0.05746084;9.998186;0.038307227
09:58:10:382;0.05746084;9.998186;0.038307227
09:58:10:382;0.05746084;9.998186;0.038307227
09:58:10:382;0.05746084;9.998186;0.038307227
09:58:10:382;0.05746084;9.998186;0.038307227
09:58:10:382;0.05746084;9.998186;0.038307227
09:58:10:382;0.05746084;9.998186;0.038307227
09:58:10:382;0.05746084;9.998186;0.038307227
09:58:10:382;0.05746084;9.998186;0.038307227
09:58:10:382;0.05746084;9.998186;0.038307227
09:58:10:382;0.05746084;9.998186;0.038307227
09:58:10:382;0.05746084;9.998186;0.038307227
09:58:10:382;0.05746084;9.998186;0.038307227
09:58:10:382;0.05746084;9.998186;0.038307227
09:58:10:382;0.05746084;9.998186;0.038307227
09:58:10:382;0.05746084;9.998186;0.038307227
09:58:10:382;0.05746084;9.998186;0.038307227
09:58:10:382;0.05746084;9.998186;0.038307227
09:58:10:382;0.05746084;9.998186;0.038307227
09:58:10:541;0.15322891;9.959879;0.11492168
09:58:10:541;0.15322891;9.959879;0.11492168
09:58:10:541;0.15322891;9.959879;0.11492168
09:58:10:541;0.15322891;9.959879;0.11492168
09:58:10:541;0.15322891;9.959879;0.11492168
09:58:10:541;0.15322891;9.959879;0.11492168
09:58:10:541;0.15322891;9.959879;0.11492168
09:58:10:541;0.15322891;9.959879;0.11492168
09:58:10:541;0.15322891;9.959879;0.11492168
09:58:10:541;0.15322891;9.959879;0.11492168
09:58:10:541;0.15322891;9.959879;0.11492168
09:58:10:541;0.15322891;9.959879;0.11492168
09:58:10:541;0.15322891;9.959879;0.11492168
09:58:10:541;0.15322891;9.959879;0.11492168
09:58:10:654;0.076614454;9.844957;0.38307226
09:58:10:654;0.076614454;9.844957;0.38307226
09:58:10:654;0.076614454;9.844957;0.38307226
09:58:10:654;0.076614454;9.844957;0.38307226
09:58:10:654;0.076614454;9.844957;0.38307226
09:58:10:654;0.076614454;9.844957;0.38307226
09:58:10:654;0.076614454;9.844957;0.38307226
09:58:10:654;0.076614454;9.844957;0.38307226
09:58:10:654;0.076614454;9.844957;0.38307226
09:58:10:654;0.076614454;9.844957;0.38307226
09:58:10:654;0.076614454;9.844957;0.38307226
09:58:10:654;0.076614454;9.844957;0.38307226
09:58:10:654;0.076614454;9.844957;0.38307226
09:58:10:755;-0.11492168;10.113108;0.2681506
09:58:10:755;-0.11492168;10.113108;0.2681506
09:58:10:755;-0.11492168;10.113108;0.2681506
09:58:10:755;-0.11492168;10.113108;0.2681506
09:58:10:755;-0.11492168;10.113108;0.2681506
09:58:10:755;-0.11492168;10.113108;0.2681506
09:58:10:755;-0.11492168;10.113108;0.2681506
09:58:10:755;-0.11492168;10.113108;0.2681506
09:58:10:755;-0.11492168;10.113108;0.2681506
09:58:10:755;-0.11492168;10.113108;0.2681506
09:58:10:755;-0.11492168;10.113108;0.2681506
09:58:10:755;-0.11492168;10.113108;0.2681506
09:58:10:755;-0.11492168;10.113108;0.2681506
09:58:10:859;0.038307227;10.055647;0.59376204
09:58:10:859;0.038307227;10.055647;0.59376204
09:58:10:859;0.038307227;10.055647;0.59376204
09:58:10:859;0.038307227;10.055647;0.59376204
09:58:10:859;0.038307227;10.055647;0.59376204
09:58:10:859;0.038307227;10.055647;0.59376204
09:58:10:859;0.038307227;10.055647;0.59376204
09:58:10:859;0.038307227;10.055647;0.59376204
09:58:10:859;0.038307227;10.055647;0.59376204
09:58:10:859;0.038307227;10.055647;0.59376204
09:58:10:859;0.038307227;10.055647;0.59376204
09:58:10:859;0.038307227;10.055647;0.59376204
09:58:10:859;0.038307227;10.055647;0.59376204
09:58:10:859;0.038307227;10.055647;0.59376204
09:58:10:964;0.6512229;10.01734;0.4405331
09:58:10:964;0.6512229;10.01734;0.4405331
09:58:10:964;0.6512229;10.01734;0.4405331
09:58:10:964;0.6512229;10.01734;0.4405331
09:58:10:964;0.6512229;10.01734;0.4405331
09:58:10:964;0.6512229;10.01734;0.4405331
09:58:10:964;0.6512229;10.01734;0.4405331
09:58:10:964;0.6512229;10.01734;0.4405331
09:58:10:964;0.6512229;10.01734;0.4405331
09:58:10:964;0.6512229;10.01734;0.4405331
09:58:10:964;0.6512229;10.01734;0.4405331
09:58:10:964;0.6512229;10.01734;0.4405331
09:58:10:964;0.6512229;10.01734;0.4405331
09:58:10:964;0.6512229;10.01734;0.4405331
09:58:10:964;0.6512229;10.01734;0.4405331
09:58:10:964;0.6512229;10.01734;0.4405331
09:58:11:089;0.40222588;9.940725;-0.17238252
09:58:11:089;0.40222588;9.940725;-0.17238252
09:58:11:089;0.40222588;9.940725;-0.17238252
09:58:11:089;0.40222588;9.940725;-0.17238252
09:58:11:089;0.40222588;9.940725;-0.17238252
09:58:11:089;0.40222588;9.940725;-0.17238252
09:58:11:089;0.40222588;9.940725;-0.17238252
09:58:11:089;0.40222588;9.940725;-0.17238252
09:58:11:089;0.40222588;9.940725;-0.17238252
09:58:11:089;0.40222588;9.940725;-0.17238252
09:58:11:089;0.40222588;9.940725;-0.17238252
09:58:11:089;0.40222588;9.940725;-0.17238252
09:58:11:089;0.40222588;9.940725;-0.17238252
09:58:11:089;0.40222588;9.940725;-0.17238252
09:58:11:203;0.17238252;9.921572;-0.095768064
09:58:11:203;0.17238252;9.921572;-0.095768064
09:58:11:203;0.17238252;9.921572;-0.095768064
09:58:11:203;0.17238252;9.921572;-0.095768064
09:58:11:203;0.17238252;9.921572;-0.095768064
09:58:11:203;0.17238252;9.921572;-0.095768064
09:58:11:203;0.17238252;9.921572;-0.095768064
09:58:11:203;0.17238252;9.921572;-0.095768064
09:58:11:203;0.17238252;9.921572;-0.095768064
09:58:11:203;0.17238252;9.921572;-0.095768064
09:58:11:203;0.17238252;9.921572;-0.095768064
09:58:11:203;0.17238252;9.921572;-0.095768064
09:58:11:203;0.17238252;9.921572;-0.095768064
09:58:11:203;0.17238252;9.921572;-0.095768064
09:58:11:203;0.17238252;9.921572;-0.095768064
09:58:11:203;0.17238252;9.921572;-0.095768064
09:58:11:323;0.36391866;10.01734;-0.32561144
09:58:11:323;0.36391866;10.01734;-0.32561144
09:58:11:323;0.36391866;10.01734;-0.32561144
09:58:11:323;0.36391866;10.01734;-0.32561144
09:58:11:323;0.36391866;10.01734;-0.32561144
09:58:11:323;0.36391866;10.01734;-0.32561144
09:58:11:323;0.36391866;10.01734;-0.32561144
09:58:11:323;0.36391866;10.01734;-0.32561144
09:58:11:323;0.36391866;10.01734;-0.32561144
09:58:11:323;0.36391866;10.01734;-0.32561144
09:58:11:323;0.36391866;10.01734;-0.32561144
09:58:11:323;0.36391866;10.01734;-0.32561144
09:58:11:323;0.36391866;10.01734;-0.32561144
09:58:11:323;0.36391866;10.01734;-0.32561144
09:58:11:323;0.36391866;10.01734;-0.32561144
09:58:11:440;0.32561144;9.921572;-0.36391866
09:58:11:440;0.32561144;9.921572;-0.36391866
09:58:11:440;0.32561144;9.921572;-0.36391866
09:58:11:440;0.32561144;9.921572;-0.36391866
09:58:11:440;0.32561144;9.921572;-0.36391866
09:58:11:440;0.32561144;9.921572;-0.36391866
09:58:11:440;0.32561144;9.921572;-0.36391866
09:58:11:440;0.32561144;9.921572;-0.36391866
09:58:11:440;0.32561144;9.921572;-0.36391866
09:58:11:440;0.32561144;9.921572;-0.36391866
09:58:11:440;0.32561144;9.921572;-0.36391866
09:58:11:440;0.32561144;9.921572;-0.36391866
09:58:11:440;0.32561144;9.921572;-0.36391866
09:58:11:440;0.32561144;9.921572;-0.36391866
09:58:11:440;0.32561144;9.921572;-0.36391866
09:58:11:557;0.38307226;10.189722;-0.30645782
09:58:11:557;0.38307226;10.189722;-0.30645782
09:58:11:557;0.38307226;10.189722;-0.30645782
09:58:11:557;0.38307226;10.189722;-0.30645782
09:58:11:557;0.38307226;10.189722;-0.30645782
09:58:11:557;0.38307226;10.189722;-0.30645782
09:58:11:557;0.38307226;10.189722;-0.30645782
09:58:11:557;0.38307226;10.189722;-0.30645782
09:58:11:557;0.38307226;10.189722;-0.30645782
09:58:11:557;0.38307226;10.189722;-0.30645782
09:58:11:557;0.38307226;10.189722;-0.30645782
09:58:11:557;0.38307226;10.189722;-0.30645782
09:58:11:557;0.38307226;10.189722;-0.30645782
09:58:11:658;0.2681506;9.921572;-0.095768064
09:58:11:658;0.2681506;9.921572;-0.095768064
09:58:11:658;0.2681506;9.921572;-0.095768064
09:58:11:658;0.2681506;9.921572;-0.095768064
09:58:11:658;0.2681506;9.921572;-0.095768064
09:58:11:658;0.2681506;9.921572;-0.095768064
09:58:11:658;0.2681506;9.921572;-0.095768064
09:58:11:658;0.2681506;9.921572;-0.095768064
09:58:11:658;0.2681506;9.921572;-0.095768064
09:58:11:658;0.2681506;9.921572;-0.095768064
09:58:11:658;0.2681506;9.921572;-0.095768064
09:58:11:658;0.2681506;9.921572;-0.095768064
09:58:11:658;0.2681506;9.921572;-0.095768064
09:58:11:658;0.2681506;9.921572;-0.095768064
09:58:11:658;0.2681506;9.921572;-0.095768064
09:58:11:658;0.2681506;9.921572;-0.095768064
09:58:11:783;0.038307227;9.940725;-0.05746084
09:58:11:783;0.038307227;9.940725;-0.05746084
09:58:11:783;0.038307227;9.940725;-0.05746084
09:58:11:783;0.038307227;9.940725;-0.05746084
09:58:11:783;0.038307227;9.940725;-0.05746084
09:58:11:783;0.038307227;9.940725;-0.05746084
09:58:11:783;0.038307227;9.940725;-0.05746084
09:58:11:783;0.038307227;9.940725;-0.05746084
09:58:11:783;0.038307227;9.940725;-0.05746084
09:58:11:783;0.038307227;9.940725;-0.05746084
09:58:11:783;0.038307227;9.940725;-0.05746084
09:58:11:783;0.038307227;9.940725;-0.05746084
09:58:11:783;0.038307227;9.940725;-0.05746084
09:58:11:783;0.038307227;9.940725;-0.05746084
09:58:11:897;0.095768064;10.093954;0.22984336
09:58:11:897;0.095768064;10.093954;0.22984336
09:58:11:897;0.095768064;10.093954;0.22984336
09:58:11:897;0.095768064;10.093954;0.22984336
09:58:11:897;0.095768064;10.093954;0.22984336
09:58:11:897;0.095768064;10.093954;0.22984336
09:58:11:897;0.095768064;10.093954;0.22984336
09:58:11:897;0.095768064;10.093954;0.22984336
09:58:11:897;0.095768064;10.093954;0.22984336
09:58:11:897;0.095768064;10.093954;0.22984336
09:58:11:897;0.095768064;10.093954;0.22984336
09:58:11:897;0.095768064;10.093954;0.22984336
09:58:11:897;0.095768064;10.093954;0.22984336
09:58:11:897;0.095768064;10.093954;0.22984336
09:58:12:003;-0.05746084;10.093954;0.45968673
09:58:12:003;-0.05746084;10.093954;0.45968673
09:58:12:003;-0.05746084;10.093954;0.45968673
09:58:12:003;-0.05746084;10.093954;0.45968673
09:58:12:003;-0.05746084;10.093954;0.45968673
09:58:12:003;-0.05746084;10.093954;0.45968673
09:58:12:003;-0.05746084;10.093954;0.45968673
09:58:12:003;-0.05746084;10.093954;0.45968673
09:58:12:003;-0.05746084;10.093954;0.45968673
09:58:12:003;-0.05746084;10.093954;0.45968673
09:58:12:003;-0.05746084;10.093954;0.45968673
09:58:12:003;-0.05746084;10.093954;0.45968673
09:58:12:003;-0.05746084;10.093954;0.45968673
09:58:12:106;-0.24899697;10.055647;0.4405331
09:58:12:106;-0.24899697;10.055647;0.4405331
09:58:12:106;-0.24899697;10.055647;0.4405331
09:58:12:106;-0.24899697;10.055647;0.4405331
09:58:12:106;-0.24899697;10.055647;0.4405331
09:58:12:106;-0.24899697;10.055647;0.4405331
09:58:12:106;-0.24899697;10.055647;0.4405331
09:58:12:106;-0.24899697;10.055647;0.4405331
09:58:12:106;-0.24899697;10.055647;0.4405331
09:58:12:106;-0.24899697;10.055647;0.4405331
09:58:12:106;-0.24899697;10.055647;0.4405331
09:58:12:106;-0.24899697;10.055647;0.4405331
09:58:12:106;-0.24899697;10.055647;0.4405331
09:58:12:209;-0.34476504;10.055647;0.5363012
09:58:12:209;-0.34476504;10.055647;0.5363012
09:58:12:209;-0.34476504;10.055647;0.5363012
09:58:12:209;-0.34476504;10.055647;0.5363012
09:58:12:209;-0.34476504;10.055647;0.5363012
09:58:12:209;-0.34476504;10.055647;0.5363012
09:58:12:209;-0.34476504;10.055647;0.5363012
09:58:12:209;-0.34476504;10.055647;0.5363012
09:58:12:209;-0.34476504;10.055647;0.5363012
09:58:12:209;-0.34476504;10.055647;0.5363012
09:58:12:209;-0.34476504;10.055647;0.5363012
09:58:12:209;-0.34476504;10.055647;0.5363012
09:58:12:209;-0.34476504;10.055647;0.5363012
09:58:12:209;-0.34476504;10.055647;0.5363012
09:58:12:209;-0.34476504;10.055647;0.5363012
09:58:12:326;-0.21068975;9.902418;0.8810662
09:58:12:326;-0.21068975;9.902418;0.8810662
09:58:12:326;-0.21068975;9.902418;0.8810662
09:58:12:326;-0.21068975;9.902418;0.8810662
09:58:12:326;-0.21068975;9.902418;0.8810662
09:58:12:326;-0.21068975;9.902418;0.8810662
09:58:12:326;-0.21068975;9.902418;0.8810662
09:58:12:326;-0.21068975;9.902418;0.8810662
09:58:12:326;-0.21068975;9.902418;0.8810662
09:58:12:326;-0.21068975;9.902418;0.8810662
09:58:12:326;-0.21068975;9.902418;0.8810662
09:58:12:326;-0.21068975;9.902418;0.8810662
09:58:12:326;-0.21068975;9.902418;0.8810662
09:58:12:326;-0.21068975;9.902418;0.8810662
09:58:12:326;-0.21068975;9.902418;0.8810662
09:58:12:439;-0.32561144;10.093954;0.7278373
09:58:12:439;-0.32561144;10.093954;0.7278373
09:58:12:439;-0.32561144;10.093954;0.7278373
09:58:12:439;-0.32561144;10.093954;0.7278373
09:58:12:439;-0.32561144;10.093954;0.7278373
09:58:12:439;-0.32561144;10.093954;0.7278373
09:58:12:439;-0.32561144;10.093954;0.7278373
09:58:12:439;-0.32561144;10.093954;0.7278373
09:58:12:439;-0.32561144;10.093954;0.7278373
09:58:12:439;-0.32561144;10.093954;0.7278373
09:58:12:439;-0.32561144;10.093954;0.7278373
09:58:12:439;-0.32561144;10.093954;0.7278373
09:58:12:439;-0.32561144;10.093954;0.7278373
09:58:12:544;-0.34476504;10.170568;0.7086837
09:58:12:544;-0.34476504;10.170568;0.7086837
09:58:12:544;-0.34476504;10.170568;0.7086837
09:58:12:544;-0.34476504;10.170568;0.7086837
09:58:12:544;-0.34476504;10.170568;0.7086837
09:58:12:544;-0.34476504;10.170568;0.7086837
09:58:12:544;-0.34476504;10.170568;0.7086837
09:58:12:544;-0.34476504;10.170568;0.7086837
09:58:12:544;-0.34476504;10.170568;0.7086837
09:58:12:544;-0.34476504;10.170568;0.7086837
09:58:12:544;-0.34476504;10.170568;0.7086837
09:58:12:544;-0.34476504;10.170568;0.7086837
09:58:12:544;-0.34476504;10.170568;0.7086837
09:58:12:544;-0.34476504;10.170568;0.7086837
09:58:12:544;-0.34476504;10.170568;0.7086837
09:58:12:544;-0.34476504;10.170568;0.7086837
09:58:12:544;-0.34476504;10.170568;0.7086837
09:58:12:544;-0.34476504;10.170568;0.7086837
09:58:12:544;-0.34476504;10.170568;0.7086837
09:58:12:544;-0.34476504;10.170568;0.7086837
09:58:12:544;-0.34476504;10.170568;0.7086837
09:58:12:544;-0.34476504;10.170568;0.7086837
09:58:12:544;-0.34476504;10.170568;0.7086837
09:58:12:544;-0.34476504;10.170568;0.7086837
09:58:12:732;-0.2681506;9.940725;0.59376204
09:58:12:732;-0.2681506;9.940725;0.59376204
09:58:12:732;-0.2681506;9.940725;0.59376204
09:58:12:732;-0.2681506;9.940725;0.59376204
09:58:12:732;-0.2681506;9.940725;0.59376204
09:58:12:732;-0.2681506;9.940725;0.59376204
09:58:12:732;-0.2681506;9.940725;0.59376204
09:58:12:732;-0.2681506;9.940725;0.59376204
09:58:12:732;-0.2681506;9.940725;0.59376204
09:58:12:732;-0.2681506;9.940725;0.59376204
09:58:12:732;-0.2681506;9.940725;0.59376204
09:58:12:732;-0.2681506;9.940725;0.59376204
09:58:12:732;-0.2681506;9.940725;0.59376204
09:58:12:732;-0.2681506;9.940725;0.59376204
09:58:12:837;-0.1340753;10.170568;0.5746084
09:58:12:837;-0.1340753;10.170568;0.5746084
09:58:12:837;-0.1340753;10.170568;0.5746084
09:58:12:837;-0.1340753;10.170568;0.5746084
09:58:12:837;-0.1340753;10.170568;0.5746084
09:58:12:837;-0.1340753;10.170568;0.5746084
09:58:12:837;-0.1340753;10.170568;0.5746084
09:58:12:837;-0.1340753;10.170568;0.5746084
09:58:12:837;-0.1340753;10.170568;0.5746084
09:58:12:837;-0.1340753;10.170568;0.5746084
09:58:12:837;-0.1340753;10.170568;0.5746084
09:58:12:837;-0.1340753;10.170568;0.5746084
09:58:12:837;-0.1340753;10.170568;0.5746084
09:58:12:940;-0.1340753;10.170568;0.34476504
09:58:12:940;-0.1340753;10.170568;0.34476504
09:58:12:940;-0.1340753;10.170568;0.34476504
09:58:12:940;-0.1340753;10.170568;0.34476504
09:58:12:940;-0.1340753;10.170568;0.34476504
09:58:12:940;-0.1340753;10.170568;0.34476504
09:58:12:940;-0.1340753;10.170568;0.34476504
09:58:12:940;-0.1340753;10.170568;0.34476504
09:58:12:940;-0.1340753;10.170568;0.34476504
09:58:12:940;-0.1340753;10.170568;0.34476504
09:58:12:940;-0.1340753;10.170568;0.34476504
09:58:12:940;-0.1340753;10.170568;0.34476504
09:58:12:940;-0.1340753;10.170568;0.34476504
09:58:12:940;-0.1340753;10.170568;0.34476504
09:58:12:940;-0.1340753;10.170568;0.34476504
09:58:12:940;-0.1340753;10.170568;0.34476504
09:58:13:067;0.038307227;9.80665;0.38307226
09:58:13:067;0.038307227;9.80665;0.38307226
09:58:13:067;0.038307227;9.80665;0.38307226
09:58:13:067;0.038307227;9.80665;0.38307226
09:58:13:067;0.038307227;9.80665;0.38307226
09:58:13:067;0.038307227;9.80665;0.38307226
09:58:13:067;0.038307227;9.80665;0.38307226
09:58:13:067;0.038307227;9.80665;0.38307226
09:58:13:067;0.038307227;9.80665;0.38307226
09:58:13:067;0.038307227;9.80665;0.38307226
09:58:13:067;0.038307227;9.80665;0.38307226
09:58:13:067;0.038307227;9.80665;0.38307226
09:58:13:067;0.038307227;9.80665;0.38307226
09:58:13:067;0.038307227;9.80665;0.38307226
09:58:13:179;0.19153613;9.864111;0.38307226
09:58:13:179;0.19153613;9.864111;0.38307226
09:58:13:179;0.19153613;9.864111;0.38307226
09:58:13:179;0.19153613;9.864111;0.38307226
09:58:13:179;0.19153613;9.864111;0.38307226
09:58:13:179;0.19153613;9.864111;0.38307226
09:58:13:179;0.19153613;9.864111;0.38307226
09:58:13:179;0.19153613;9.864111;0.38307226
09:58:13:179;0.19153613;9.864111;0.38307226
09:58:13:179;0.19153613;9.864111;0.38307226
09:58:13:179;0.19153613;9.864111;0.38307226
09:58:13:179;0.19153613;9.864111;0.38307226
09:58:13:179;0.19153613;9.864111;0.38307226
09:58:13:179;0.19153613;9.864111;0.38307226
09:58:13:179;0.19153613;9.864111;0.38307226
09:58:13:179;0.19153613;9.864111;0.38307226
09:58:13:298;0.11492168;10.01734;-0.019153614
09:58:13:298;0.11492168;10.01734;-0.019153614
09:58:13:298;0.11492168;10.01734;-0.019153614
09:58:13:298;0.11492168;10.01734;-0.019153614
09:58:13:298;0.11492168;10.01734;-0.019153614
09:58:13:298;0.11492168;10.01734;-0.019153614
09:58:13:298;0.11492168;10.01734;-0.019153614
09:58:13:298;0.11492168;10.01734;-0.019153614
09:58:13:298;0.11492168;10.01734;-0.019153614
09:58:13:298;0.11492168;10.01734;-0.019153614
09:58:13:298;0.11492168;10.01734;-0.019153614
09:58:13:298;0.11492168;10.01734;-0.019153614
09:58:13:298;0.11492168;10.01734;-0.019153614
09:58:13:401;-0.11492168;9.940725;0.2681506
09:58:13:401;-0.11492168;9.940725;0.2681506
09:58:13:401;-0.11492168;9.940725;0.2681506
09:58:13:401;-0.11492168;9.940725;0.2681506
09:58:13:401;-0.11492168;9.940725;0.2681506
09:58:13:401;-0.11492168;9.940725;0.2681506
09:58:13:401;-0.11492168;9.940725;0.2681506
09:58:13:401;-0.11492168;9.940725;0.2681506
09:58:13:401;-0.11492168;9.940725;0.2681506
09:58:13:401;-0.11492168;9.940725;0.2681506
09:58:13:401;-0.11492168;9.940725;0.2681506
09:58:13:401;-0.11492168;9.940725;0.2681506
09:58:13:401;-0.11492168;9.940725;0.2681506
09:58:13:401;-0.11492168;9.940725;0.2681506
09:58:13:401;-0.11492168;9.940725;0.2681506
09:58:13:516;-0.24899697;10.0748005;0.6512229
09:58:13:516;-0.24899697;10.0748005;0.6512229
09:58:13:516;-0.24899697;10.0748005;0.6512229
09:58:13:516;-0.24899697;10.0748005;0.6512229
09:58:13:516;-0.24899697;10.0748005;0.6512229
09:58:13:516;-0.24899697;10.0748005;0.6512229
09:58:13:516;-0.24899697;10.0748005;0.6512229
09:58:13:516;-0.24899697;10.0748005;0.6512229
09:58:13:516;-0.24899697;10.0748005;0.6512229
09:58:13:516;-0.24899697;10.0748005;0.6512229
09:58:13:516;-0.24899697;10.0748005;0.6512229
09:58:13:516;-0.24899697;10.0748005;0.6512229
09:58:13:516;-0.24899697;10.0748005;0.6512229
09:58:13:516;-0.24899697;10.0748005;0.6512229
09:58:13:516;-0.24899697;10.0748005;0.6512229
09:58:13:516;-0.24899697;10.0748005;0.6512229
09:58:13:516;-0.24899697;10.0748005;0.6512229
09:58:13:516;-0.24899697;10.0748005;0.6512229
09:58:13:516;-0.24899697;10.0748005;0.6512229
09:58:13:516;-0.24899697;10.0748005;0.6512229
09:58:13:516;-0.24899697;10.0748005;0.6512229
09:58:13:680;-0.11492168;9.864111;1.0726024
09:58:13:680;-0.11492168;9.864111;1.0726024
09:58:13:680;-0.11492168;9.864111;1.0726024
09:58:13:680;-0.11492168;9.864111;1.0726024
09:58:13:680;-0.11492168;9.864111;1.0726024
09:58:13:680;-0.11492168;9.864111;1.0726024
09:58:13:680;-0.11492168;9.864111;1.0726024
09:58:13:680;-0.11492168;9.864111;1.0726024
09:58:13:680;-0.11492168;9.864111;1.0726024
09:58:13:680;-0.11492168;9.864111;1.0726024
09:58:13:680;-0.11492168;9.864111;1.0726024
09:58:13:680;-0.11492168;9.864111;1.0726024
09:58:13:680;-0.11492168;9.864111;1.0726024
09:58:13:680;-0.11492168;9.864111;1.0726024
09:58:13:680;-0.11492168;9.864111;1.0726024
09:58:13:798;0.5554548;9.864111;0.17238252
09:58:13:798;0.5554548;9.864111;0.17238252
09:58:13:798;0.5554548;9.864111;0.17238252
09:58:13:798;0.5554548;9.864111;0.17238252
09:58:13:798;0.5554548;9.864111;0.17238252
09:58:13:798;0.5554548;9.864111;0.17238252
09:58:13:798;0.5554548;9.864111;0.17238252
09:58:13:798;0.5554548;9.864111;0.17238252
09:58:13:798;0.5554548;9.864111;0.17238252
09:58:13:798;0.5554548;9.864111;0.17238252
09:58:13:798;0.5554548;9.864111;0.17238252
09:58:13:798;0.5554548;9.864111;0.17238252
09:58:13:798;0.5554548;9.864111;0.17238252
09:58:13:798;0.5554548;9.864111;0.17238252
09:58:13:912;0.47884035;10.170568;-0.22984336
09:58:13:912;0.47884035;10.170568;-0.22984336
09:58:13:912;0.47884035;10.170568;-0.22984336
09:58:13:912;0.47884035;10.170568;-0.22984336
09:58:13:912;0.47884035;10.170568;-0.22984336
09:58:13:912;0.47884035;10.170568;-0.22984336
09:58:13:912;0.47884035;10.170568;-0.22984336
09:58:13:912;0.47884035;10.170568;-0.22984336
09:58:13:912;0.47884035;10.170568;-0.22984336
09:58:13:912;0.47884035;10.170568;-0.22984336
09:58:13:912;0.47884035;10.170568;-0.22984336
09:58:13:912;0.47884035;10.170568;-0.22984336
09:58:13:912;0.47884035;10.170568;-0.22984336
09:58:13:912;0.47884035;10.170568;-0.22984336
09:58:13:912;0.47884035;10.170568;-0.22984336
09:58:13:912;0.47884035;10.170568;-0.22984336
09:58:14:032;0.7086837;10.093954;-0.1340753
09:58:14:032;0.7086837;10.093954;-0.1340753
09:58:14:032;0.7086837;10.093954;-0.1340753
09:58:14:032;0.7086837;10.093954;-0.1340753
09:58:14:032;0.7086837;10.093954;-0.1340753
09:58:14:032;0.7086837;10.093954;-0.1340753
09:58:14:032;0.7086837;10.093954;-0.1340753
09:58:14:032;0.7086837;10.093954;-0.1340753
09:58:14:032;0.7086837;10.093954;-0.1340753
09:58:14:032;0.7086837;10.093954;-0.1340753
09:58:14:032;0.7086837;10.093954;-0.1340753
09:58:14:032;0.7086837;10.093954;-0.1340753
09:58:14:032;0.7086837;10.093954;-0.1340753
09:58:14:032;0.7086837;10.093954;-0.1340753
09:58:14:144;0.59376204;9.902418;-0.2681506
09:58:14:144;0.59376204;9.902418;-0.2681506
09:58:14:144;0.59376204;9.902418;-0.2681506
09:58:14:144;0.59376204;9.902418;-0.2681506
09:58:14:144;0.59376204;9.902418;-0.2681506
09:58:14:144;0.59376204;9.902418;-0.2681506
09:58:14:144;0.59376204;9.902418;-0.2681506
09:58:14:144;0.59376204;9.902418;-0.2681506
09:58:14:144;0.59376204;9.902418;-0.2681506
09:58:14:144;0.59376204;9.902418;-0.2681506
09:58:14:144;0.59376204;9.902418;-0.2681506
09:58:14:144;0.59376204;9.902418;-0.2681506
09:58:14:144;0.59376204;9.902418;-0.2681506
09:58:14:250;0.05746084;10.113108;-0.4213795
09:58:14:250;0.05746084;10.113108;-0.4213795
09:58:14:250;0.05746084;10.113108;-0.4213795
09:58:14:250;0.05746084;10.113108;-0.4213795
09:58:14:250;0.05746084;10.113108;-0.4213795
09:58:14:250;0.05746084;10.113108;-0.4213795
09:58:14:250;0.05746084;10.113108;-0.4213795
09:58:14:250;0.05746084;10.113108;-0.4213795
09:58:14:250;0.05746084;10.113108;-0.4213795
09:58:14:250;0.05746084;10.113108;-0.4213795
09:58:14:250;0.05746084;10.113108;-0.4213795
09:58:14:250;0.05746084;10.113108;-0.4213795
09:58:14:250;0.05746084;10.113108;-0.4213795
09:58:14:351;0.15322891;10.247183;-0.21068975
09:58:14:351;0.15322891;10.247183;-0.21068975
09:58:14:351;0.15322891;10.247183;-0.21068975
09:58:14:351;0.15322891;10.247183;-0.21068975
09:58:14:351;0.15322891;10.247183;-0.21068975
09:58:14:351;0.15322891;10.247183;-0.21068975
09:58:14:351;0.15322891;10.247183;-0.21068975
09:58:14:351;0.15322891;10.247183;-0.21068975
09:58:14:351;0.15322891;10.247183;-0.21068975
09:58:14:351;0.15322891;10.247183;-0.21068975
09:58:14:351;0.15322891;10.247183;-0.21068975
09:58:14:351;0.15322891;10.247183;-0.21068975
09:58:14:351;0.15322891;10.247183;-0.21068975
09:58:14:453;0.2873042;9.921572;-0.21068975
09:58:14:453;0.2873042;9.921572;-0.21068975
09:58:14:453;0.2873042;9.921572;-0.21068975
09:58:14:453;0.2873042;9.921572;-0.21068975
09:58:14:453;0.2873042;9.921572;-0.21068975
09:58:14:453;0.2873042;9.921572;-0.21068975
09:58:14:453;0.2873042;9.921572;-0.21068975
09:58:14:453;0.2873042;9.921572;-0.21068975
09:58:14:453;0.2873042;9.921572;-0.21068975
09:58:14:453;0.2873042;9.921572;-0.21068975
09:58:14:453;0.2873042;9.921572;-0.21068975
09:58:14:453;0.2873042;9.921572;-0.21068975
09:58:14:453;0.2873042;9.921572;-0.21068975
09:58:14:453;0.2873042;9.921572;-0.21068975
09:58:14:453;0.2873042;9.921572;-0.21068975
09:58:14:453;0.2873042;9.921572;-0.21068975
09:58:14:571;-0.2873042;9.844957;0.05746084
09:58:14:571;-0.2873042;9.844957;0.05746084
09:58:14:571;-0.2873042;9.844957;0.05746084
09:58:14:571;-0.2873042;9.844957;0.05746084
09:58:14:571;-0.2873042;9.844957;0.05746084
09:58:14:571;-0.2873042;9.844957;0.05746084
09:58:14:571;-0.2873042;9.844957;0.05746084
09:58:14:571;-0.2873042;9.844957;0.05746084
09:58:14:571;-0.2873042;9.844957;0.05746084
09:58:14:571;-0.2873042;9.844957;0.05746084
09:58:14:571;-0.2873042;9.844957;0.05746084
09:58:14:571;-0.2873042;9.844957;0.05746084
09:58:14:571;-0.2873042;9.844957;0.05746084
09:58:14:571;-0.2873042;9.844957;0.05746084
09:58:14:681;-0.15322891;9.9790325;0.40222588
09:58:14:681;-0.15322891;9.9790325;0.40222588
09:58:14:681;-0.15322891;9.9790325;0.40222588
09:58:14:681;-0.15322891;9.9790325;0.40222588
09:58:14:681;-0.15322891;9.9790325;0.40222588
09:58:14:681;-0.15322891;9.9790325;0.40222588
09:58:14:681;-0.15322891;9.9790325;0.40222588
09:58:14:681;-0.15322891;9.9790325;0.40222588
09:58:14:681;-0.15322891;9.9790325;0.40222588
09:58:14:681;-0.15322891;9.9790325;0.40222588
09:58:14:681;-0.15322891;9.9790325;0.40222588
09:58:14:681;-0.15322891;9.9790325;0.40222588
09:58:14:681;-0.15322891;9.9790325;0.40222588
09:58:14:681;-0.15322891;9.9790325;0.40222588
09:58:14:795;-0.19153613;9.998186;0.80445176
09:58:14:795;-0.19153613;9.998186;0.80445176
09:58:14:795;-0.19153613;9.998186;0.80445176
09:58:14:795;-0.19153613;9.998186;0.80445176
09:58:14:795;-0.19153613;9.998186;0.80445176
09:58:14:795;-0.19153613;9.998186;0.80445176
09:58:14:795;-0.19153613;9.998186;0.80445176
09:58:14:795;-0.19153613;9.998186;0.80445176
09:58:14:795;-0.19153613;9.998186;0.80445176
09:58:14:795;-0.19153613;9.998186;0.80445176
09:58:14:795;-0.19153613;9.998186;0.80445176
09:58:14:795;-0.19153613;9.998186;0.80445176
09:58:14:795;-0.19153613;9.998186;0.80445176
09:58:14:795;-0.19153613;9.998186;0.80445176
09:58:14:795;-0.19153613;9.998186;0.80445176
09:58:14:795;-0.19153613;9.998186;0.80445176
09:58:14:795;-0.19153613;9.998186;0.80445176
09:58:14:925;0.15322891;10.01734;0.6512229
09:58:14:925;0.15322891;10.01734;0.6512229
09:58:14:925;0.15322891;10.01734;0.6512229
09:58:14:925;0.15322891;10.01734;0.6512229
09:58:14:925;0.15322891;10.01734;0.6512229
09:58:14:925;0.15322891;10.01734;0.6512229
09:58:14:925;0.15322891;10.01734;0.6512229
09:58:14:925;0.15322891;10.01734;0.6512229
09:58:14:925;0.15322891;10.01734;0.6512229
09:58:14:925;0.15322891;10.01734;0.6512229
09:58:14:925;0.15322891;10.01734;0.6512229
09:58:14:925;0.15322891;10.01734;0.6512229
09:58:14:925;0.15322891;10.01734;0.6512229
09:58:14:925;0.15322891;10.01734;0.6512229
09:58:15:033;0.4213795;10.113108;0.4405331
09:58:15:033;0.4213795;10.113108;0.4405331
09:58:15:033;0.4213795;10.113108;0.4405331
09:58:15:033;0.4213795;10.113108;0.4405331
09:58:15:033;0.4213795;10.113108;0.4405331
09:58:15:033;0.4213795;10.113108;0.4405331
09:58:15:033;0.4213795;10.113108;0.4405331
09:58:15:033;0.4213795;10.113108;0.4405331
09:58:15:033;0.4213795;10.113108;0.4405331
09:58:15:033;0.4213795;10.113108;0.4405331
09:58:15:033;0.4213795;10.113108;0.4405331
09:58:15:033;0.4213795;10.113108;0.4405331
09:58:15:033;0.4213795;10.113108;0.4405331
09:58:15:033;0.4213795;10.113108;0.4405331
09:58:15:033;0.4213795;10.113108;0.4405331
09:58:15:152;-0.05746084;9.768343;0.11492168
09:58:15:152;-0.05746084;9.768343;0.11492168
09:58:15:152;-0.05746084;9.768343;0.11492168
09:58:15:152;-0.05746084;9.768343;0.11492168
09:58:15:152;-0.05746084;9.768343;0.11492168
09:58:15:152;-0.05746084;9.768343;0.11492168
09:58:15:152;-0.05746084;9.768343;0.11492168
09:58:15:152;-0.05746084;9.768343;0.11492168
09:58:15:152;-0.05746084;9.768343;0.11492168
09:58:15:152;-0.05746084;9.768343;0.11492168
09:58:15:152;-0.05746084;9.768343;0.11492168
09:58:15:152;-0.05746084;9.768343;0.11492168
09:58:15:152;-0.05746084;9.768343;0.11492168
09:58:15:152;-0.05746084;9.768343;0.11492168
09:58:15:152;-0.05746084;9.768343;0.11492168
09:58:15:270;-0.095768064;9.80665;0.47884035
09:58:15:270;-0.095768064;9.80665;0.47884035
09:58:15:270;-0.095768064;9.80665;0.47884035
09:58:15:270;-0.095768064;9.80665;0.47884035
09:58:15:270;-0.095768064;9.80665;0.47884035
09:58:15:270;-0.095768064;9.80665;0.47884035
09:58:15:270;-0.095768064;9.80665;0.47884035
09:58:15:270;-0.095768064;9.80665;0.47884035
09:58:15:270;-0.095768064;9.80665;0.47884035
09:58:15:270;-0.095768064;9.80665;0.47884035
09:58:15:270;-0.095768064;9.80665;0.47884035
09:58:15:270;-0.095768064;9.80665;0.47884035
09:58:15:270;-0.095768064;9.80665;0.47884035
09:58:15:270;-0.095768064;9.80665;0.47884035
09:58:15:270;-0.095768064;9.80665;0.47884035
09:58:15:388;0.076614454;10.113108;0.6703765
09:58:15:388;0.076614454;10.113108;0.6703765
09:58:15:388;0.076614454;10.113108;0.6703765
09:58:15:388;0.076614454;10.113108;0.6703765
09:58:15:388;0.076614454;10.113108;0.6703765
09:58:15:388;0.076614454;10.113108;0.6703765
09:58:15:388;0.076614454;10.113108;0.6703765
09:58:15:388;0.076614454;10.113108;0.6703765
09:58:15:388;0.076614454;10.113108;0.6703765
09:58:15:388;0.076614454;10.113108;0.6703765
09:58:15:388;0.076614454;10.113108;0.6703765
09:58:15:388;0.076614454;10.113108;0.6703765
09:58:15:388;0.076614454;10.113108;0.6703765
09:58:15:388;0.076614454;10.113108;0.6703765
09:58:15:388;0.076614454;10.113108;0.6703765
09:58:15:388;0.076614454;10.113108;0.6703765
09:58:15:509;0.5363012;10.113108;0.21068975
09:58:15:509;0.5363012;10.113108;0.21068975
09:58:15:509;0.5363012;10.113108;0.21068975
09:58:15:509;0.5363012;10.113108;0.21068975
09:58:15:509;0.5363012;10.113108;0.21068975
09:58:15:509;0.5363012;10.113108;0.21068975
09:58:15:509;0.5363012;10.113108;0.21068975
09:58:15:509;0.5363012;10.113108;0.21068975
09:58:15:509;0.5363012;10.113108;0.21068975
09:58:15:509;0.5363012;10.113108;0.21068975
09:58:15:509;0.5363012;10.113108;0.21068975
09:58:15:509;0.5363012;10.113108;0.21068975
09:58:15:509;0.5363012;10.113108;0.21068975
09:58:15:509;0.5363012;10.113108;0.21068975
09:58:15:509;0.5363012;10.113108;0.21068975
09:58:15:629;0.5554548;9.749189;-0.05746084
09:58:15:629;0.5554548;9.749189;-0.05746084
09:58:15:629;0.5554548;9.749189;-0.05746084
09:58:15:629;0.5554548;9.749189;-0.05746084
09:58:15:629;0.5554548;9.749189;-0.05746084
09:58:15:629;0.5554548;9.749189;-0.05746084
09:58:15:629;0.5554548;9.749189;-0.05746084
09:58:15:629;0.5554548;9.749189;-0.05746084
09:58:15:629;0.5554548;9.749189;-0.05746084
09:58:15:629;0.5554548;9.749189;-0.05746084
09:58:15:629;0.5554548;9.749189;-0.05746084
09:58:15:629;0.5554548;9.749189;-0.05746084
09:58:15:629;0.5554548;9.749189;-0.05746084
09:58:15:629;0.5554548;9.749189;-0.05746084
09:58:15:629;0.5554548;9.749189;-0.05746084
09:58:15:749;0.4405331;10.457873;0.21068975
09:58:15:749;0.4405331;10.457873;0.21068975
09:58:15:749;0.4405331;10.457873;0.21068975
09:58:15:749;0.4405331;10.457873;0.21068975
09:58:15:749;0.4405331;10.457873;0.21068975
09:58:15:749;0.4405331;10.457873;0.21068975
09:58:15:749;0.4405331;10.457873;0.21068975
09:58:15:749;0.4405331;10.457873;0.21068975
09:58:15:749;0.4405331;10.457873;0.21068975
09:58:15:749;0.4405331;10.457873;0.21068975
09:58:15:749;0.4405331;10.457873;0.21068975
09:58:15:749;0.4405331;10.457873;0.21068975
09:58:15:749;0.4405331;10.457873;0.21068975
09:58:15:851;0.38307226;9.998186;0.15322891
09:58:15:851;0.38307226;9.998186;0.15322891
09:58:15:851;0.38307226;9.998186;0.15322891
09:58:15:851;0.38307226;9.998186;0.15322891
09:58:15:851;0.38307226;9.998186;0.15322891
09:58:15:851;0.38307226;9.998186;0.15322891
09:58:15:851;0.38307226;9.998186;0.15322891
09:58:15:851;0.38307226;9.998186;0.15322891
09:58:15:851;0.38307226;9.998186;0.15322891
09:58:15:851;0.38307226;9.998186;0.15322891
09:58:15:851;0.38307226;9.998186;0.15322891
09:58:15:851;0.38307226;9.998186;0.15322891
09:58:15:851;0.38307226;9.998186;0.15322891
09:58:15:851;0.38307226;9.998186;0.15322891
09:58:15:851;0.38307226;9.998186;0.15322891
09:58:15:962;0.5746084;9.825804;-0.24899697
09:58:15:962;0.5746084;9.825804;-0.24899697
09:58:15:962;0.5746084;9.825804;-0.24899697
09:58:15:962;0.5746084;9.825804;-0.24899697
09:58:15:962;0.5746084;9.825804;-0.24899697
09:58:15:962;0.5746084;9.825804;-0.24899697
09:58:15:962;0.5746084;9.825804;-0.24899697
09:58:15:962;0.5746084;9.825804;-0.24899697
09:58:15:962;0.5746084;9.825804;-0.24899697
09:58:15:962;0.5746084;9.825804;-0.24899697
09:58:15:962;0.5746084;9.825804;-0.24899697
09:58:15:962;0.5746084;9.825804;-0.24899697
09:58:15:962;0.5746084;9.825804;-0.24899697
09:58:15:962;0.5746084;9.825804;-0.24899697
09:58:15:962;0.5746084;9.825804;-0.24899697
09:58:16:085;-0.095768064;10.01734;0.076614454
09:58:16:085;-0.095768064;10.01734;0.076614454
09:58:16:085;-0.095768064;10.01734;0.076614454
09:58:16:085;-0.095768064;10.01734;0.076614454
09:58:16:085;-0.095768064;10.01734;0.076614454
09:58:16:085;-0.095768064;10.01734;0.076614454
09:58:16:085;-0.095768064;10.01734;0.076614454
09:58:16:085;-0.095768064;10.01734;0.076614454
09:58:16:085;-0.095768064;10.01734;0.076614454
09:58:16:085;-0.095768064;10.01734;0.076614454
09:58:16:085;-0.095768064;10.01734;0.076614454
09:58:16:085;-0.095768064;10.01734;0.076614454
09:58:16:085;-0.095768064;10.01734;0.076614454
09:58:16:085;-0.095768064;10.01734;0.076614454
09:58:16:085;-0.095768064;10.01734;0.076614454
09:58:16:203;0.11492168;9.595961;-0.076614454
09:58:16:203;0.11492168;9.595961;-0.076614454
09:58:16:203;0.11492168;9.595961;-0.076614454
09:58:16:203;0.11492168;9.595961;-0.076614454
09:58:16:203;0.11492168;9.595961;-0.076614454
09:58:16:203;0.11492168;9.595961;-0.076614454
09:58:16:203;0.11492168;9.595961;-0.076614454
09:58:16:203;0.11492168;9.595961;-0.076614454
09:58:16:203;0.11492168;9.595961;-0.076614454
09:58:16:203;0.11492168;9.595961;-0.076614454
09:58:16:203;0.11492168;9.595961;-0.076614454
09:58:16:203;0.11492168;9.595961;-0.076614454
09:58:16:203;0.11492168;9.595961;-0.076614454
09:58:16:203;0.11492168;9.595961;-0.076614454
09:58:16:203;0.11492168;9.595961;-0.076614454
09:58:16:203;0.11492168;9.595961;-0.076614454
09:58:16:325;-0.095768064;10.189722;0.19153613
09:58:16:325;-0.095768064;10.189722;0.19153613
09:58:16:325;-0.095768064;10.189722;0.19153613
09:58:16:325;-0.095768064;10.189722;0.19153613
09:58:16:325;-0.095768064;10.189722;0.19153613
09:58:16:325;-0.095768064;10.189722;0.19153613
09:58:16:325;-0.095768064;10.189722;0.19153613
09:58:16:325;-0.095768064;10.189722;0.19153613
09:58:16:325;-0.095768064;10.189722;0.19153613
09:58:16:325;-0.095768064;10.189722;0.19153613
09:58:16:325;-0.095768064;10.189722;0.19153613
09:58:16:325;-0.095768064;10.189722;0.19153613
09:58:16:325;-0.095768064;10.189722;0.19153613
09:58:16:325;-0.095768064;10.189722;0.19153613
09:58:16:325;-0.095768064;10.189722;0.19153613
09:58:16:440;-0.076614454;10.170568;0.21068975
09:58:16:440;-0.076614454;10.170568;0.21068975
09:58:16:440;-0.076614454;10.170568;0.21068975
09:58:16:440;-0.076614454;10.170568;0.21068975
09:58:16:440;-0.076614454;10.170568;0.21068975
09:58:16:440;-0.076614454;10.170568;0.21068975
09:58:16:440;-0.076614454;10.170568;0.21068975
09:58:16:440;-0.076614454;10.170568;0.21068975
09:58:16:440;-0.076614454;10.170568;0.21068975
09:58:16:440;-0.076614454;10.170568;0.21068975
09:58:16:440;-0.076614454;10.170568;0.21068975
09:58:16:440;-0.076614454;10.170568;0.21068975
09:58:16:440;-0.076614454;10.170568;0.21068975
09:58:16:440;-0.076614454;10.170568;0.21068975
09:58:16:440;-0.076614454;10.170568;0.21068975
09:58:16:440;-0.076614454;10.170568;0.21068975
09:58:16:564;0.05746084;9.940725;-0.15322891
09:58:16:564;0.05746084;9.940725;-0.15322891
09:58:16:564;0.05746084;9.940725;-0.15322891
09:58:16:564;0.05746084;9.940725;-0.15322891
09:58:16:564;0.05746084;9.940725;-0.15322891
09:58:16:564;0.05746084;9.940725;-0.15322891
09:58:16:564;0.05746084;9.940725;-0.15322891
09:58:16:564;0.05746084;9.940725;-0.15322891
09:58:16:564;0.05746084;9.940725;-0.15322891
09:58:16:564;0.05746084;9.940725;-0.15322891
09:58:16:564;0.05746084;9.940725;-0.15322891
09:58:16:564;0.05746084;9.940725;-0.15322891
09:58:16:564;0.05746084;9.940725;-0.15322891
09:58:16:564;0.05746084;9.940725;-0.15322891
09:58:16:564;0.05746084;9.940725;-0.15322891
09:58:16:680;0.11492168;9.9790325;-0.11492168
09:58:16:680;0.11492168;9.9790325;-0.11492168
09:58:16:680;0.11492168;9.9790325;-0.11492168
09:58:16:680;0.11492168;9.9790325;-0.11492168
09:58:16:680;0.11492168;9.9790325;-0.11492168
09:58:16:680;0.11492168;9.9790325;-0.11492168
09:58:16:680;0.11492168;9.9790325;-0.11492168
09:58:16:680;0.11492168;9.9790325;-0.11492168
09:58:16:680;0.11492168;9.9790325;-0.11492168
09:58:16:680;0.11492168;9.9790325;-0.11492168
09:58:16:680;0.11492168;9.9790325;-0.11492168
09:58:16:680;0.11492168;9.9790325;-0.11492168
09:58:16:680;0.11492168;9.9790325;-0.11492168
09:58:16:787;0.30645782;10.266336;-0.2873042
09:58:16:787;0.30645782;10.266336;-0.2873042
09:58:16:787;0.30645782;10.266336;-0.2873042
09:58:16:787;0.30645782;10.266336;-0.2873042
09:58:16:787;0.30645782;10.266336;-0.2873042
09:58:16:787;0.30645782;10.266336;-0.2873042
09:58:16:787;0.30645782;10.266336;-0.2873042
09:58:16:787;0.30645782;10.266336;-0.2873042
09:58:16:787;0.30645782;10.266336;-0.2873042
09:58:16:787;0.30645782;10.266336;-0.2873042
09:58:16:787;0.30645782;10.266336;-0.2873042
09:58:16:787;0.30645782;10.266336;-0.2873042
09:58:16:787;0.30645782;10.266336;-0.2873042
09:58:16:787;0.30645782;10.266336;-0.2873042
09:58:16:898;0.17238252;9.825804;-0.05746084
09:58:16:898;0.17238252;9.825804;-0.05746084
09:58:16:898;0.17238252;9.825804;-0.05746084
09:58:16:898;0.17238252;9.825804;-0.05746084
09:58:16:898;0.17238252;9.825804;-0.05746084
09:58:16:898;0.17238252;9.825804;-0.05746084
09:58:16:898;0.17238252;9.825804;-0.05746084
09:58:16:898;0.17238252;9.825804;-0.05746084
09:58:16:898;0.17238252;9.825804;-0.05746084
09:58:16:898;0.17238252;9.825804;-0.05746084
09:58:16:898;0.17238252;9.825804;-0.05746084
09:58:16:898;0.17238252;9.825804;-0.05746084
09:58:16:898;0.17238252;9.825804;-0.05746084
09:58:16:898;0.17238252;9.825804;-0.05746084
09:58:17:004;0.15322891;10.01734;0.019153614
09:58:17:004;0.15322891;10.01734;0.019153614
09:58:17:004;0.15322891;10.01734;0.019153614
09:58:17:004;0.15322891;10.01734;0.019153614
09:58:17:004;0.15322891;10.01734;0.019153614
09:58:17:004;0.15322891;10.01734;0.019153614
09:58:17:004;0.15322891;10.01734;0.019153614
09:58:17:004;0.15322891;10.01734;0.019153614
09:58:17:004;0.15322891;10.01734;0.019153614
09:58:17:004;0.15322891;10.01734;0.019153614
09:58:17:004;0.15322891;10.01734;0.019153614
09:58:17:004;0.15322891;10.01734;0.019153614
09:58:17:004;0.15322891;10.01734;0.019153614
09:58:17:004;0.15322891;10.01734;0.019153614
09:58:17:004;0.15322891;10.01734;0.019153614
09:58:17:004;0.15322891;10.01734;0.019153614
09:58:17:130;0.1340753;10.093954;-0.24899697
09:58:17:130;0.1340753;10.093954;-0.24899697
09:58:17:130;0.1340753;10.093954;-0.24899697
09:58:17:130;0.1340753;10.093954;-0.24899697
09:58:17:130;0.1340753;10.093954;-0.24899697
09:58:17:130;0.1340753;10.093954;-0.24899697
09:58:17:130;0.1340753;10.093954;-0.24899697
09:58:17:130;0.1340753;10.093954;-0.24899697
09:58:17:130;0.1340753;10.093954;-0.24899697
09:58:17:130;0.1340753;10.093954;-0.24899697
09:58:17:130;0.1340753;10.093954;-0.24899697
09:58:17:130;0.1340753;10.093954;-0.24899697
09:58:17:130;0.1340753;10.093954;-0.24899697
09:58:17:130;0.1340753;10.093954;-0.24899697
09:58:17:130;0.1340753;10.093954;-0.24899697
09:58:17:243;-0.1340753;10.055647;0.2873042
09:58:17:243;-0.1340753;10.055647;0.2873042
09:58:17:243;-0.1340753;10.055647;0.2873042
09:58:17:243;-0.1340753;10.055647;0.2873042
09:58:17:243;-0.1340753;10.055647;0.2873042
09:58:17:243;-0.1340753;10.055647;0.2873042
09:58:17:243;-0.1340753;10.055647;0.2873042
09:58:17:243;-0.1340753;10.055647;0.2873042
09:58:17:243;-0.1340753;10.055647;0.2873042
09:58:17:243;-0.1340753;10.055647;0.2873042
09:58:17:243;-0.1340753;10.055647;0.2873042
09:58:17:243;-0.1340753;10.055647;0.2873042
09:58:17:243;-0.1340753;10.055647;0.2873042
09:58:17:243;-0.1340753;10.055647;0.2873042
09:58:17:243;-0.1340753;10.055647;0.2873042
09:58:17:364;0.095768064;9.844957;0.49799395
09:58:17:364;0.095768064;9.844957;0.49799395
09:58:17:364;0.095768064;9.844957;0.49799395
09:58:17:364;0.095768064;9.844957;0.49799395
09:58:17:364;0.095768064;9.844957;0.49799395
09:58:17:364;0.095768064;9.844957;0.49799395
09:58:17:364;0.095768064;9.844957;0.49799395
09:58:17:364;0.095768064;9.844957;0.49799395
09:58:17:364;0.095768064;9.844957;0.49799395
09:58:17:364;0.095768064;9.844957;0.49799395
09:58:17:364;0.095768064;9.844957;0.49799395
09:58:17:364;0.095768064;9.844957;0.49799395
09:58:17:364;0.095768064;9.844957;0.49799395
09:58:17:364;0.095768064;9.844957;0.49799395
09:58:17:364;0.095768064;9.844957;0.49799395
09:58:17:481;0.2681506;10.113108;0.40222588
09:58:17:481;0.2681506;10.113108;0.40222588
09:58:17:481;0.2681506;10.113108;0.40222588
09:58:17:481;0.2681506;10.113108;0.40222588
09:58:17:481;0.2681506;10.113108;0.40222588
09:58:17:481;0.2681506;10.113108;0.40222588
09:58:17:481;0.2681506;10.113108;0.40222588
09:58:17:481;0.2681506;10.113108;0.40222588
09:58:17:481;0.2681506;10.113108;0.40222588
09:58:17:481;0.2681506;10.113108;0.40222588
09:58:17:481;0.2681506;10.113108;0.40222588
09:58:17:481;0.2681506;10.113108;0.40222588
09:58:17:481;0.2681506;10.113108;0.40222588
09:58:17:481;0.2681506;10.113108;0.40222588
09:58:17:481;0.2681506;10.113108;0.40222588
09:58:17:600;-0.038307227;9.940725;0.36391866
09:58:17:600;-0.038307227;9.940725;0.36391866
09:58:17:600;-0.038307227;9.940725;0.36391866
09:58:17:600;-0.038307227;9.940725;0.36391866
09:58:17:600;-0.038307227;9.940725;0.36391866
09:58:17:600;-0.038307227;9.940725;0.36391866
09:58:17:600;-0.038307227;9.940725;0.36391866
09:58:17:600;-0.038307227;9.940725;0.36391866
09:58:17:600;-0.038307227;9.940725;0.36391866
09:58:17:600;-0.038307227;9.940725;0.36391866
09:58:17:600;-0.038307227;9.940725;0.36391866
09:58:17:600;-0.038307227;9.940725;0.36391866
09:58:17:600;-0.038307227;9.940725;0.36391866
09:58:17:600;-0.038307227;9.940725;0.36391866
09:58:17:600;-0.038307227;9.940725;0.36391866
09:58:17:600;-0.038307227;9.940725;0.36391866
09:58:17:600;-0.038307227;9.940725;0.36391866
09:58:17:733;-0.1340753;10.01734;0.34476504
09:58:17:733;-0.1340753;10.01734;0.34476504
09:58:17:733;-0.1340753;10.01734;0.34476504
09:58:17:733;-0.1340753;10.01734;0.34476504
09:58:17:733;-0.1340753;10.01734;0.34476504
09:58:17:733;-0.1340753;10.01734;0.34476504
09:58:17:733;-0.1340753;10.01734;0.34476504
