Time_Accel;AccelX;AccelY;AccelZ
11:54:03:294;-0.32561144;11.18571;0.49799395
11:54:03:294;-0.32561144;11.18571;0.49799395
11:54:03:294;-0.32561144;11.18571;0.49799395
11:54:03:294;-0.32561144;11.18571;0.49799395
11:54:03:294;-0.32561144;11.18571;0.49799395
11:54:03:294;-0.32561144;11.18571;0.49799395
11:54:03:294;-0.32561144;11.18571;0.49799395
11:54:03:294;-0.32561144;11.18571;0.49799395
11:54:03:294;-0.32561144;11.18571;0.49799395
11:54:03:294;-0.32561144;11.18571;0.49799395
11:54:03:412;0.05746084;9.232041;0.59376204
11:54:03:412;0.05746084;9.232041;0.59376204
11:54:03:412;0.05746084;9.232041;0.59376204
11:54:03:412;0.05746084;9.232041;0.59376204
11:54:03:412;0.05746084;9.232041;0.59376204
11:54:03:412;0.05746084;9.232041;0.59376204
11:54:03:412;0.05746084;9.232041;0.59376204
11:54:03:412;0.05746084;9.232041;0.59376204
11:54:03:412;0.05746084;9.232041;0.59376204
11:54:03:412;0.05746084;9.232041;0.59376204
11:54:03:412;0.05746084;9.232041;0.59376204
11:54:03:412;0.05746084;9.232041;0.59376204
11:54:03:412;0.05746084;9.232041;0.59376204
11:54:03:515;-0.32561144;9.825804;0.36391866
11:54:03:515;-0.32561144;9.825804;0.36391866
11:54:03:515;-0.32561144;9.825804;0.36391866
11:54:03:515;-0.32561144;9.825804;0.36391866
11:54:03:515;-0.32561144;9.825804;0.36391866
11:54:03:515;-0.32561144;9.825804;0.36391866
11:54:03:515;-0.32561144;9.825804;0.36391866
11:54:03:515;-0.32561144;9.825804;0.36391866
11:54:03:515;-0.32561144;9.825804;0.36391866
11:54:03:515;-0.32561144;9.825804;0.36391866
11:54:03:515;-0.32561144;9.825804;0.36391866
11:54:03:515;-0.32561144;9.825804;0.36391866
11:54:03:515;-0.32561144;9.825804;0.36391866
11:54:03:515;-0.32561144;9.825804;0.36391866
11:54:03:515;-0.32561144;9.825804;0.36391866
11:54:03:632;0.038307227;8.963891;1.5705963
11:54:03:632;0.038307227;8.963891;1.5705963
11:54:03:632;0.038307227;8.963891;1.5705963
11:54:03:632;0.038307227;8.963891;1.5705963
11:54:03:632;0.038307227;8.963891;1.5705963
11:54:03:632;0.038307227;8.963891;1.5705963
11:54:03:632;0.038307227;8.963891;1.5705963
11:54:03:632;0.038307227;8.963891;1.5705963
11:54:03:632;0.038307227;8.963891;1.5705963
11:54:03:632;0.038307227;8.963891;1.5705963
11:54:03:632;0.038307227;8.963891;1.5705963
11:54:03:632;0.038307227;8.963891;1.5705963
11:54:03:632;0.038307227;8.963891;1.5705963
11:54:03:733;-0.8619126;9.308656;1.3024458
11:54:03:733;-0.8619126;9.308656;1.3024458
11:54:03:733;-0.8619126;9.308656;1.3024458
11:54:03:733;-0.8619126;9.308656;1.3024458
11:54:03:733;-0.8619126;9.308656;1.3024458
11:54:03:733;-0.8619126;9.308656;1.3024458
11:54:03:733;-0.8619126;9.308656;1.3024458
11:54:03:733;-0.8619126;9.308656;1.3024458
11:54:03:733;-0.8619126;9.308656;1.3024458
11:54:03:733;-0.8619126;9.308656;1.3024458
11:54:03:733;-0.8619126;9.308656;1.3024458
11:54:03:733;-0.8619126;9.308656;1.3024458
11:54:03:733;-0.8619126;9.308656;1.3024458
11:54:03:733;-0.8619126;9.308656;1.3024458
11:54:03:733;-0.8619126;9.308656;1.3024458
11:54:03:733;-0.8619126;9.308656;1.3024458
11:54:03:857;-0.21068975;10.879252;1.091756
11:54:03:857;-0.21068975;10.879252;1.091756
11:54:03:857;-0.21068975;10.879252;1.091756
11:54:03:857;-0.21068975;10.879252;1.091756
11:54:03:857;-0.21068975;10.879252;1.091756
11:54:03:857;-0.21068975;10.879252;1.091756
11:54:03:857;-0.21068975;10.879252;1.091756
11:54:03:857;-0.21068975;10.879252;1.091756
11:54:03:857;-0.21068975;10.879252;1.091756
11:54:03:857;-0.21068975;10.879252;1.091756
11:54:03:857;-0.21068975;10.879252;1.091756
11:54:03:857;-0.21068975;10.879252;1.091756
11:54:03:857;-0.21068975;10.879252;1.091756
11:54:03:857;-0.21068975;10.879252;1.091756
11:54:03:857;-0.21068975;10.879252;1.091756
11:54:03:975;-0.47884035;9.251195;0.47884035
11:54:03:975;-0.47884035;9.251195;0.47884035
11:54:03:975;-0.47884035;9.251195;0.47884035
11:54:03:975;-0.47884035;9.251195;0.47884035
11:54:03:975;-0.47884035;9.251195;0.47884035
11:54:03:975;-0.47884035;9.251195;0.47884035
11:54:03:975;-0.47884035;9.251195;0.47884035
11:54:03:975;-0.47884035;9.251195;0.47884035
11:54:03:975;-0.47884035;9.251195;0.47884035
11:54:03:975;-0.47884035;9.251195;0.47884035
11:54:03:975;-0.47884035;9.251195;0.47884035
11:54:03:975;-0.47884035;9.251195;0.47884035
11:54:03:975;-0.47884035;9.251195;0.47884035
11:54:03:975;-0.47884035;9.251195;0.47884035
11:54:03:975;-0.47884035;9.251195;0.47884035
11:54:03:975;-0.47884035;9.251195;0.47884035
11:54:04:095;-1.2066777;10.457873;0.2873042
11:54:04:095;-1.2066777;10.457873;0.2873042
11:54:04:095;-1.2066777;10.457873;0.2873042
11:54:04:095;-1.2066777;10.457873;0.2873042
11:54:04:095;-1.2066777;10.457873;0.2873042
11:54:04:095;-1.2066777;10.457873;0.2873042
11:54:04:095;-1.2066777;10.457873;0.2873042
11:54:04:095;-1.2066777;10.457873;0.2873042
11:54:04:095;-1.2066777;10.457873;0.2873042
11:54:04:095;-1.2066777;10.457873;0.2873042
11:54:04:095;-1.2066777;10.457873;0.2873042
11:54:04:095;-1.2066777;10.457873;0.2873042
11:54:04:095;-1.2066777;10.457873;0.2873042
11:54:04:198;0.1340753;11.377247;-1.1683705
11:54:04:198;0.1340753;11.377247;-1.1683705
11:54:04:198;0.1340753;11.377247;-1.1683705
11:54:04:198;0.1340753;11.377247;-1.1683705
11:54:04:198;0.1340753;11.377247;-1.1683705
11:54:04:198;0.1340753;11.377247;-1.1683705
11:54:04:198;0.1340753;11.377247;-1.1683705
11:54:04:198;0.1340753;11.377247;-1.1683705
11:54:04:198;0.1340753;11.377247;-1.1683705
11:54:04:198;0.1340753;11.377247;-1.1683705
11:54:04:198;0.1340753;11.377247;-1.1683705
11:54:04:198;0.1340753;11.377247;-1.1683705
11:54:04:198;0.1340753;11.377247;-1.1683705
11:54:04:299;-0.49799395;11.511322;0.5363012
11:54:04:299;-0.49799395;11.511322;0.5363012
11:54:04:299;-0.49799395;11.511322;0.5363012
11:54:04:299;-0.49799395;11.511322;0.5363012
11:54:04:299;-0.49799395;11.511322;0.5363012
11:54:04:299;-0.49799395;11.511322;0.5363012
11:54:04:299;-0.49799395;11.511322;0.5363012
11:54:04:299;-0.49799395;11.511322;0.5363012
11:54:04:299;-0.49799395;11.511322;0.5363012
11:54:04:299;-0.49799395;11.511322;0.5363012
11:54:04:299;-0.49799395;11.511322;0.5363012
11:54:04:299;-0.49799395;11.511322;0.5363012
11:54:04:299;-0.49799395;11.511322;0.5363012
11:54:04:299;-0.49799395;11.511322;0.5363012
11:54:04:299;-0.49799395;11.511322;0.5363012
11:54:04:416;-0.2873042;10.898406;0.6895301
11:54:04:416;-0.2873042;10.898406;0.6895301
11:54:04:416;-0.2873042;10.898406;0.6895301
11:54:04:416;-0.2873042;10.898406;0.6895301
11:54:04:416;-0.2873042;10.898406;0.6895301
11:54:04:416;-0.2873042;10.898406;0.6895301
11:54:04:416;-0.2873042;10.898406;0.6895301
11:54:04:416;-0.2873042;10.898406;0.6895301
11:54:04:416;-0.2873042;10.898406;0.6895301
11:54:04:416;-0.2873042;10.898406;0.6895301
11:54:04:416;-0.2873042;10.898406;0.6895301
11:54:04:416;-0.2873042;10.898406;0.6895301
11:54:04:416;-0.2873042;10.898406;0.6895301
11:54:04:521;0.47884035;9.710882;0.8619126
11:54:04:521;0.47884035;9.710882;0.8619126
11:54:04:521;0.47884035;9.710882;0.8619126
11:54:04:521;0.47884035;9.710882;0.8619126
11:54:04:521;0.47884035;9.710882;0.8619126
11:54:04:521;0.47884035;9.710882;0.8619126
11:54:04:521;0.47884035;9.710882;0.8619126
11:54:04:521;0.47884035;9.710882;0.8619126
11:54:04:521;0.47884035;9.710882;0.8619126
11:54:04:521;0.47884035;9.710882;0.8619126
11:54:04:521;0.47884035;9.710882;0.8619126
11:54:04:521;0.47884035;9.710882;0.8619126
11:54:04:521;0.47884035;9.710882;0.8619126
11:54:04:521;0.47884035;9.710882;0.8619126
11:54:04:521;0.47884035;9.710882;0.8619126
11:54:04:639;-1.2449849;8.561666;1.7238252
11:54:04:639;-1.2449849;8.561666;1.7238252
11:54:04:639;-1.2449849;8.561666;1.7238252
11:54:04:639;-1.2449849;8.561666;1.7238252
11:54:04:639;-1.2449849;8.561666;1.7238252
11:54:04:639;-1.2449849;8.561666;1.7238252
11:54:04:639;-1.2449849;8.561666;1.7238252
11:54:04:639;-1.2449849;8.561666;1.7238252
11:54:04:639;-1.2449849;8.561666;1.7238252
11:54:04:639;-1.2449849;8.561666;1.7238252
11:54:04:639;-1.2449849;8.561666;1.7238252
11:54:04:639;-1.2449849;8.561666;1.7238252
11:54:04:639;-1.2449849;8.561666;1.7238252
11:54:04:639;-1.2449849;8.561666;1.7238252
11:54:04:746;-0.93852705;10.381259;0.61291564
11:54:04:746;-0.93852705;10.381259;0.61291564
11:54:04:746;-0.93852705;10.381259;0.61291564
11:54:04:746;-0.93852705;10.381259;0.61291564
11:54:04:746;-0.93852705;10.381259;0.61291564
11:54:04:746;-0.93852705;10.381259;0.61291564
11:54:04:746;-0.93852705;10.381259;0.61291564
11:54:04:746;-0.93852705;10.381259;0.61291564
11:54:04:746;-0.93852705;10.381259;0.61291564
11:54:04:746;-0.93852705;10.381259;0.61291564
11:54:04:746;-0.93852705;10.381259;0.61291564
11:54:04:746;-0.93852705;10.381259;0.61291564
11:54:04:746;-0.93852705;10.381259;0.61291564
11:54:04:746;-0.93852705;10.381259;0.61291564
11:54:04:746;-0.93852705;10.381259;0.61291564
11:54:04:862;0.36391866;10.132261;1.1109096
11:54:04:862;0.36391866;10.132261;1.1109096
11:54:04:862;0.36391866;10.132261;1.1109096
11:54:04:862;0.36391866;10.132261;1.1109096
11:54:04:862;0.36391866;10.132261;1.1109096
11:54:04:862;0.36391866;10.132261;1.1109096
11:54:04:862;0.36391866;10.132261;1.1109096
11:54:04:862;0.36391866;10.132261;1.1109096
11:54:04:862;0.36391866;10.132261;1.1109096
11:54:04:862;0.36391866;10.132261;1.1109096
11:54:04:862;0.36391866;10.132261;1.1109096
11:54:04:862;0.36391866;10.132261;1.1109096
11:54:04:862;0.36391866;10.132261;1.1109096
11:54:04:862;0.36391866;10.132261;1.1109096
11:54:04:862;0.36391866;10.132261;1.1109096
11:54:04:862;0.36391866;10.132261;1.1109096
11:54:04:862;0.36391866;10.132261;1.1109096
11:54:04:993;-0.5746084;10.70687;0.5746084
11:54:04:993;-0.5746084;10.70687;0.5746084
11:54:04:993;-0.5746084;10.70687;0.5746084
11:54:04:993;-0.5746084;10.70687;0.5746084
11:54:04:993;-0.5746084;10.70687;0.5746084
11:54:04:993;-0.5746084;10.70687;0.5746084
11:54:04:993;-0.5746084;10.70687;0.5746084
11:54:04:993;-0.5746084;10.70687;0.5746084
11:54:04:993;-0.5746084;10.70687;0.5746084
11:54:04:993;-0.5746084;10.70687;0.5746084
11:54:04:993;-0.5746084;10.70687;0.5746084
11:54:04:993;-0.5746084;10.70687;0.5746084
11:54:04:993;-0.5746084;10.70687;0.5746084
11:54:04:993;-0.5746084;10.70687;0.5746084
11:54:05:105;-0.47884035;9.634268;0.4213795
11:54:05:105;-0.47884035;9.634268;0.4213795
11:54:05:105;-0.47884035;9.634268;0.4213795
11:54:05:105;-0.47884035;9.634268;0.4213795
11:54:05:105;-0.47884035;9.634268;0.4213795
11:54:05:105;-0.47884035;9.634268;0.4213795
11:54:05:105;-0.47884035;9.634268;0.4213795
11:54:05:105;-0.47884035;9.634268;0.4213795
11:54:05:105;-0.47884035;9.634268;0.4213795
11:54:05:105;-0.47884035;9.634268;0.4213795
11:54:05:105;-0.47884035;9.634268;0.4213795
11:54:05:105;-0.47884035;9.634268;0.4213795
11:54:05:105;-0.47884035;9.634268;0.4213795
11:54:05:210;-0.45968673;9.002198;0.30645782
11:54:05:210;-0.45968673;9.002198;0.30645782
11:54:05:210;-0.45968673;9.002198;0.30645782
11:54:05:210;-0.45968673;9.002198;0.30645782
11:54:05:210;-0.45968673;9.002198;0.30645782
11:54:05:210;-0.45968673;9.002198;0.30645782
11:54:05:210;-0.45968673;9.002198;0.30645782
11:54:05:210;-0.45968673;9.002198;0.30645782
11:54:05:210;-0.45968673;9.002198;0.30645782
11:54:05:210;-0.45968673;9.002198;0.30645782
11:54:05:210;-0.45968673;9.002198;0.30645782
11:54:05:210;-0.45968673;9.002198;0.30645782
11:54:05:210;-0.45968673;9.002198;0.30645782
11:54:05:210;-0.45968673;9.002198;0.30645782
11:54:05:210;-0.45968673;9.002198;0.30645782
11:54:05:323;0.11492168;9.80665;0.019153614
11:54:05:323;0.11492168;9.80665;0.019153614
11:54:05:323;0.11492168;9.80665;0.019153614
11:54:05:323;0.11492168;9.80665;0.019153614
11:54:05:323;0.11492168;9.80665;0.019153614
11:54:05:323;0.11492168;9.80665;0.019153614
11:54:05:323;0.11492168;9.80665;0.019153614
11:54:05:323;0.11492168;9.80665;0.019153614
11:54:05:323;0.11492168;9.80665;0.019153614
11:54:05:323;0.11492168;9.80665;0.019153614
11:54:05:323;0.11492168;9.80665;0.019153614
11:54:05:323;0.11492168;9.80665;0.019153614
11:54:05:323;0.11492168;9.80665;0.019153614
11:54:05:323;0.11492168;9.80665;0.019153614
11:54:05:323;0.11492168;9.80665;0.019153614
11:54:05:441;-0.15322891;10.534488;-0.21068975
11:54:05:441;-0.15322891;10.534488;-0.21068975
11:54:05:441;-0.15322891;10.534488;-0.21068975
11:54:05:441;-0.15322891;10.534488;-0.21068975
11:54:05:441;-0.15322891;10.534488;-0.21068975
11:54:05:441;-0.15322891;10.534488;-0.21068975
11:54:05:441;-0.15322891;10.534488;-0.21068975
11:54:05:441;-0.15322891;10.534488;-0.21068975
11:54:05:441;-0.15322891;10.534488;-0.21068975
11:54:05:441;-0.15322891;10.534488;-0.21068975
11:54:05:441;-0.15322891;10.534488;-0.21068975
11:54:05:441;-0.15322891;10.534488;-0.21068975
11:54:05:441;-0.15322891;10.534488;-0.21068975
11:54:05:441;-0.15322891;10.534488;-0.21068975
11:54:05:441;-0.15322891;10.534488;-0.21068975
11:54:05:559;-0.1340753;9.002198;1.0342951
11:54:05:559;-0.1340753;9.002198;1.0342951
11:54:05:559;-0.1340753;9.002198;1.0342951
11:54:05:559;-0.1340753;9.002198;1.0342951
11:54:05:559;-0.1340753;9.002198;1.0342951
11:54:05:559;-0.1340753;9.002198;1.0342951
11:54:05:559;-0.1340753;9.002198;1.0342951
11:54:05:559;-0.1340753;9.002198;1.0342951
11:54:05:559;-0.1340753;9.002198;1.0342951
11:54:05:559;-0.1340753;9.002198;1.0342951
11:54:05:559;-0.1340753;9.002198;1.0342951
11:54:05:559;-0.1340753;9.002198;1.0342951
11:54:05:559;-0.1340753;9.002198;1.0342951
11:54:05:559;-0.1340753;9.002198;1.0342951
11:54:05:669;-0.5554548;10.28549;0.05746084
11:54:05:669;-0.5554548;10.28549;0.05746084
11:54:05:669;-0.5554548;10.28549;0.05746084
11:54:05:669;-0.5554548;10.28549;0.05746084
11:54:05:669;-0.5554548;10.28549;0.05746084
11:54:05:669;-0.5554548;10.28549;0.05746084
11:54:05:669;-0.5554548;10.28549;0.05746084
11:54:05:669;-0.5554548;10.28549;0.05746084
11:54:05:669;-0.5554548;10.28549;0.05746084
11:54:05:669;-0.5554548;10.28549;0.05746084
11:54:05:669;-0.5554548;10.28549;0.05746084
11:54:05:669;-0.5554548;10.28549;0.05746084
11:54:05:669;-0.5554548;10.28549;0.05746084
11:54:05:669;-0.5554548;10.28549;0.05746084
11:54:05:669;-0.5554548;10.28549;0.05746084
11:54:05:669;-0.5554548;10.28549;0.05746084
11:54:05:669;-0.5554548;10.28549;0.05746084
11:54:05:669;-0.5554548;10.28549;0.05746084
11:54:05:808;-1.4939818;10.0748005;1.4556746
11:54:05:808;-1.4939818;10.0748005;1.4556746
11:54:05:808;-1.4939818;10.0748005;1.4556746
11:54:05:808;-1.4939818;10.0748005;1.4556746
11:54:05:808;-1.4939818;10.0748005;1.4556746
11:54:05:808;-1.4939818;10.0748005;1.4556746
11:54:05:808;-1.4939818;10.0748005;1.4556746
11:54:05:808;-1.4939818;10.0748005;1.4556746
11:54:05:808;-1.4939818;10.0748005;1.4556746
11:54:05:808;-1.4939818;10.0748005;1.4556746
11:54:05:808;-1.4939818;10.0748005;1.4556746
11:54:05:808;-1.4939818;10.0748005;1.4556746
11:54:05:808;-1.4939818;10.0748005;1.4556746
11:54:05:808;-1.4939818;10.0748005;1.4556746
11:54:05:921;-0.5746084;9.940725;1.4173675
11:54:05:921;-0.5746084;9.940725;1.4173675
11:54:05:921;-0.5746084;9.940725;1.4173675
11:54:05:921;-0.5746084;9.940725;1.4173675
11:54:05:921;-0.5746084;9.940725;1.4173675
11:54:05:921;-0.5746084;9.940725;1.4173675
11:54:05:921;-0.5746084;9.940725;1.4173675
11:54:05:921;-0.5746084;9.940725;1.4173675
11:54:05:921;-0.5746084;9.940725;1.4173675
11:54:05:921;-0.5746084;9.940725;1.4173675
11:54:05:921;-0.5746084;9.940725;1.4173675
11:54:05:921;-0.5746084;9.940725;1.4173675
11:54:05:921;-0.5746084;9.940725;1.4173675
11:54:05:921;-0.5746084;9.940725;1.4173675
11:54:05:921;-0.5746084;9.940725;1.4173675
11:54:06:039;-0.19153613;10.553641;0.32561144
11:54:06:039;-0.19153613;10.553641;0.32561144
11:54:06:039;-0.19153613;10.553641;0.32561144
11:54:06:039;-0.19153613;10.553641;0.32561144
11:54:06:039;-0.19153613;10.553641;0.32561144
11:54:06:039;-0.19153613;10.553641;0.32561144
11:54:06:039;-0.19153613;10.553641;0.32561144
11:54:06:039;-0.19153613;10.553641;0.32561144
11:54:06:039;-0.19153613;10.553641;0.32561144
11:54:06:039;-0.19153613;10.553641;0.32561144
11:54:06:039;-0.19153613;10.553641;0.32561144
11:54:06:039;-0.19153613;10.553641;0.32561144
11:54:06:039;-0.19153613;10.553641;0.32561144
11:54:06:039;-0.19153613;10.553641;0.32561144
11:54:06:039;-0.19153613;10.553641;0.32561144
11:54:06:039;-0.19153613;10.553641;0.32561144
11:54:06:039;-0.19153613;10.553641;0.32561144
11:54:06:039;-0.19153613;10.553641;0.32561144
11:54:06:039;-0.19153613;10.553641;0.32561144
11:54:06:039;-0.19153613;10.553641;0.32561144
11:54:06:039;-0.19153613;10.553641;0.32561144
11:54:06:039;-0.19153613;10.553641;0.32561144
11:54:06:209;-0.6703765;9.730036;1.3215994
11:54:06:209;-0.6703765;9.730036;1.3215994
11:54:06:209;-0.6703765;9.730036;1.3215994
11:54:06:209;-0.6703765;9.730036;1.3215994
11:54:06:209;-0.6703765;9.730036;1.3215994
11:54:06:209;-0.6703765;9.730036;1.3215994
11:54:06:209;-0.6703765;9.730036;1.3215994
11:54:06:209;-0.6703765;9.730036;1.3215994
11:54:06:209;-0.6703765;9.730036;1.3215994
11:54:06:209;-0.6703765;9.730036;1.3215994
11:54:06:209;-0.6703765;9.730036;1.3215994
11:54:06:209;-0.6703765;9.730036;1.3215994
11:54:06:209;-0.6703765;9.730036;1.3215994
11:54:06:310;-1.7429788;10.28549;1.8770541
11:54:06:310;-1.7429788;10.28549;1.8770541
11:54:06:310;-1.7429788;10.28549;1.8770541
11:54:06:310;-1.7429788;10.28549;1.8770541
11:54:06:310;-1.7429788;10.28549;1.8770541
11:54:06:310;-1.7429788;10.28549;1.8770541
11:54:06:310;-1.7429788;10.28549;1.8770541
11:54:06:310;-1.7429788;10.28549;1.8770541
11:54:06:310;-1.7429788;10.28549;1.8770541
11:54:06:310;-1.7429788;10.28549;1.8770541
11:54:06:310;-1.7429788;10.28549;1.8770541
11:54:06:310;-1.7429788;10.28549;1.8770541
11:54:06:310;-1.7429788;10.28549;1.8770541
11:54:06:411;-0.7278373;10.323798;1.283292
11:54:06:411;-0.7278373;10.323798;1.283292
11:54:06:411;-0.7278373;10.323798;1.283292
11:54:06:411;-0.7278373;10.323798;1.283292
11:54:06:411;-0.7278373;10.323798;1.283292
11:54:06:411;-0.7278373;10.323798;1.283292
11:54:06:411;-0.7278373;10.323798;1.283292
11:54:06:411;-0.7278373;10.323798;1.283292
11:54:06:411;-0.7278373;10.323798;1.283292
11:54:06:411;-0.7278373;10.323798;1.283292
11:54:06:411;-0.7278373;10.323798;1.283292
11:54:06:411;-0.7278373;10.323798;1.283292
11:54:06:411;-0.7278373;10.323798;1.283292
11:54:06:513;-0.90021986;10.802638;0.45968673
11:54:06:513;-0.90021986;10.802638;0.45968673
11:54:06:513;-0.90021986;10.802638;0.45968673
11:54:06:513;-0.90021986;10.802638;0.45968673
11:54:06:513;-0.90021986;10.802638;0.45968673
11:54:06:513;-0.90021986;10.802638;0.45968673
11:54:06:513;-0.90021986;10.802638;0.45968673
11:54:06:513;-0.90021986;10.802638;0.45968673
11:54:06:513;-0.90021986;10.802638;0.45968673
11:54:06:513;-0.90021986;10.802638;0.45968673
11:54:06:513;-0.90021986;10.802638;0.45968673
11:54:06:513;-0.90021986;10.802638;0.45968673
11:54:06:513;-0.90021986;10.802638;0.45968673
11:54:06:513;-0.90021986;10.802638;0.45968673
11:54:06:513;-0.90021986;10.802638;0.45968673
11:54:06:513;-0.90021986;10.802638;0.45968673
11:54:06:513;-0.90021986;10.802638;0.45968673
11:54:06:513;-0.90021986;10.802638;0.45968673
11:54:06:653;0.038307227;9.998186;0.9576807
11:54:06:653;0.038307227;9.998186;0.9576807
11:54:06:653;0.038307227;9.998186;0.9576807
11:54:06:653;0.038307227;9.998186;0.9576807
11:54:06:653;0.038307227;9.998186;0.9576807
11:54:06:653;0.038307227;9.998186;0.9576807
11:54:06:653;0.038307227;9.998186;0.9576807
11:54:06:653;0.038307227;9.998186;0.9576807
11:54:06:653;0.038307227;9.998186;0.9576807
11:54:06:653;0.038307227;9.998186;0.9576807
11:54:06:653;0.038307227;9.998186;0.9576807
11:54:06:653;0.038307227;9.998186;0.9576807
11:54:06:653;0.038307227;9.998186;0.9576807
11:54:06:653;0.038307227;9.998186;0.9576807
11:54:06:653;0.038307227;9.998186;0.9576807
11:54:06:770;-1.532289;10.515334;0.93852705
11:54:06:770;-1.532289;10.515334;0.93852705
11:54:06:770;-1.532289;10.515334;0.93852705
11:54:06:770;-1.532289;10.515334;0.93852705
11:54:06:770;-1.532289;10.515334;0.93852705
11:54:06:770;-1.532289;10.515334;0.93852705
11:54:06:770;-1.532289;10.515334;0.93852705
11:54:06:770;-1.532289;10.515334;0.93852705
11:54:06:770;-1.532289;10.515334;0.93852705
11:54:06:770;-1.532289;10.515334;0.93852705
11:54:06:770;-1.532289;10.515334;0.93852705
11:54:06:770;-1.532289;10.515334;0.93852705
11:54:06:770;-1.532289;10.515334;0.93852705
11:54:06:770;-1.532289;10.515334;0.93852705
11:54:06:770;-1.532289;10.515334;0.93852705
11:54:06:889;-0.1340753;9.691729;1.4939818
11:54:06:889;-0.1340753;9.691729;1.4939818
11:54:06:889;-0.1340753;9.691729;1.4939818
11:54:06:889;-0.1340753;9.691729;1.4939818
11:54:06:889;-0.1340753;9.691729;1.4939818
11:54:06:889;-0.1340753;9.691729;1.4939818
11:54:06:889;-0.1340753;9.691729;1.4939818
11:54:06:889;-0.1340753;9.691729;1.4939818
11:54:06:889;-0.1340753;9.691729;1.4939818
11:54:06:889;-0.1340753;9.691729;1.4939818
11:54:06:889;-0.1340753;9.691729;1.4939818
11:54:06:889;-0.1340753;9.691729;1.4939818
11:54:06:889;-0.1340753;9.691729;1.4939818
11:54:06:889;-0.1340753;9.691729;1.4939818
11:54:06:999;-0.6703765;9.136273;0.78529817
11:54:06:999;-0.6703765;9.136273;0.78529817
11:54:06:999;-0.6703765;9.136273;0.78529817
11:54:06:999;-0.6703765;9.136273;0.78529817
11:54:06:999;-0.6703765;9.136273;0.78529817
11:54:06:999;-0.6703765;9.136273;0.78529817
11:54:06:999;-0.6703765;9.136273;0.78529817
11:54:06:999;-0.6703765;9.136273;0.78529817
11:54:06:999;-0.6703765;9.136273;0.78529817
11:54:06:999;-0.6703765;9.136273;0.78529817
11:54:06:999;-0.6703765;9.136273;0.78529817
11:54:06:999;-0.6703765;9.136273;0.78529817
11:54:06:999;-0.6703765;9.136273;0.78529817
11:54:06:999;-0.6703765;9.136273;0.78529817
11:54:07:105;0.40222588;7.9870567;0.15322891
11:54:07:105;0.40222588;7.9870567;0.15322891
11:54:07:105;0.40222588;7.9870567;0.15322891
11:54:07:105;0.40222588;7.9870567;0.15322891
11:54:07:105;0.40222588;7.9870567;0.15322891
11:54:07:105;0.40222588;7.9870567;0.15322891
11:54:07:105;0.40222588;7.9870567;0.15322891
11:54:07:105;0.40222588;7.9870567;0.15322891
11:54:07:105;0.40222588;7.9870567;0.15322891
11:54:07:105;0.40222588;7.9870567;0.15322891
11:54:07:105;0.40222588;7.9870567;0.15322891
11:54:07:105;0.40222588;7.9870567;0.15322891
11:54:07:105;0.40222588;7.9870567;0.15322891
11:54:07:105;0.40222588;7.9870567;0.15322891
11:54:07:105;0.40222588;7.9870567;0.15322891
11:54:07:225;-0.076614454;9.5385;0.7469909
11:54:07:225;-0.076614454;9.5385;0.7469909
11:54:07:225;-0.076614454;9.5385;0.7469909
11:54:07:225;-0.076614454;9.5385;0.7469909
11:54:07:225;-0.076614454;9.5385;0.7469909
11:54:07:225;-0.076614454;9.5385;0.7469909
11:54:07:225;-0.076614454;9.5385;0.7469909
11:54:07:225;-0.076614454;9.5385;0.7469909
11:54:07:225;-0.076614454;9.5385;0.7469909
11:54:07:225;-0.076614454;9.5385;0.7469909
11:54:07:225;-0.076614454;9.5385;0.7469909
11:54:07:225;-0.076614454;9.5385;0.7469909
11:54:07:225;-0.076614454;9.5385;0.7469909
11:54:07:225;-0.076614454;9.5385;0.7469909
11:54:07:330;-0.1340753;11.281479;0.45968673
11:54:07:330;-0.1340753;11.281479;0.45968673
11:54:07:330;-0.1340753;11.281479;0.45968673
11:54:07:330;-0.1340753;11.281479;0.45968673
11:54:07:330;-0.1340753;11.281479;0.45968673
11:54:07:330;-0.1340753;11.281479;0.45968673
11:54:07:330;-0.1340753;11.281479;0.45968673
11:54:07:330;-0.1340753;11.281479;0.45968673
11:54:07:330;-0.1340753;11.281479;0.45968673
11:54:07:330;-0.1340753;11.281479;0.45968673
11:54:07:330;-0.1340753;11.281479;0.45968673
11:54:07:330;-0.1340753;11.281479;0.45968673
11:54:07:330;-0.1340753;11.281479;0.45968673
11:54:07:330;-0.1340753;11.281479;0.45968673
11:54:07:330;-0.1340753;11.281479;0.45968673
11:54:07:448;-0.45968673;10.323798;-0.1340753
11:54:07:448;-0.45968673;10.323798;-0.1340753
11:54:07:448;-0.45968673;10.323798;-0.1340753
11:54:07:448;-0.45968673;10.323798;-0.1340753
11:54:07:448;-0.45968673;10.323798;-0.1340753
11:54:07:448;-0.45968673;10.323798;-0.1340753
11:54:07:448;-0.45968673;10.323798;-0.1340753
11:54:07:448;-0.45968673;10.323798;-0.1340753
11:54:07:448;-0.45968673;10.323798;-0.1340753
11:54:07:448;-0.45968673;10.323798;-0.1340753
11:54:07:448;-0.45968673;10.323798;-0.1340753
11:54:07:448;-0.45968673;10.323798;-0.1340753
11:54:07:448;-0.45968673;10.323798;-0.1340753
11:54:07:448;-0.45968673;10.323798;-0.1340753
11:54:07:448;-0.45968673;10.323798;-0.1340753
11:54:07:566;-1.3790601;10.266336;1.5897499
11:54:07:566;-1.3790601;10.266336;1.5897499
11:54:07:566;-1.3790601;10.266336;1.5897499
11:54:07:566;-1.3790601;10.266336;1.5897499
11:54:07:566;-1.3790601;10.266336;1.5897499
11:54:07:566;-1.3790601;10.266336;1.5897499
11:54:07:566;-1.3790601;10.266336;1.5897499
11:54:07:566;-1.3790601;10.266336;1.5897499
11:54:07:566;-1.3790601;10.266336;1.5897499
11:54:07:566;-1.3790601;10.266336;1.5897499
11:54:07:566;-1.3790601;10.266336;1.5897499
11:54:07:566;-1.3790601;10.266336;1.5897499
11:54:07:566;-1.3790601;10.266336;1.5897499
11:54:07:566;-1.3790601;10.266336;1.5897499
11:54:07:566;-1.3790601;10.266336;1.5897499
11:54:07:685;-0.49799395;10.5919485;-0.038307227
11:54:07:685;-0.49799395;10.5919485;-0.038307227
11:54:07:685;-0.49799395;10.5919485;-0.038307227
11:54:07:685;-0.49799395;10.5919485;-0.038307227
11:54:07:685;-0.49799395;10.5919485;-0.038307227
11:54:07:685;-0.49799395;10.5919485;-0.038307227
11:54:07:685;-0.49799395;10.5919485;-0.038307227
11:54:07:685;-0.49799395;10.5919485;-0.038307227
11:54:07:685;-0.49799395;10.5919485;-0.038307227
11:54:07:685;-0.49799395;10.5919485;-0.038307227
11:54:07:685;-0.49799395;10.5919485;-0.038307227
11:54:07:685;-0.49799395;10.5919485;-0.038307227
11:54:07:685;-0.49799395;10.5919485;-0.038307227
11:54:07:685;-0.49799395;10.5919485;-0.038307227
11:54:07:685;-0.49799395;10.5919485;-0.038307227
11:54:07:685;-0.49799395;10.5919485;-0.038307227
11:54:07:685;-0.49799395;10.5919485;-0.038307227
11:54:07:685;-0.49799395;10.5919485;-0.038307227
11:54:07:685;-0.49799395;10.5919485;-0.038307227
11:54:07:835;-0.7661445;9.883265;-0.82360536
11:54:07:835;-0.7661445;9.883265;-0.82360536
11:54:07:835;-0.7661445;9.883265;-0.82360536
11:54:07:835;-0.7661445;9.883265;-0.82360536
11:54:07:835;-0.7661445;9.883265;-0.82360536
11:54:07:835;-0.7661445;9.883265;-0.82360536
11:54:07:835;-0.7661445;9.883265;-0.82360536
11:54:07:835;-0.7661445;9.883265;-0.82360536
11:54:07:835;-0.7661445;9.883265;-0.82360536
11:54:07:835;-0.7661445;9.883265;-0.82360536
11:54:07:835;-0.7661445;9.883265;-0.82360536
11:54:07:835;-0.7661445;9.883265;-0.82360536
11:54:07:835;-0.7661445;9.883265;-0.82360536
11:54:07:835;-0.7661445;9.883265;-0.82360536
11:54:07:945;-0.9576807;10.208876;0.17238252
11:54:07:945;-0.9576807;10.208876;0.17238252
11:54:07:945;-0.9576807;10.208876;0.17238252
11:54:07:945;-0.9576807;10.208876;0.17238252
11:54:07:945;-0.9576807;10.208876;0.17238252
11:54:07:945;-0.9576807;10.208876;0.17238252
11:54:07:945;-0.9576807;10.208876;0.17238252
11:54:07:945;-0.9576807;10.208876;0.17238252
11:54:07:945;-0.9576807;10.208876;0.17238252
11:54:07:945;-0.9576807;10.208876;0.17238252
11:54:07:945;-0.9576807;10.208876;0.17238252
11:54:07:945;-0.9576807;10.208876;0.17238252
11:54:07:945;-0.9576807;10.208876;0.17238252
11:54:07:945;-0.9576807;10.208876;0.17238252
11:54:07:945;-0.9576807;10.208876;0.17238252
11:54:07:945;-0.9576807;10.208876;0.17238252
11:54:08:065;-0.82360536;10.01734;0.6512229
11:54:08:065;-0.82360536;10.01734;0.6512229
11:54:08:065;-0.82360536;10.01734;0.6512229
11:54:08:065;-0.82360536;10.01734;0.6512229
11:54:08:065;-0.82360536;10.01734;0.6512229
11:54:08:065;-0.82360536;10.01734;0.6512229
11:54:08:065;-0.82360536;10.01734;0.6512229
11:54:08:065;-0.82360536;10.01734;0.6512229
11:54:08:065;-0.82360536;10.01734;0.6512229
11:54:08:065;-0.82360536;10.01734;0.6512229
11:54:08:065;-0.82360536;10.01734;0.6512229
11:54:08:065;-0.82360536;10.01734;0.6512229
11:54:08:065;-0.82360536;10.01734;0.6512229
11:54:08:165;-0.51714754;11.013328;0.32561144
11:54:08:165;-0.51714754;11.013328;0.32561144
11:54:08:165;-0.51714754;11.013328;0.32561144
11:54:08:165;-0.51714754;11.013328;0.32561144
11:54:08:165;-0.51714754;11.013328;0.32561144
11:54:08:165;-0.51714754;11.013328;0.32561144
11:54:08:165;-0.51714754;11.013328;0.32561144
11:54:08:165;-0.51714754;11.013328;0.32561144
11:54:08:165;-0.51714754;11.013328;0.32561144
11:54:08:165;-0.51714754;11.013328;0.32561144
11:54:08:165;-0.51714754;11.013328;0.32561144
11:54:08:165;-0.51714754;11.013328;0.32561144
11:54:08:165;-0.51714754;11.013328;0.32561144
11:54:08:266;-0.36391866;10.036493;-0.05746084
11:54:08:266;-0.36391866;10.036493;-0.05746084
11:54:08:266;-0.36391866;10.036493;-0.05746084
11:54:08:266;-0.36391866;10.036493;-0.05746084
11:54:08:266;-0.36391866;10.036493;-0.05746084
11:54:08:266;-0.36391866;10.036493;-0.05746084
11:54:08:266;-0.36391866;10.036493;-0.05746084
11:54:08:266;-0.36391866;10.036493;-0.05746084
11:54:08:266;-0.36391866;10.036493;-0.05746084
11:54:08:266;-0.36391866;10.036493;-0.05746084
11:54:08:266;-0.36391866;10.036493;-0.05746084
11:54:08:266;-0.36391866;10.036493;-0.05746084
11:54:08:266;-0.36391866;10.036493;-0.05746084
11:54:08:266;-0.36391866;10.036493;-0.05746084
11:54:08:266;-0.36391866;10.036493;-0.05746084
11:54:08:384;-0.59376204;10.113108;0.6895301
11:54:08:384;-0.59376204;10.113108;0.6895301
11:54:08:384;-0.59376204;10.113108;0.6895301
11:54:08:384;-0.59376204;10.113108;0.6895301
11:54:08:384;-0.59376204;10.113108;0.6895301
11:54:08:384;-0.59376204;10.113108;0.6895301
11:54:08:384;-0.59376204;10.113108;0.6895301
11:54:08:384;-0.59376204;10.113108;0.6895301
11:54:08:384;-0.59376204;10.113108;0.6895301
11:54:08:384;-0.59376204;10.113108;0.6895301
11:54:08:384;-0.59376204;10.113108;0.6895301
11:54:08:384;-0.59376204;10.113108;0.6895301
11:54:08:384;-0.59376204;10.113108;0.6895301
11:54:08:384;-0.59376204;10.113108;0.6895301
11:54:08:384;-0.59376204;10.113108;0.6895301
11:54:08:504;-0.21068975;9.634268;0.90021986
11:54:08:504;-0.21068975;9.634268;0.90021986
11:54:08:504;-0.21068975;9.634268;0.90021986
11:54:08:504;-0.21068975;9.634268;0.90021986
11:54:08:504;-0.21068975;9.634268;0.90021986
11:54:08:504;-0.21068975;9.634268;0.90021986
11:54:08:504;-0.21068975;9.634268;0.90021986
11:54:08:504;-0.21068975;9.634268;0.90021986
11:54:08:504;-0.21068975;9.634268;0.90021986
11:54:08:504;-0.21068975;9.634268;0.90021986
11:54:08:504;-0.21068975;9.634268;0.90021986
11:54:08:504;-0.21068975;9.634268;0.90021986
11:54:08:504;-0.21068975;9.634268;0.90021986
11:54:08:608;-0.15322891;10.247183;-0.1340753
11:54:08:608;-0.15322891;10.247183;-0.1340753
11:54:08:608;-0.15322891;10.247183;-0.1340753
11:54:08:608;-0.15322891;10.247183;-0.1340753
11:54:08:608;-0.15322891;10.247183;-0.1340753
11:54:08:608;-0.15322891;10.247183;-0.1340753
11:54:08:608;-0.15322891;10.247183;-0.1340753
11:54:08:608;-0.15322891;10.247183;-0.1340753
11:54:08:608;-0.15322891;10.247183;-0.1340753
11:54:08:608;-0.15322891;10.247183;-0.1340753
11:54:08:608;-0.15322891;10.247183;-0.1340753
11:54:08:608;-0.15322891;10.247183;-0.1340753
11:54:08:608;-0.15322891;10.247183;-0.1340753
11:54:08:608;-0.15322891;10.247183;-0.1340753
11:54:08:608;-0.15322891;10.247183;-0.1340753
11:54:08:722;-0.59376204;10.572795;0.59376204
11:54:08:722;-0.59376204;10.572795;0.59376204
11:54:08:722;-0.59376204;10.572795;0.59376204
11:54:08:722;-0.59376204;10.572795;0.59376204
11:54:08:722;-0.59376204;10.572795;0.59376204
11:54:08:722;-0.59376204;10.572795;0.59376204
11:54:08:722;-0.59376204;10.572795;0.59376204
11:54:08:722;-0.59376204;10.572795;0.59376204
11:54:08:722;-0.59376204;10.572795;0.59376204
11:54:08:722;-0.59376204;10.572795;0.59376204
11:54:08:722;-0.59376204;10.572795;0.59376204
11:54:08:722;-0.59376204;10.572795;0.59376204
11:54:08:722;-0.59376204;10.572795;0.59376204
11:54:08:722;-0.59376204;10.572795;0.59376204
11:54:08:722;-0.59376204;10.572795;0.59376204
11:54:08:841;-0.61291564;10.362105;-0.05746084
11:54:08:841;-0.61291564;10.362105;-0.05746084
11:54:08:841;-0.61291564;10.362105;-0.05746084
11:54:08:841;-0.61291564;10.362105;-0.05746084
11:54:08:841;-0.61291564;10.362105;-0.05746084
11:54:08:841;-0.61291564;10.362105;-0.05746084
11:54:08:841;-0.61291564;10.362105;-0.05746084
11:54:08:841;-0.61291564;10.362105;-0.05746084
11:54:08:841;-0.61291564;10.362105;-0.05746084
11:54:08:841;-0.61291564;10.362105;-0.05746084
11:54:08:841;-0.61291564;10.362105;-0.05746084
11:54:08:841;-0.61291564;10.362105;-0.05746084
11:54:08:841;-0.61291564;10.362105;-0.05746084
11:54:08:841;-0.61291564;10.362105;-0.05746084
11:54:08:841;-0.61291564;10.362105;-0.05746084
11:54:08:841;-0.61291564;10.362105;-0.05746084
11:54:08:841;-0.61291564;10.362105;-0.05746084
11:54:08:973;-0.019153614;9.346964;0.15322891
11:54:08:973;-0.019153614;9.346964;0.15322891
11:54:08:973;-0.019153614;9.346964;0.15322891
11:54:08:973;-0.019153614;9.346964;0.15322891
11:54:08:973;-0.019153614;9.346964;0.15322891
11:54:08:973;-0.019153614;9.346964;0.15322891
11:54:08:973;-0.019153614;9.346964;0.15322891
11:54:08:973;-0.019153614;9.346964;0.15322891
11:54:08:973;-0.019153614;9.346964;0.15322891
11:54:08:973;-0.019153614;9.346964;0.15322891
11:54:08:973;-0.019153614;9.346964;0.15322891
11:54:08:973;-0.019153614;9.346964;0.15322891
11:54:08:973;-0.019153614;9.346964;0.15322891
11:54:08:973;-0.019153614;9.346964;0.15322891
11:54:09:079;-0.49799395;9.921572;0.32561144
11:54:09:079;-0.49799395;9.921572;0.32561144
11:54:09:079;-0.49799395;9.921572;0.32561144
11:54:09:079;-0.49799395;9.921572;0.32561144
11:54:09:079;-0.49799395;9.921572;0.32561144
11:54:09:079;-0.49799395;9.921572;0.32561144
11:54:09:079;-0.49799395;9.921572;0.32561144
11:54:09:079;-0.49799395;9.921572;0.32561144
11:54:09:079;-0.49799395;9.921572;0.32561144
11:54:09:079;-0.49799395;9.921572;0.32561144
11:54:09:079;-0.49799395;9.921572;0.32561144
11:54:09:079;-0.49799395;9.921572;0.32561144
11:54:09:079;-0.49799395;9.921572;0.32561144
11:54:09:182;-1.340753;10.955867;1.0534488
11:54:09:182;-1.340753;10.955867;1.0534488
11:54:09:182;-1.340753;10.955867;1.0534488
11:54:09:182;-1.340753;10.955867;1.0534488
11:54:09:182;-1.340753;10.955867;1.0534488
11:54:09:182;-1.340753;10.955867;1.0534488
11:54:09:182;-1.340753;10.955867;1.0534488
11:54:09:182;-1.340753;10.955867;1.0534488
11:54:09:182;-1.340753;10.955867;1.0534488
11:54:09:182;-1.340753;10.955867;1.0534488
11:54:09:182;-1.340753;10.955867;1.0534488
11:54:09:182;-1.340753;10.955867;1.0534488
11:54:09:182;-1.340753;10.955867;1.0534488
11:54:09:182;-1.340753;10.955867;1.0534488
11:54:09:182;-1.340753;10.955867;1.0534488
11:54:09:300;-0.6512229;11.166556;0.17238252
11:54:09:300;-0.6512229;11.166556;0.17238252
11:54:09:300;-0.6512229;11.166556;0.17238252
11:54:09:300;-0.6512229;11.166556;0.17238252
11:54:09:300;-0.6512229;11.166556;0.17238252
11:54:09:300;-0.6512229;11.166556;0.17238252
11:54:09:300;-0.6512229;11.166556;0.17238252
11:54:09:300;-0.6512229;11.166556;0.17238252
11:54:09:300;-0.6512229;11.166556;0.17238252
11:54:09:300;-0.6512229;11.166556;0.17238252
11:54:09:300;-0.6512229;11.166556;0.17238252
11:54:09:300;-0.6512229;11.166556;0.17238252
11:54:09:300;-0.6512229;11.166556;0.17238252
11:54:09:300;-0.6512229;11.166556;0.17238252
11:54:09:300;-0.6512229;11.166556;0.17238252
11:54:09:300;-0.6512229;11.166556;0.17238252
11:54:09:422;-0.61291564;10.151415;1.1300632
11:54:09:422;-0.61291564;10.151415;1.1300632
11:54:09:422;-0.61291564;10.151415;1.1300632
11:54:09:422;-0.61291564;10.151415;1.1300632
11:54:09:422;-0.61291564;10.151415;1.1300632
11:54:09:422;-0.61291564;10.151415;1.1300632
11:54:09:422;-0.61291564;10.151415;1.1300632
11:54:09:422;-0.61291564;10.151415;1.1300632
11:54:09:422;-0.61291564;10.151415;1.1300632
11:54:09:422;-0.61291564;10.151415;1.1300632
11:54:09:422;-0.61291564;10.151415;1.1300632
11:54:09:422;-0.61291564;10.151415;1.1300632
11:54:09:422;-0.61291564;10.151415;1.1300632
11:54:09:525;0.40222588;9.212888;1.0151415
11:54:09:525;0.40222588;9.212888;1.0151415
11:54:09:525;0.40222588;9.212888;1.0151415
11:54:09:525;0.40222588;9.212888;1.0151415
11:54:09:525;0.40222588;9.212888;1.0151415
11:54:09:525;0.40222588;9.212888;1.0151415
11:54:09:525;0.40222588;9.212888;1.0151415
11:54:09:525;0.40222588;9.212888;1.0151415
11:54:09:525;0.40222588;9.212888;1.0151415
11:54:09:525;0.40222588;9.212888;1.0151415
11:54:09:525;0.40222588;9.212888;1.0151415
11:54:09:525;0.40222588;9.212888;1.0151415
11:54:09:525;0.40222588;9.212888;1.0151415
11:54:09:626;-0.6703765;8.714894;-0.11492168
11:54:09:626;-0.6703765;8.714894;-0.11492168
11:54:09:626;-0.6703765;8.714894;-0.11492168
11:54:09:626;-0.6703765;8.714894;-0.11492168
11:54:09:626;-0.6703765;8.714894;-0.11492168
11:54:09:626;-0.6703765;8.714894;-0.11492168
11:54:09:626;-0.6703765;8.714894;-0.11492168
11:54:09:626;-0.6703765;8.714894;-0.11492168
11:54:09:626;-0.6703765;8.714894;-0.11492168
11:54:09:626;-0.6703765;8.714894;-0.11492168
11:54:09:626;-0.6703765;8.714894;-0.11492168
11:54:09:626;-0.6703765;8.714894;-0.11492168
11:54:09:626;-0.6703765;8.714894;-0.11492168
11:54:09:626;-0.6703765;8.714894;-0.11492168
11:54:09:626;-0.6703765;8.714894;-0.11492168
11:54:09:745;-0.076614454;12.641385;-1.5514427
11:54:09:745;-0.076614454;12.641385;-1.5514427
11:54:09:745;-0.076614454;12.641385;-1.5514427
11:54:09:745;-0.076614454;12.641385;-1.5514427
11:54:09:745;-0.076614454;12.641385;-1.5514427
11:54:09:745;-0.076614454;12.641385;-1.5514427
11:54:09:745;-0.076614454;12.641385;-1.5514427
11:54:09:745;-0.076614454;12.641385;-1.5514427
11:54:09:745;-0.076614454;12.641385;-1.5514427
11:54:09:745;-0.076614454;12.641385;-1.5514427
11:54:09:745;-0.076614454;12.641385;-1.5514427
11:54:09:745;-0.076614454;12.641385;-1.5514427
11:54:09:745;-0.076614454;12.641385;-1.5514427
11:54:09:745;-0.076614454;12.641385;-1.5514427
11:54:09:745;-0.076614454;12.641385;-1.5514427
11:54:09:864;-1.1109096;11.951855;0.2681506
11:54:09:864;-1.1109096;11.951855;0.2681506
11:54:09:864;-1.1109096;11.951855;0.2681506
11:54:09:864;-1.1109096;11.951855;0.2681506
11:54:09:864;-1.1109096;11.951855;0.2681506
11:54:09:864;-1.1109096;11.951855;0.2681506
11:54:09:864;-1.1109096;11.951855;0.2681506
11:54:09:864;-1.1109096;11.951855;0.2681506
11:54:09:864;-1.1109096;11.951855;0.2681506
11:54:09:864;-1.1109096;11.951855;0.2681506
11:54:09:864;-1.1109096;11.951855;0.2681506
11:54:09:864;-1.1109096;11.951855;0.2681506
11:54:09:864;-1.1109096;11.951855;0.2681506
11:54:09:864;-1.1109096;11.951855;0.2681506
11:54:09:864;-1.1109096;11.951855;0.2681506
11:54:09:980;-0.6895301;11.243171;0.095768064
11:54:09:980;-0.6895301;11.243171;0.095768064
11:54:09:980;-0.6895301;11.243171;0.095768064
11:54:09:980;-0.6895301;11.243171;0.095768064
11:54:09:980;-0.6895301;11.243171;0.095768064
11:54:09:980;-0.6895301;11.243171;0.095768064
11:54:09:980;-0.6895301;11.243171;0.095768064
11:54:09:980;-0.6895301;11.243171;0.095768064
11:54:09:980;-0.6895301;11.243171;0.095768064
11:54:09:980;-0.6895301;11.243171;0.095768064
11:54:09:980;-0.6895301;11.243171;0.095768064
11:54:09:980;-0.6895301;11.243171;0.095768064
11:54:09:980;-0.6895301;11.243171;0.095768064
11:54:10:084;-1.5514427;9.308656;0.5746084
11:54:10:084;-1.5514427;9.308656;0.5746084
11:54:10:084;-1.5514427;9.308656;0.5746084
11:54:10:084;-1.5514427;9.308656;0.5746084
11:54:10:084;-1.5514427;9.308656;0.5746084
11:54:10:084;-1.5514427;9.308656;0.5746084
11:54:10:084;-1.5514427;9.308656;0.5746084
11:54:10:084;-1.5514427;9.308656;0.5746084
11:54:10:084;-1.5514427;9.308656;0.5746084
11:54:10:084;-1.5514427;9.308656;0.5746084
11:54:10:084;-1.5514427;9.308656;0.5746084
11:54:10:084;-1.5514427;9.308656;0.5746084
11:54:10:084;-1.5514427;9.308656;0.5746084
11:54:10:084;-1.5514427;9.308656;0.5746084
11:54:10:084;-1.5514427;9.308656;0.5746084
11:54:10:198;-2.030283;9.442732;2.030283
11:54:10:198;-2.030283;9.442732;2.030283
11:54:10:198;-2.030283;9.442732;2.030283
11:54:10:198;-2.030283;9.442732;2.030283
11:54:10:198;-2.030283;9.442732;2.030283
11:54:10:198;-2.030283;9.442732;2.030283
11:54:10:198;-2.030283;9.442732;2.030283
11:54:10:198;-2.030283;9.442732;2.030283
11:54:10:198;-2.030283;9.442732;2.030283
11:54:10:198;-2.030283;9.442732;2.030283
11:54:10:198;-2.030283;9.442732;2.030283
11:54:10:198;-2.030283;9.442732;2.030283
11:54:10:198;-2.030283;9.442732;2.030283
11:54:10:198;-2.030283;9.442732;2.030283
11:54:10:312;-1.0151415;9.481039;2.4133554
11:54:10:312;-1.0151415;9.481039;2.4133554
11:54:10:312;-1.0151415;9.481039;2.4133554
11:54:10:312;-1.0151415;9.481039;2.4133554
11:54:10:312;-1.0151415;9.481039;2.4133554
11:54:10:312;-1.0151415;9.481039;2.4133554
11:54:10:312;-1.0151415;9.481039;2.4133554
11:54:10:312;-1.0151415;9.481039;2.4133554
11:54:10:312;-1.0151415;9.481039;2.4133554
11:54:10:312;-1.0151415;9.481039;2.4133554
11:54:10:312;-1.0151415;9.481039;2.4133554
11:54:10:312;-1.0151415;9.481039;2.4133554
11:54:10:312;-1.0151415;9.481039;2.4133554
11:54:10:312;-1.0151415;9.481039;2.4133554
11:54:10:312;-1.0151415;9.481039;2.4133554
11:54:10:312;-1.0151415;9.481039;2.4133554
11:54:10:431;0.21068975;10.266336;0.2873042
11:54:10:431;0.21068975;10.266336;0.2873042
11:54:10:431;0.21068975;10.266336;0.2873042
11:54:10:431;0.21068975;10.266336;0.2873042
11:54:10:431;0.21068975;10.266336;0.2873042
11:54:10:431;0.21068975;10.266336;0.2873042
11:54:10:431;0.21068975;10.266336;0.2873042
11:54:10:431;0.21068975;10.266336;0.2873042
11:54:10:431;0.21068975;10.266336;0.2873042
11:54:10:431;0.21068975;10.266336;0.2873042
11:54:10:431;0.21068975;10.266336;0.2873042
11:54:10:431;0.21068975;10.266336;0.2873042
11:54:10:431;0.21068975;10.266336;0.2873042
11:54:10:431;0.21068975;10.266336;0.2873042
11:54:10:431;0.21068975;10.266336;0.2873042
11:54:10:547;-0.91937345;10.113108;1.8579005
11:54:10:547;-0.91937345;10.113108;1.8579005
11:54:10:547;-0.91937345;10.113108;1.8579005
11:54:10:547;-0.91937345;10.113108;1.8579005
11:54:10:547;-0.91937345;10.113108;1.8579005
11:54:10:547;-0.91937345;10.113108;1.8579005
11:54:10:547;-0.91937345;10.113108;1.8579005
11:54:10:547;-0.91937345;10.113108;1.8579005
11:54:10:547;-0.91937345;10.113108;1.8579005
11:54:10:547;-0.91937345;10.113108;1.8579005
11:54:10:547;-0.91937345;10.113108;1.8579005
11:54:10:547;-0.91937345;10.113108;1.8579005
11:54:10:547;-0.91937345;10.113108;1.8579005
11:54:10:650;-0.4405331;10.228029;0.076614454
11:54:10:650;-0.4405331;10.228029;0.076614454
11:54:10:650;-0.4405331;10.228029;0.076614454
11:54:10:650;-0.4405331;10.228029;0.076614454
11:54:10:650;-0.4405331;10.228029;0.076614454
11:54:10:650;-0.4405331;10.228029;0.076614454
11:54:10:650;-0.4405331;10.228029;0.076614454
11:54:10:650;-0.4405331;10.228029;0.076614454
11:54:10:650;-0.4405331;10.228029;0.076614454
11:54:10:650;-0.4405331;10.228029;0.076614454
11:54:10:650;-0.4405331;10.228029;0.076614454
11:54:10:650;-0.4405331;10.228029;0.076614454
11:54:10:650;-0.4405331;10.228029;0.076614454
11:54:10:650;-0.4405331;10.228029;0.076614454
11:54:10:650;-0.4405331;10.228029;0.076614454
11:54:10:768;-0.78529817;10.91756;0.51714754
11:54:10:768;-0.78529817;10.91756;0.51714754
11:54:10:768;-0.78529817;10.91756;0.51714754
11:54:10:768;-0.78529817;10.91756;0.51714754
11:54:10:768;-0.78529817;10.91756;0.51714754
11:54:10:768;-0.78529817;10.91756;0.51714754
11:54:10:768;-0.78529817;10.91756;0.51714754
11:54:10:768;-0.78529817;10.91756;0.51714754
11:54:10:768;-0.78529817;10.91756;0.51714754
11:54:10:768;-0.78529817;10.91756;0.51714754
11:54:10:768;-0.78529817;10.91756;0.51714754
11:54:10:768;-0.78529817;10.91756;0.51714754
11:54:10:768;-0.78529817;10.91756;0.51714754
11:54:10:768;-0.78529817;10.91756;0.51714754
11:54:10:768;-0.78529817;10.91756;0.51714754
11:54:10:888;0.17238252;10.553641;0.5746084
11:54:10:888;0.17238252;10.553641;0.5746084
11:54:10:888;0.17238252;10.553641;0.5746084
11:54:10:888;0.17238252;10.553641;0.5746084
11:54:10:888;0.17238252;10.553641;0.5746084
11:54:10:888;0.17238252;10.553641;0.5746084
11:54:10:888;0.17238252;10.553641;0.5746084
11:54:10:888;0.17238252;10.553641;0.5746084
11:54:10:888;0.17238252;10.553641;0.5746084
11:54:10:888;0.17238252;10.553641;0.5746084
11:54:10:888;0.17238252;10.553641;0.5746084
11:54:10:888;0.17238252;10.553641;0.5746084
11:54:10:888;0.17238252;10.553641;0.5746084
11:54:10:888;0.17238252;10.553641;0.5746084
11:54:10:888;0.17238252;10.553641;0.5746084
11:54:11:005;-0.80445176;11.032481;1.7621324
11:54:11:005;-0.80445176;11.032481;1.7621324
11:54:11:005;-0.80445176;11.032481;1.7621324
11:54:11:005;-0.80445176;11.032481;1.7621324
11:54:11:005;-0.80445176;11.032481;1.7621324
11:54:11:005;-0.80445176;11.032481;1.7621324
11:54:11:005;-0.80445176;11.032481;1.7621324
11:54:11:005;-0.80445176;11.032481;1.7621324
11:54:11:005;-0.80445176;11.032481;1.7621324
11:54:11:005;-0.80445176;11.032481;1.7621324
11:54:11:005;-0.80445176;11.032481;1.7621324
11:54:11:005;-0.80445176;11.032481;1.7621324
11:54:11:005;-0.80445176;11.032481;1.7621324
11:54:11:005;-0.80445176;11.032481;1.7621324
11:54:11:005;-0.80445176;11.032481;1.7621324
11:54:11:121;-0.4213795;9.768343;1.0534488
11:54:11:121;-0.4213795;9.768343;1.0534488
11:54:11:121;-0.4213795;9.768343;1.0534488
11:54:11:121;-0.4213795;9.768343;1.0534488
11:54:11:121;-0.4213795;9.768343;1.0534488
11:54:11:121;-0.4213795;9.768343;1.0534488
11:54:11:121;-0.4213795;9.768343;1.0534488
11:54:11:121;-0.4213795;9.768343;1.0534488
11:54:11:121;-0.4213795;9.768343;1.0534488
11:54:11:121;-0.4213795;9.768343;1.0534488
11:54:11:121;-0.4213795;9.768343;1.0534488
11:54:11:121;-0.4213795;9.768343;1.0534488
11:54:11:121;-0.4213795;9.768343;1.0534488
11:54:11:222;0.095768064;9.251195;0.9959879
11:54:11:222;0.095768064;9.251195;0.9959879
11:54:11:222;0.095768064;9.251195;0.9959879
11:54:11:222;0.095768064;9.251195;0.9959879
11:54:11:222;0.095768064;9.251195;0.9959879
11:54:11:222;0.095768064;9.251195;0.9959879
11:54:11:222;0.095768064;9.251195;0.9959879
11:54:11:222;0.095768064;9.251195;0.9959879
11:54:11:222;0.095768064;9.251195;0.9959879
11:54:11:222;0.095768064;9.251195;0.9959879
11:54:11:222;0.095768064;9.251195;0.9959879
11:54:11:222;0.095768064;9.251195;0.9959879
11:54:11:222;0.095768064;9.251195;0.9959879
11:54:11:222;0.095768064;9.251195;0.9959879
11:54:11:222;0.095768064;9.251195;0.9959879
11:54:11:342;-0.80445176;10.860099;0.47884035
11:54:11:342;-0.80445176;10.860099;0.47884035
11:54:11:342;-0.80445176;10.860099;0.47884035
11:54:11:342;-0.80445176;10.860099;0.47884035
11:54:11:342;-0.80445176;10.860099;0.47884035
11:54:11:342;-0.80445176;10.860099;0.47884035
11:54:11:342;-0.80445176;10.860099;0.47884035
11:54:11:342;-0.80445176;10.860099;0.47884035
11:54:11:342;-0.80445176;10.860099;0.47884035
11:54:11:342;-0.80445176;10.860099;0.47884035
11:54:11:342;-0.80445176;10.860099;0.47884035
11:54:11:342;-0.80445176;10.860099;0.47884035
11:54:11:342;-0.80445176;10.860099;0.47884035
11:54:11:342;-0.80445176;10.860099;0.47884035
11:54:11:342;-0.80445176;10.860099;0.47884035
11:54:11:342;-0.80445176;10.860099;0.47884035
11:54:11:342;-0.80445176;10.860099;0.47884035
11:54:11:342;-0.80445176;10.860099;0.47884035
11:54:11:342;-0.80445176;10.860099;0.47884035
11:54:11:487;-0.4405331;9.902418;-0.095768064
11:54:11:487;-0.4405331;9.902418;-0.095768064
11:54:11:487;-0.4405331;9.902418;-0.095768064
11:54:11:487;-0.4405331;9.902418;-0.095768064
11:54:11:487;-0.4405331;9.902418;-0.095768064
11:54:11:487;-0.4405331;9.902418;-0.095768064
11:54:11:487;-0.4405331;9.902418;-0.095768064
11:54:11:487;-0.4405331;9.902418;-0.095768064
11:54:11:487;-0.4405331;9.902418;-0.095768064
11:54:11:487;-0.4405331;9.902418;-0.095768064
11:54:11:487;-0.4405331;9.902418;-0.095768064
11:54:11:487;-0.4405331;9.902418;-0.095768064
11:54:11:487;-0.4405331;9.902418;-0.095768064
11:54:11:487;-0.4405331;9.902418;-0.095768064
11:54:11:597;-0.22984336;11.224017;-0.2681506
11:54:11:597;-0.22984336;11.224017;-0.2681506
11:54:11:597;-0.22984336;11.224017;-0.2681506
11:54:11:597;-0.22984336;11.224017;-0.2681506
11:54:11:597;-0.22984336;11.224017;-0.2681506
11:54:11:597;-0.22984336;11.224017;-0.2681506
11:54:11:597;-0.22984336;11.224017;-0.2681506
11:54:11:597;-0.22984336;11.224017;-0.2681506
11:54:11:597;-0.22984336;11.224017;-0.2681506
11:54:11:597;-0.22984336;11.224017;-0.2681506
11:54:11:597;-0.22984336;11.224017;-0.2681506
11:54:11:597;-0.22984336;11.224017;-0.2681506
11:54:11:597;-0.22984336;11.224017;-0.2681506
11:54:11:597;-0.22984336;11.224017;-0.2681506
11:54:11:597;-0.22984336;11.224017;-0.2681506
11:54:11:597;-0.22984336;11.224017;-0.2681506
11:54:11:597;-0.22984336;11.224017;-0.2681506
11:54:11:597;-0.22984336;11.224017;-0.2681506
11:54:11:742;0.095768064;9.385271;1.1109096
11:54:11:742;0.095768064;9.385271;1.1109096
11:54:11:742;0.095768064;9.385271;1.1109096
11:54:11:742;0.095768064;9.385271;1.1109096
11:54:11:742;0.095768064;9.385271;1.1109096
11:54:11:742;0.095768064;9.385271;1.1109096
11:54:11:742;0.095768064;9.385271;1.1109096
11:54:11:742;0.095768064;9.385271;1.1109096
11:54:11:742;0.095768064;9.385271;1.1109096
11:54:11:742;0.095768064;9.385271;1.1109096
11:54:11:742;0.095768064;9.385271;1.1109096
11:54:11:742;0.095768064;9.385271;1.1109096
11:54:11:742;0.095768064;9.385271;1.1109096
11:54:11:742;0.095768064;9.385271;1.1109096
11:54:11:742;0.095768064;9.385271;1.1109096
11:54:11:859;-0.5554548;10.400413;1.283292
11:54:11:859;-0.5554548;10.400413;1.283292
11:54:11:859;-0.5554548;10.400413;1.283292
11:54:11:859;-0.5554548;10.400413;1.283292
11:54:11:859;-0.5554548;10.400413;1.283292
11:54:11:859;-0.5554548;10.400413;1.283292
11:54:11:859;-0.5554548;10.400413;1.283292
11:54:11:859;-0.5554548;10.400413;1.283292
11:54:11:859;-0.5554548;10.400413;1.283292
11:54:11:859;-0.5554548;10.400413;1.283292
11:54:11:859;-0.5554548;10.400413;1.283292
11:54:11:859;-0.5554548;10.400413;1.283292
11:54:11:859;-0.5554548;10.400413;1.283292
11:54:11:859;-0.5554548;10.400413;1.283292
11:54:11:859;-0.5554548;10.400413;1.283292
11:54:11:971;-0.93852705;10.726024;0.45968673
11:54:11:971;-0.93852705;10.726024;0.45968673
11:54:11:971;-0.93852705;10.726024;0.45968673
11:54:11:971;-0.93852705;10.726024;0.45968673
11:54:11:971;-0.93852705;10.726024;0.45968673
11:54:11:971;-0.93852705;10.726024;0.45968673
11:54:11:971;-0.93852705;10.726024;0.45968673
11:54:11:971;-0.93852705;10.726024;0.45968673
11:54:11:971;-0.93852705;10.726024;0.45968673
11:54:11:971;-0.93852705;10.726024;0.45968673
11:54:11:971;-0.93852705;10.726024;0.45968673
11:54:11:971;-0.93852705;10.726024;0.45968673
11:54:11:971;-0.93852705;10.726024;0.45968673
11:54:12:076;0.15322891;9.289502;1.5705963
11:54:12:076;0.15322891;9.289502;1.5705963
11:54:12:076;0.15322891;9.289502;1.5705963
11:54:12:076;0.15322891;9.289502;1.5705963
11:54:12:076;0.15322891;9.289502;1.5705963
11:54:12:076;0.15322891;9.289502;1.5705963
11:54:12:076;0.15322891;9.289502;1.5705963
11:54:12:076;0.15322891;9.289502;1.5705963
11:54:12:076;0.15322891;9.289502;1.5705963
11:54:12:076;0.15322891;9.289502;1.5705963
11:54:12:076;0.15322891;9.289502;1.5705963
11:54:12:076;0.15322891;9.289502;1.5705963
11:54:12:076;0.15322891;9.289502;1.5705963
11:54:12:178;-0.15322891;9.500193;0.8810662
11:54:12:178;-0.15322891;9.500193;0.8810662
11:54:12:178;-0.15322891;9.500193;0.8810662
11:54:12:178;-0.15322891;9.500193;0.8810662
11:54:12:178;-0.15322891;9.500193;0.8810662
11:54:12:178;-0.15322891;9.500193;0.8810662
11:54:12:178;-0.15322891;9.500193;0.8810662
11:54:12:178;-0.15322891;9.500193;0.8810662
11:54:12:178;-0.15322891;9.500193;0.8810662
11:54:12:178;-0.15322891;9.500193;0.8810662
11:54:12:178;-0.15322891;9.500193;0.8810662
11:54:12:178;-0.15322891;9.500193;0.8810662
11:54:12:178;-0.15322891;9.500193;0.8810662
11:54:12:178;-0.15322891;9.500193;0.8810662
11:54:12:282;-1.0342951;10.400413;1.2066777
11:54:12:282;-1.0342951;10.400413;1.2066777
11:54:12:282;-1.0342951;10.400413;1.2066777
11:54:12:282;-1.0342951;10.400413;1.2066777
11:54:12:282;-1.0342951;10.400413;1.2066777
11:54:12:282;-1.0342951;10.400413;1.2066777
11:54:12:282;-1.0342951;10.400413;1.2066777
11:54:12:282;-1.0342951;10.400413;1.2066777
11:54:12:282;-1.0342951;10.400413;1.2066777
11:54:12:282;-1.0342951;10.400413;1.2066777
11:54:12:282;-1.0342951;10.400413;1.2066777
11:54:12:282;-1.0342951;10.400413;1.2066777
11:54:12:282;-1.0342951;10.400413;1.2066777
11:54:12:282;-1.0342951;10.400413;1.2066777
11:54:12:282;-1.0342951;10.400413;1.2066777
11:54:12:400;0.30645782;10.668563;0.9959879
11:54:12:400;0.30645782;10.668563;0.9959879
11:54:12:400;0.30645782;10.668563;0.9959879
11:54:12:400;0.30645782;10.668563;0.9959879
11:54:12:400;0.30645782;10.668563;0.9959879
11:54:12:400;0.30645782;10.668563;0.9959879
11:54:12:400;0.30645782;10.668563;0.9959879
11:54:12:400;0.30645782;10.668563;0.9959879
11:54:12:400;0.30645782;10.668563;0.9959879
11:54:12:400;0.30645782;10.668563;0.9959879
11:54:12:400;0.30645782;10.668563;0.9959879
11:54:12:400;0.30645782;10.668563;0.9959879
11:54:12:400;0.30645782;10.668563;0.9959879
11:54:12:400;0.30645782;10.668563;0.9959879
11:54:12:400;0.30645782;10.668563;0.9959879
11:54:12:521;-0.15322891;9.998186;0.842759
11:54:12:521;-0.15322891;9.998186;0.842759
11:54:12:521;-0.15322891;9.998186;0.842759
11:54:12:521;-0.15322891;9.998186;0.842759
11:54:12:521;-0.15322891;9.998186;0.842759
11:54:12:521;-0.15322891;9.998186;0.842759
11:54:12:521;-0.15322891;9.998186;0.842759
11:54:12:521;-0.15322891;9.998186;0.842759
11:54:12:521;-0.15322891;9.998186;0.842759
11:54:12:521;-0.15322891;9.998186;0.842759
11:54:12:521;-0.15322891;9.998186;0.842759
11:54:12:521;-0.15322891;9.998186;0.842759
11:54:12:521;-0.15322891;9.998186;0.842759
11:54:12:521;-0.15322891;9.998186;0.842759
11:54:12:521;-0.15322891;9.998186;0.842759
11:54:12:635;-0.15322891;9.500193;1.0726024
11:54:12:635;-0.15322891;9.500193;1.0726024
11:54:12:635;-0.15322891;9.500193;1.0726024
11:54:12:635;-0.15322891;9.500193;1.0726024
11:54:12:635;-0.15322891;9.500193;1.0726024
11:54:12:635;-0.15322891;9.500193;1.0726024
11:54:12:635;-0.15322891;9.500193;1.0726024
11:54:12:635;-0.15322891;9.500193;1.0726024
11:54:12:635;-0.15322891;9.500193;1.0726024
11:54:12:635;-0.15322891;9.500193;1.0726024
11:54:12:635;-0.15322891;9.500193;1.0726024
11:54:12:635;-0.15322891;9.500193;1.0726024
11:54:12:635;-0.15322891;9.500193;1.0726024
11:54:12:635;-0.15322891;9.500193;1.0726024
11:54:12:744;-0.05746084;10.113108;1.1875241
11:54:12:744;-0.05746084;10.113108;1.1875241
11:54:12:744;-0.05746084;10.113108;1.1875241
11:54:12:744;-0.05746084;10.113108;1.1875241
11:54:12:744;-0.05746084;10.113108;1.1875241
11:54:12:744;-0.05746084;10.113108;1.1875241
11:54:12:744;-0.05746084;10.113108;1.1875241
11:54:12:744;-0.05746084;10.113108;1.1875241
11:54:12:744;-0.05746084;10.113108;1.1875241
11:54:12:744;-0.05746084;10.113108;1.1875241
11:54:12:744;-0.05746084;10.113108;1.1875241
11:54:12:744;-0.05746084;10.113108;1.1875241
11:54:12:744;-0.05746084;10.113108;1.1875241
11:54:12:744;-0.05746084;10.113108;1.1875241
11:54:12:853;0.076614454;10.189722;1.5705963
11:54:12:853;0.076614454;10.189722;1.5705963
11:54:12:853;0.076614454;10.189722;1.5705963
11:54:12:853;0.076614454;10.189722;1.5705963
11:54:12:853;0.076614454;10.189722;1.5705963
11:54:12:853;0.076614454;10.189722;1.5705963
11:54:12:853;0.076614454;10.189722;1.5705963
11:54:12:853;0.076614454;10.189722;1.5705963
11:54:12:853;0.076614454;10.189722;1.5705963
11:54:12:853;0.076614454;10.189722;1.5705963
11:54:12:853;0.076614454;10.189722;1.5705963
11:54:12:853;0.076614454;10.189722;1.5705963
11:54:12:853;0.076614454;10.189722;1.5705963
11:54:12:957;0.38307226;10.208876;0.32561144
11:54:12:957;0.38307226;10.208876;0.32561144
11:54:12:957;0.38307226;10.208876;0.32561144
11:54:12:957;0.38307226;10.208876;0.32561144
11:54:12:957;0.38307226;10.208876;0.32561144
11:54:12:957;0.38307226;10.208876;0.32561144
11:54:12:957;0.38307226;10.208876;0.32561144
11:54:12:957;0.38307226;10.208876;0.32561144
11:54:12:957;0.38307226;10.208876;0.32561144
11:54:12:957;0.38307226;10.208876;0.32561144
11:54:12:957;0.38307226;10.208876;0.32561144
11:54:12:957;0.38307226;10.208876;0.32561144
11:54:12:957;0.38307226;10.208876;0.32561144
11:54:12:957;0.38307226;10.208876;0.32561144
11:54:13:069;-0.49799395;10.630256;0.4405331
11:54:13:069;-0.49799395;10.630256;0.4405331
11:54:13:069;-0.49799395;10.630256;0.4405331
11:54:13:069;-0.49799395;10.630256;0.4405331
11:54:13:069;-0.49799395;10.630256;0.4405331
11:54:13:069;-0.49799395;10.630256;0.4405331
11:54:13:069;-0.49799395;10.630256;0.4405331
11:54:13:069;-0.49799395;10.630256;0.4405331
11:54:13:069;-0.49799395;10.630256;0.4405331
11:54:13:069;-0.49799395;10.630256;0.4405331
11:54:13:069;-0.49799395;10.630256;0.4405331
11:54:13:069;-0.49799395;10.630256;0.4405331
11:54:13:069;-0.49799395;10.630256;0.4405331
11:54:13:069;-0.49799395;10.630256;0.4405331
11:54:13:175;-0.4213795;10.036493;1.1683705
11:54:13:175;-0.4213795;10.036493;1.1683705
11:54:13:175;-0.4213795;10.036493;1.1683705
11:54:13:175;-0.4213795;10.036493;1.1683705
11:54:13:175;-0.4213795;10.036493;1.1683705
11:54:13:175;-0.4213795;10.036493;1.1683705
11:54:13:175;-0.4213795;10.036493;1.1683705
11:54:13:175;-0.4213795;10.036493;1.1683705
11:54:13:175;-0.4213795;10.036493;1.1683705
11:54:13:175;-0.4213795;10.036493;1.1683705
11:54:13:175;-0.4213795;10.036493;1.1683705
11:54:13:175;-0.4213795;10.036493;1.1683705
11:54:13:175;-0.4213795;10.036493;1.1683705
11:54:13:175;-0.4213795;10.036493;1.1683705
11:54:13:284;0.61291564;10.419566;-0.4213795
11:54:13:284;0.61291564;10.419566;-0.4213795
11:54:13:284;0.61291564;10.419566;-0.4213795
11:54:13:284;0.61291564;10.419566;-0.4213795
11:54:13:284;0.61291564;10.419566;-0.4213795
11:54:13:284;0.61291564;10.419566;-0.4213795
11:54:13:284;0.61291564;10.419566;-0.4213795
11:54:13:284;0.61291564;10.419566;-0.4213795
11:54:13:284;0.61291564;10.419566;-0.4213795
11:54:13:284;0.61291564;10.419566;-0.4213795
11:54:13:284;0.61291564;10.419566;-0.4213795
11:54:13:284;0.61291564;10.419566;-0.4213795
11:54:13:284;0.61291564;10.419566;-0.4213795
11:54:13:386;-0.6895301;9.883265;0.9576807
11:54:13:386;-0.6895301;9.883265;0.9576807
11:54:13:386;-0.6895301;9.883265;0.9576807
11:54:13:386;-0.6895301;9.883265;0.9576807
11:54:13:386;-0.6895301;9.883265;0.9576807
11:54:13:386;-0.6895301;9.883265;0.9576807
11:54:13:386;-0.6895301;9.883265;0.9576807
11:54:13:386;-0.6895301;9.883265;0.9576807
11:54:13:386;-0.6895301;9.883265;0.9576807
11:54:13:386;-0.6895301;9.883265;0.9576807
11:54:13:386;-0.6895301;9.883265;0.9576807
11:54:13:386;-0.6895301;9.883265;0.9576807
11:54:13:386;-0.6895301;9.883265;0.9576807
11:54:13:386;-0.6895301;9.883265;0.9576807
11:54:13:386;-0.6895301;9.883265;0.9576807
11:54:13:502;0.6703765;9.710882;-0.11492168
11:54:13:502;0.6703765;9.710882;-0.11492168
11:54:13:502;0.6703765;9.710882;-0.11492168
11:54:13:502;0.6703765;9.710882;-0.11492168
11:54:13:502;0.6703765;9.710882;-0.11492168
11:54:13:502;0.6703765;9.710882;-0.11492168
11:54:13:502;0.6703765;9.710882;-0.11492168
11:54:13:502;0.6703765;9.710882;-0.11492168
11:54:13:502;0.6703765;9.710882;-0.11492168
11:54:13:502;0.6703765;9.710882;-0.11492168
11:54:13:502;0.6703765;9.710882;-0.11492168
11:54:13:502;0.6703765;9.710882;-0.11492168
11:54:13:502;0.6703765;9.710882;-0.11492168
11:54:13:502;0.6703765;9.710882;-0.11492168
11:54:13:502;0.6703765;9.710882;-0.11492168
11:54:13:619;-0.45968673;10.266336;-0.05746084
11:54:13:619;-0.45968673;10.266336;-0.05746084
11:54:13:619;-0.45968673;10.266336;-0.05746084
11:54:13:619;-0.45968673;10.266336;-0.05746084
11:54:13:619;-0.45968673;10.266336;-0.05746084
11:54:13:619;-0.45968673;10.266336;-0.05746084
11:54:13:619;-0.45968673;10.266336;-0.05746084
11:54:13:619;-0.45968673;10.266336;-0.05746084
11:54:13:619;-0.45968673;10.266336;-0.05746084
11:54:13:619;-0.45968673;10.266336;-0.05746084
11:54:13:619;-0.45968673;10.266336;-0.05746084
11:54:13:619;-0.45968673;10.266336;-0.05746084
11:54:13:619;-0.45968673;10.266336;-0.05746084
11:54:13:619;-0.45968673;10.266336;-0.05746084
11:54:13:619;-0.45968673;10.266336;-0.05746084
11:54:13:737;-0.51714754;9.3661175;1.3599066
11:54:13:737;-0.51714754;9.3661175;1.3599066
11:54:13:737;-0.51714754;9.3661175;1.3599066
11:54:13:737;-0.51714754;9.3661175;1.3599066
11:54:13:737;-0.51714754;9.3661175;1.3599066
11:54:13:737;-0.51714754;9.3661175;1.3599066
11:54:13:737;-0.51714754;9.3661175;1.3599066
11:54:13:737;-0.51714754;9.3661175;1.3599066
11:54:13:737;-0.51714754;9.3661175;1.3599066
11:54:13:737;-0.51714754;9.3661175;1.3599066
11:54:13:737;-0.51714754;9.3661175;1.3599066
11:54:13:737;-0.51714754;9.3661175;1.3599066
11:54:13:737;-0.51714754;9.3661175;1.3599066
11:54:13:843;-0.15322891;10.189722;1.5131354
11:54:13:843;-0.15322891;10.189722;1.5131354
11:54:13:843;-0.15322891;10.189722;1.5131354
11:54:13:843;-0.15322891;10.189722;1.5131354
11:54:13:843;-0.15322891;10.189722;1.5131354
11:54:13:843;-0.15322891;10.189722;1.5131354
11:54:13:843;-0.15322891;10.189722;1.5131354
11:54:13:843;-0.15322891;10.189722;1.5131354
11:54:13:843;-0.15322891;10.189722;1.5131354
11:54:13:843;-0.15322891;10.189722;1.5131354
11:54:13:843;-0.15322891;10.189722;1.5131354
11:54:13:843;-0.15322891;10.189722;1.5131354
11:54:13:843;-0.15322891;10.189722;1.5131354
11:54:13:944;0.05746084;9.710882;0.9768343
11:54:13:944;0.05746084;9.710882;0.9768343
11:54:13:944;0.05746084;9.710882;0.9768343
11:54:13:944;0.05746084;9.710882;0.9768343
11:54:13:944;0.05746084;9.710882;0.9768343
11:54:13:944;0.05746084;9.710882;0.9768343
11:54:13:944;0.05746084;9.710882;0.9768343
11:54:13:944;0.05746084;9.710882;0.9768343
11:54:13:944;0.05746084;9.710882;0.9768343
11:54:13:944;0.05746084;9.710882;0.9768343
11:54:13:944;0.05746084;9.710882;0.9768343
11:54:13:944;0.05746084;9.710882;0.9768343
11:54:13:944;0.05746084;9.710882;0.9768343
11:54:13:944;0.05746084;9.710882;0.9768343
11:54:13:944;0.05746084;9.710882;0.9768343
11:54:14:060;-0.17238252;10.228029;1.5897499
11:54:14:060;-0.17238252;10.228029;1.5897499
11:54:14:060;-0.17238252;10.228029;1.5897499
11:54:14:060;-0.17238252;10.228029;1.5897499
11:54:14:060;-0.17238252;10.228029;1.5897499
11:54:14:060;-0.17238252;10.228029;1.5897499
11:54:14:060;-0.17238252;10.228029;1.5897499
11:54:14:060;-0.17238252;10.228029;1.5897499
11:54:14:060;-0.17238252;10.228029;1.5897499
11:54:14:060;-0.17238252;10.228029;1.5897499
11:54:14:060;-0.17238252;10.228029;1.5897499
11:54:14:060;-0.17238252;10.228029;1.5897499
11:54:14:060;-0.17238252;10.228029;1.5897499
11:54:14:060;-0.17238252;10.228029;1.5897499
11:54:14:060;-0.17238252;10.228029;1.5897499
11:54:14:177;-1.2641385;10.783484;0.51714754
11:54:14:177;-1.2641385;10.783484;0.51714754
11:54:14:177;-1.2641385;10.783484;0.51714754
11:54:14:177;-1.2641385;10.783484;0.51714754
11:54:14:177;-1.2641385;10.783484;0.51714754
11:54:14:177;-1.2641385;10.783484;0.51714754
11:54:14:177;-1.2641385;10.783484;0.51714754
11:54:14:177;-1.2641385;10.783484;0.51714754
11:54:14:177;-1.2641385;10.783484;0.51714754
11:54:14:177;-1.2641385;10.783484;0.51714754
11:54:14:177;-1.2641385;10.783484;0.51714754
11:54:14:177;-1.2641385;10.783484;0.51714754
11:54:14:177;-1.2641385;10.783484;0.51714754
11:54:14:278;-2.7964275;12.583924;1.0534488
11:54:14:278;-2.7964275;12.583924;1.0534488
11:54:14:278;-2.7964275;12.583924;1.0534488
11:54:14:278;-2.7964275;12.583924;1.0534488
11:54:14:278;-2.7964275;12.583924;1.0534488
11:54:14:278;-2.7964275;12.583924;1.0534488
11:54:14:278;-2.7964275;12.583924;1.0534488
11:54:14:278;-2.7964275;12.583924;1.0534488
11:54:14:278;-2.7964275;12.583924;1.0534488
11:54:14:278;-2.7964275;12.583924;1.0534488
11:54:14:278;-2.7964275;12.583924;1.0534488
11:54:14:278;-2.7964275;12.583924;1.0534488
11:54:14:278;-2.7964275;12.583924;1.0534488
11:54:14:278;-2.7964275;12.583924;1.0534488
11:54:14:278;-2.7964275;12.583924;1.0534488
11:54:14:395;-1.4748282;11.204864;-0.38307226
11:54:14:395;-1.4748282;11.204864;-0.38307226
11:54:14:395;-1.4748282;11.204864;-0.38307226
11:54:14:395;-1.4748282;11.204864;-0.38307226
11:54:14:395;-1.4748282;11.204864;-0.38307226
11:54:14:395;-1.4748282;11.204864;-0.38307226
11:54:14:395;-1.4748282;11.204864;-0.38307226
11:54:14:395;-1.4748282;11.204864;-0.38307226
11:54:14:395;-1.4748282;11.204864;-0.38307226
11:54:14:395;-1.4748282;11.204864;-0.38307226
11:54:14:395;-1.4748282;11.204864;-0.38307226
11:54:14:395;-1.4748282;11.204864;-0.38307226
11:54:14:395;-1.4748282;11.204864;-0.38307226
11:54:14:395;-1.4748282;11.204864;-0.38307226
11:54:14:505;0.36391866;10.055647;0.05746084
11:54:14:505;0.36391866;10.055647;0.05746084
11:54:14:505;0.36391866;10.055647;0.05746084
11:54:14:505;0.36391866;10.055647;0.05746084
11:54:14:505;0.36391866;10.055647;0.05746084
11:54:14:505;0.36391866;10.055647;0.05746084
11:54:14:505;0.36391866;10.055647;0.05746084
11:54:14:505;0.36391866;10.055647;0.05746084
11:54:14:505;0.36391866;10.055647;0.05746084
11:54:14:505;0.36391866;10.055647;0.05746084
11:54:14:505;0.36391866;10.055647;0.05746084
11:54:14:505;0.36391866;10.055647;0.05746084
11:54:14:505;0.36391866;10.055647;0.05746084
11:54:14:505;0.36391866;10.055647;0.05746084
11:54:14:611;-1.0726024;9.844957;1.0726024
11:54:14:611;-1.0726024;9.844957;1.0726024
11:54:14:611;-1.0726024;9.844957;1.0726024
11:54:14:611;-1.0726024;9.844957;1.0726024
11:54:14:611;-1.0726024;9.844957;1.0726024
11:54:14:611;-1.0726024;9.844957;1.0726024
11:54:14:611;-1.0726024;9.844957;1.0726024
11:54:14:611;-1.0726024;9.844957;1.0726024
11:54:14:611;-1.0726024;9.844957;1.0726024
11:54:14:611;-1.0726024;9.844957;1.0726024
11:54:14:611;-1.0726024;9.844957;1.0726024
11:54:14:611;-1.0726024;9.844957;1.0726024
11:54:14:611;-1.0726024;9.844957;1.0726024
11:54:14:611;-1.0726024;9.844957;1.0726024
11:54:14:611;-1.0726024;9.844957;1.0726024
11:54:14:729;-0.4405331;9.5385;0.9959879
11:54:14:729;-0.4405331;9.5385;0.9959879
11:54:14:729;-0.4405331;9.5385;0.9959879
11:54:14:729;-0.4405331;9.5385;0.9959879
11:54:14:729;-0.4405331;9.5385;0.9959879
11:54:14:729;-0.4405331;9.5385;0.9959879
11:54:14:729;-0.4405331;9.5385;0.9959879
11:54:14:729;-0.4405331;9.5385;0.9959879
11:54:14:729;-0.4405331;9.5385;0.9959879
11:54:14:729;-0.4405331;9.5385;0.9959879
11:54:14:729;-0.4405331;9.5385;0.9959879
11:54:14:729;-0.4405331;9.5385;0.9959879
11:54:14:729;-0.4405331;9.5385;0.9959879
11:54:14:729;-0.4405331;9.5385;0.9959879
11:54:14:729;-0.4405331;9.5385;0.9959879
11:54:14:847;-0.51714754;10.783484;0.9959879
11:54:14:847;-0.51714754;10.783484;0.9959879
11:54:14:847;-0.51714754;10.783484;0.9959879
11:54:14:847;-0.51714754;10.783484;0.9959879
11:54:14:847;-0.51714754;10.783484;0.9959879
11:54:14:847;-0.51714754;10.783484;0.9959879
11:54:14:847;-0.51714754;10.783484;0.9959879
11:54:14:847;-0.51714754;10.783484;0.9959879
11:54:14:847;-0.51714754;10.783484;0.9959879
11:54:14:847;-0.51714754;10.783484;0.9959879
11:54:14:847;-0.51714754;10.783484;0.9959879
11:54:14:847;-0.51714754;10.783484;0.9959879
11:54:14:847;-0.51714754;10.783484;0.9959879
11:54:14:847;-0.51714754;10.783484;0.9959879
11:54:14:847;-0.51714754;10.783484;0.9959879
11:54:14:847;-0.51714754;10.783484;0.9959879
11:54:14:847;-0.51714754;10.783484;0.9959879
11:54:14:984;0.15322891;10.649409;0.32561144
11:54:14:984;0.15322891;10.649409;0.32561144
11:54:14:984;0.15322891;10.649409;0.32561144
11:54:14:984;0.15322891;10.649409;0.32561144
11:54:14:984;0.15322891;10.649409;0.32561144
11:54:14:984;0.15322891;10.649409;0.32561144
11:54:14:984;0.15322891;10.649409;0.32561144
11:54:14:984;0.15322891;10.649409;0.32561144
11:54:14:984;0.15322891;10.649409;0.32561144
11:54:14:984;0.15322891;10.649409;0.32561144
11:54:14:984;0.15322891;10.649409;0.32561144
11:54:14:984;0.15322891;10.649409;0.32561144
11:54:14:984;0.15322891;10.649409;0.32561144
11:54:14:984;0.15322891;10.649409;0.32561144
11:54:14:984;0.15322891;10.649409;0.32561144
11:54:14:984;0.15322891;10.649409;0.32561144
11:54:15:103;-0.4213795;10.6877165;0.32561144
11:54:15:103;-0.4213795;10.6877165;0.32561144
11:54:15:103;-0.4213795;10.6877165;0.32561144
11:54:15:103;-0.4213795;10.6877165;0.32561144
11:54:15:103;-0.4213795;10.6877165;0.32561144
11:54:15:103;-0.4213795;10.6877165;0.32561144
11:54:15:103;-0.4213795;10.6877165;0.32561144
11:54:15:103;-0.4213795;10.6877165;0.32561144
11:54:15:103;-0.4213795;10.6877165;0.32561144
11:54:15:103;-0.4213795;10.6877165;0.32561144
11:54:15:103;-0.4213795;10.6877165;0.32561144
11:54:15:103;-0.4213795;10.6877165;0.32561144
11:54:15:103;-0.4213795;10.6877165;0.32561144
11:54:15:205;-0.24899697;10.093954;0.82360536
11:54:15:205;-0.24899697;10.093954;0.82360536
11:54:15:205;-0.24899697;10.093954;0.82360536
11:54:15:205;-0.24899697;10.093954;0.82360536
11:54:15:205;-0.24899697;10.093954;0.82360536
11:54:15:205;-0.24899697;10.093954;0.82360536
11:54:15:205;-0.24899697;10.093954;0.82360536
11:54:15:205;-0.24899697;10.093954;0.82360536
11:54:15:205;-0.24899697;10.093954;0.82360536
11:54:15:205;-0.24899697;10.093954;0.82360536
11:54:15:205;-0.24899697;10.093954;0.82360536
11:54:15:205;-0.24899697;10.093954;0.82360536
11:54:15:205;-0.24899697;10.093954;0.82360536
11:54:15:205;-0.24899697;10.093954;0.82360536
11:54:15:314;-0.30645782;9.653421;0.82360536
11:54:15:314;-0.30645782;9.653421;0.82360536
11:54:15:314;-0.30645782;9.653421;0.82360536
11:54:15:314;-0.30645782;9.653421;0.82360536
11:54:15:314;-0.30645782;9.653421;0.82360536
11:54:15:314;-0.30645782;9.653421;0.82360536
11:54:15:314;-0.30645782;9.653421;0.82360536
11:54:15:314;-0.30645782;9.653421;0.82360536
11:54:15:314;-0.30645782;9.653421;0.82360536
11:54:15:314;-0.30645782;9.653421;0.82360536
11:54:15:314;-0.30645782;9.653421;0.82360536
11:54:15:314;-0.30645782;9.653421;0.82360536
11:54:15:314;-0.30645782;9.653421;0.82360536
11:54:15:314;-0.30645782;9.653421;0.82360536
11:54:15:314;-0.30645782;9.653421;0.82360536
11:54:15:432;-1.1300632;9.3661175;0.61291564
11:54:15:432;-1.1300632;9.3661175;0.61291564
11:54:15:432;-1.1300632;9.3661175;0.61291564
11:54:15:432;-1.1300632;9.3661175;0.61291564
11:54:15:432;-1.1300632;9.3661175;0.61291564
11:54:15:432;-1.1300632;9.3661175;0.61291564
11:54:15:432;-1.1300632;9.3661175;0.61291564
11:54:15:432;-1.1300632;9.3661175;0.61291564
11:54:15:432;-1.1300632;9.3661175;0.61291564
11:54:15:432;-1.1300632;9.3661175;0.61291564
11:54:15:432;-1.1300632;9.3661175;0.61291564
11:54:15:432;-1.1300632;9.3661175;0.61291564
11:54:15:432;-1.1300632;9.3661175;0.61291564
11:54:15:432;-1.1300632;9.3661175;0.61291564
11:54:15:541;-0.038307227;10.381259;0.095768064
11:54:15:541;-0.038307227;10.381259;0.095768064
11:54:15:541;-0.038307227;10.381259;0.095768064
11:54:15:541;-0.038307227;10.381259;0.095768064
11:54:15:541;-0.038307227;10.381259;0.095768064
11:54:15:541;-0.038307227;10.381259;0.095768064
11:54:15:541;-0.038307227;10.381259;0.095768064
11:54:15:541;-0.038307227;10.381259;0.095768064
11:54:15:541;-0.038307227;10.381259;0.095768064
11:54:15:541;-0.038307227;10.381259;0.095768064
11:54:15:541;-0.038307227;10.381259;0.095768064
11:54:15:541;-0.038307227;10.381259;0.095768064
11:54:15:541;-0.038307227;10.381259;0.095768064
11:54:15:541;-0.038307227;10.381259;0.095768064
11:54:15:541;-0.038307227;10.381259;0.095768064
11:54:15:660;-0.6703765;10.457873;0.59376204
11:54:15:660;-0.6703765;10.457873;0.59376204
11:54:15:660;-0.6703765;10.457873;0.59376204
11:54:15:660;-0.6703765;10.457873;0.59376204
11:54:15:660;-0.6703765;10.457873;0.59376204
11:54:15:660;-0.6703765;10.457873;0.59376204
11:54:15:660;-0.6703765;10.457873;0.59376204
11:54:15:660;-0.6703765;10.457873;0.59376204
11:54:15:660;-0.6703765;10.457873;0.59376204
11:54:15:660;-0.6703765;10.457873;0.59376204
11:54:15:660;-0.6703765;10.457873;0.59376204
11:54:15:660;-0.6703765;10.457873;0.59376204
11:54:15:660;-0.6703765;10.457873;0.59376204
11:54:15:660;-0.6703765;10.457873;0.59376204
11:54:15:660;-0.6703765;10.457873;0.59376204
11:54:15:777;-0.7661445;10.457873;0.05746084
11:54:15:777;-0.7661445;10.457873;0.05746084
11:54:15:777;-0.7661445;10.457873;0.05746084
11:54:15:777;-0.7661445;10.457873;0.05746084
11:54:15:777;-0.7661445;10.457873;0.05746084
11:54:15:777;-0.7661445;10.457873;0.05746084
11:54:15:777;-0.7661445;10.457873;0.05746084
11:54:15:777;-0.7661445;10.457873;0.05746084
11:54:15:777;-0.7661445;10.457873;0.05746084
11:54:15:777;-0.7661445;10.457873;0.05746084
11:54:15:777;-0.7661445;10.457873;0.05746084
11:54:15:777;-0.7661445;10.457873;0.05746084
11:54:15:777;-0.7661445;10.457873;0.05746084
11:54:15:777;-0.7661445;10.457873;0.05746084
11:54:15:777;-0.7661445;10.457873;0.05746084
11:54:15:898;-0.21068975;10.208876;1.283292
11:54:15:898;-0.21068975;10.208876;1.283292
11:54:15:898;-0.21068975;10.208876;1.283292
11:54:15:898;-0.21068975;10.208876;1.283292
11:54:15:898;-0.21068975;10.208876;1.283292
11:54:15:898;-0.21068975;10.208876;1.283292
11:54:15:898;-0.21068975;10.208876;1.283292
11:54:15:898;-0.21068975;10.208876;1.283292
11:54:15:898;-0.21068975;10.208876;1.283292
11:54:15:898;-0.21068975;10.208876;1.283292
11:54:15:898;-0.21068975;10.208876;1.283292
11:54:15:898;-0.21068975;10.208876;1.283292
11:54:15:898;-0.21068975;10.208876;1.283292
11:54:15:898;-0.21068975;10.208876;1.283292
11:54:15:898;-0.21068975;10.208876;1.283292
11:54:15:898;-0.21068975;10.208876;1.283292
11:54:15:898;-0.21068975;10.208876;1.283292
11:54:16:025;-0.095768064;9.80665;0.34476504
11:54:16:025;-0.095768064;9.80665;0.34476504
11:54:16:025;-0.095768064;9.80665;0.34476504
11:54:16:025;-0.095768064;9.80665;0.34476504
11:54:16:025;-0.095768064;9.80665;0.34476504
11:54:16:025;-0.095768064;9.80665;0.34476504
11:54:16:025;-0.095768064;9.80665;0.34476504
11:54:16:025;-0.095768064;9.80665;0.34476504
11:54:16:025;-0.095768064;9.80665;0.34476504
11:54:16:025;-0.095768064;9.80665;0.34476504
11:54:16:025;-0.095768064;9.80665;0.34476504
11:54:16:025;-0.095768064;9.80665;0.34476504
11:54:16:025;-0.095768064;9.80665;0.34476504
11:54:16:025;-0.095768064;9.80665;0.34476504
11:54:16:134;-0.9768343;10.247183;0.11492168
11:54:16:134;-0.9768343;10.247183;0.11492168
11:54:16:134;-0.9768343;10.247183;0.11492168
11:54:16:134;-0.9768343;10.247183;0.11492168
11:54:16:134;-0.9768343;10.247183;0.11492168
11:54:16:134;-0.9768343;10.247183;0.11492168
11:54:16:134;-0.9768343;10.247183;0.11492168
11:54:16:134;-0.9768343;10.247183;0.11492168
11:54:16:134;-0.9768343;10.247183;0.11492168
11:54:16:134;-0.9768343;10.247183;0.11492168
11:54:16:134;-0.9768343;10.247183;0.11492168
11:54:16:134;-0.9768343;10.247183;0.11492168
11:54:16:134;-0.9768343;10.247183;0.11492168
11:54:16:134;-0.9768343;10.247183;0.11492168
11:54:16:245;-0.51714754;10.151415;-0.30645782
11:54:16:245;-0.51714754;10.151415;-0.30645782
11:54:16:245;-0.51714754;10.151415;-0.30645782
11:54:16:245;-0.51714754;10.151415;-0.30645782
11:54:16:245;-0.51714754;10.151415;-0.30645782
11:54:16:245;-0.51714754;10.151415;-0.30645782
11:54:16:245;-0.51714754;10.151415;-0.30645782
11:54:16:245;-0.51714754;10.151415;-0.30645782
11:54:16:245;-0.51714754;10.151415;-0.30645782
11:54:16:245;-0.51714754;10.151415;-0.30645782
11:54:16:245;-0.51714754;10.151415;-0.30645782
11:54:16:245;-0.51714754;10.151415;-0.30645782
11:54:16:245;-0.51714754;10.151415;-0.30645782
11:54:16:245;-0.51714754;10.151415;-0.30645782
11:54:16:245;-0.51714754;10.151415;-0.30645782
11:54:16:360;-0.22984336;10.228029;0.4213795
11:54:16:360;-0.22984336;10.228029;0.4213795
11:54:16:360;-0.22984336;10.228029;0.4213795
11:54:16:360;-0.22984336;10.228029;0.4213795
11:54:16:360;-0.22984336;10.228029;0.4213795
11:54:16:360;-0.22984336;10.228029;0.4213795
11:54:16:360;-0.22984336;10.228029;0.4213795
11:54:16:360;-0.22984336;10.228029;0.4213795
11:54:16:360;-0.22984336;10.228029;0.4213795
11:54:16:360;-0.22984336;10.228029;0.4213795
11:54:16:360;-0.22984336;10.228029;0.4213795
11:54:16:360;-0.22984336;10.228029;0.4213795
11:54:16:360;-0.22984336;10.228029;0.4213795
11:54:16:360;-0.22984336;10.228029;0.4213795
11:54:16:360;-0.22984336;10.228029;0.4213795
11:54:16:479;-0.78529817;9.921572;0.2681506
11:54:16:479;-0.78529817;9.921572;0.2681506
11:54:16:479;-0.78529817;9.921572;0.2681506
11:54:16:479;-0.78529817;9.921572;0.2681506
11:54:16:479;-0.78529817;9.921572;0.2681506
11:54:16:479;-0.78529817;9.921572;0.2681506
11:54:16:479;-0.78529817;9.921572;0.2681506
11:54:16:479;-0.78529817;9.921572;0.2681506
11:54:16:479;-0.78529817;9.921572;0.2681506
11:54:16:479;-0.78529817;9.921572;0.2681506
11:54:16:479;-0.78529817;9.921572;0.2681506
11:54:16:479;-0.78529817;9.921572;0.2681506
11:54:16:479;-0.78529817;9.921572;0.2681506
11:54:16:581;-0.7469909;9.940725;1.1109096
11:54:16:581;-0.7469909;9.940725;1.1109096
11:54:16:581;-0.7469909;9.940725;1.1109096
11:54:16:581;-0.7469909;9.940725;1.1109096
11:54:16:581;-0.7469909;9.940725;1.1109096
11:54:16:581;-0.7469909;9.940725;1.1109096
11:54:16:581;-0.7469909;9.940725;1.1109096
11:54:16:581;-0.7469909;9.940725;1.1109096
11:54:16:581;-0.7469909;9.940725;1.1109096
11:54:16:581;-0.7469909;9.940725;1.1109096
11:54:16:581;-0.7469909;9.940725;1.1109096
11:54:16:581;-0.7469909;9.940725;1.1109096
11:54:16:581;-0.7469909;9.940725;1.1109096
11:54:16:581;-0.7469909;9.940725;1.1109096
11:54:16:581;-0.7469909;9.940725;1.1109096
11:54:16:698;-1.2258313;10.496181;-0.5363012
11:54:16:698;-1.2258313;10.496181;-0.5363012
11:54:16:698;-1.2258313;10.496181;-0.5363012
11:54:16:698;-1.2258313;10.496181;-0.5363012
11:54:16:698;-1.2258313;10.496181;-0.5363012
11:54:16:698;-1.2258313;10.496181;-0.5363012
11:54:16:698;-1.2258313;10.496181;-0.5363012
11:54:16:698;-1.2258313;10.496181;-0.5363012
11:54:16:698;-1.2258313;10.496181;-0.5363012
11:54:16:698;-1.2258313;10.496181;-0.5363012
11:54:16:698;-1.2258313;10.496181;-0.5363012
11:54:16:698;-1.2258313;10.496181;-0.5363012
11:54:16:698;-1.2258313;10.496181;-0.5363012
11:54:16:698;-1.2258313;10.496181;-0.5363012
11:54:16:698;-1.2258313;10.496181;-0.5363012
11:54:16:816;-0.17238252;9.5385;0.7278373
11:54:16:816;-0.17238252;9.5385;0.7278373
11:54:16:816;-0.17238252;9.5385;0.7278373
11:54:16:816;-0.17238252;9.5385;0.7278373
11:54:16:816;-0.17238252;9.5385;0.7278373
11:54:16:816;-0.17238252;9.5385;0.7278373
11:54:16:816;-0.17238252;9.5385;0.7278373
11:54:16:816;-0.17238252;9.5385;0.7278373
11:54:16:816;-0.17238252;9.5385;0.7278373
11:54:16:816;-0.17238252;9.5385;0.7278373
11:54:16:816;-0.17238252;9.5385;0.7278373
11:54:16:816;-0.17238252;9.5385;0.7278373
11:54:16:816;-0.17238252;9.5385;0.7278373
11:54:16:816;-0.17238252;9.5385;0.7278373
11:54:16:816;-0.17238252;9.5385;0.7278373
11:54:16:935;-0.80445176;10.247183;0.076614454
11:54:16:935;-0.80445176;10.247183;0.076614454
11:54:16:935;-0.80445176;10.247183;0.076614454
11:54:16:935;-0.80445176;10.247183;0.076614454
11:54:16:935;-0.80445176;10.247183;0.076614454
11:54:16:935;-0.80445176;10.247183;0.076614454
11:54:16:935;-0.80445176;10.247183;0.076614454
11:54:16:935;-0.80445176;10.247183;0.076614454
11:54:16:935;-0.80445176;10.247183;0.076614454
11:54:16:935;-0.80445176;10.247183;0.076614454
11:54:16:935;-0.80445176;10.247183;0.076614454
11:54:16:935;-0.80445176;10.247183;0.076614454
11:54:16:935;-0.80445176;10.247183;0.076614454
11:54:16:935;-0.80445176;10.247183;0.076614454
11:54:16:935;-0.80445176;10.247183;0.076614454
11:54:17:053;-0.4213795;9.844957;0.24899697
11:54:17:053;-0.4213795;9.844957;0.24899697
11:54:17:053;-0.4213795;9.844957;0.24899697
11:54:17:053;-0.4213795;9.844957;0.24899697
11:54:17:053;-0.4213795;9.844957;0.24899697
11:54:17:053;-0.4213795;9.844957;0.24899697
11:54:17:053;-0.4213795;9.844957;0.24899697
11:54:17:053;-0.4213795;9.844957;0.24899697
11:54:17:053;-0.4213795;9.844957;0.24899697
11:54:17:053;-0.4213795;9.844957;0.24899697
11:54:17:053;-0.4213795;9.844957;0.24899697
11:54:17:053;-0.4213795;9.844957;0.24899697
11:54:17:053;-0.4213795;9.844957;0.24899697
11:54:17:154;-1.0534488;9.595961;0.4405331
11:54:17:154;-1.0534488;9.595961;0.4405331
11:54:17:154;-1.0534488;9.595961;0.4405331
11:54:17:154;-1.0534488;9.595961;0.4405331
11:54:17:154;-1.0534488;9.595961;0.4405331
11:54:17:154;-1.0534488;9.595961;0.4405331
11:54:17:154;-1.0534488;9.595961;0.4405331
11:54:17:154;-1.0534488;9.595961;0.4405331
11:54:17:154;-1.0534488;9.595961;0.4405331
11:54:17:154;-1.0534488;9.595961;0.4405331
11:54:17:154;-1.0534488;9.595961;0.4405331
11:54:17:154;-1.0534488;9.595961;0.4405331
11:54:17:154;-1.0534488;9.595961;0.4405331
11:54:17:154;-1.0534488;9.595961;0.4405331
11:54:17:260;-0.9768343;10.611102;-0.40222588
11:54:17:260;-0.9768343;10.611102;-0.40222588
11:54:17:260;-0.9768343;10.611102;-0.40222588
11:54:17:260;-0.9768343;10.611102;-0.40222588
11:54:17:260;-0.9768343;10.611102;-0.40222588
11:54:17:260;-0.9768343;10.611102;-0.40222588
11:54:17:260;-0.9768343;10.611102;-0.40222588
11:54:17:260;-0.9768343;10.611102;-0.40222588
11:54:17:260;-0.9768343;10.611102;-0.40222588
11:54:17:260;-0.9768343;10.611102;-0.40222588
11:54:17:260;-0.9768343;10.611102;-0.40222588
11:54:17:260;-0.9768343;10.611102;-0.40222588
11:54:17:260;-0.9768343;10.611102;-0.40222588
11:54:17:260;-0.9768343;10.611102;-0.40222588
11:54:17:374;-0.21068975;9.9790325;0.076614454
11:54:17:374;-0.21068975;9.9790325;0.076614454
11:54:17:374;-0.21068975;9.9790325;0.076614454
11:54:17:374;-0.21068975;9.9790325;0.076614454
11:54:17:374;-0.21068975;9.9790325;0.076614454
11:54:17:374;-0.21068975;9.9790325;0.076614454
11:54:17:374;-0.21068975;9.9790325;0.076614454
11:54:17:374;-0.21068975;9.9790325;0.076614454
11:54:17:374;-0.21068975;9.9790325;0.076614454
11:54:17:374;-0.21068975;9.9790325;0.076614454
11:54:17:374;-0.21068975;9.9790325;0.076614454
11:54:17:374;-0.21068975;9.9790325;0.076614454
11:54:17:374;-0.21068975;9.9790325;0.076614454
11:54:17:374;-0.21068975;9.9790325;0.076614454
11:54:17:374;-0.21068975;9.9790325;0.076614454
11:54:17:492;-0.47884035;10.649409;-0.7086837
11:54:17:492;-0.47884035;10.649409;-0.7086837
11:54:17:492;-0.47884035;10.649409;-0.7086837
11:54:17:492;-0.47884035;10.649409;-0.7086837
11:54:17:492;-0.47884035;10.649409;-0.7086837
11:54:17:492;-0.47884035;10.649409;-0.7086837
11:54:17:492;-0.47884035;10.649409;-0.7086837
11:54:17:492;-0.47884035;10.649409;-0.7086837
11:54:17:492;-0.47884035;10.649409;-0.7086837
11:54:17:492;-0.47884035;10.649409;-0.7086837
11:54:17:492;-0.47884035;10.649409;-0.7086837
11:54:17:492;-0.47884035;10.649409;-0.7086837
11:54:17:492;-0.47884035;10.649409;-0.7086837
11:54:17:492;-0.47884035;10.649409;-0.7086837
11:54:17:492;-0.47884035;10.649409;-0.7086837
11:54:17:492;-0.47884035;10.649409;-0.7086837
11:54:17:611;-0.6703765;9.768343;0.32561144
11:54:17:611;-0.6703765;9.768343;0.32561144
11:54:17:611;-0.6703765;9.768343;0.32561144
11:54:17:611;-0.6703765;9.768343;0.32561144
11:54:17:611;-0.6703765;9.768343;0.32561144
11:54:17:611;-0.6703765;9.768343;0.32561144
11:54:17:611;-0.6703765;9.768343;0.32561144
11:54:17:611;-0.6703765;9.768343;0.32561144
11:54:17:611;-0.6703765;9.768343;0.32561144
11:54:17:611;-0.6703765;9.768343;0.32561144
11:54:17:611;-0.6703765;9.768343;0.32561144
11:54:17:611;-0.6703765;9.768343;0.32561144
11:54:17:611;-0.6703765;9.768343;0.32561144
11:54:17:712;-1.1300632;10.228029;0.05746084
11:54:17:712;-1.1300632;10.228029;0.05746084
11:54:17:712;-1.1300632;10.228029;0.05746084
11:54:17:712;-1.1300632;10.228029;0.05746084
11:54:17:712;-1.1300632;10.228029;0.05746084
11:54:17:712;-1.1300632;10.228029;0.05746084
11:54:17:712;-1.1300632;10.228029;0.05746084
11:54:17:712;-1.1300632;10.228029;0.05746084
11:54:17:712;-1.1300632;10.228029;0.05746084
11:54:17:712;-1.1300632;10.228029;0.05746084
11:54:17:712;-1.1300632;10.228029;0.05746084
11:54:17:712;-1.1300632;10.228029;0.05746084
11:54:17:712;-1.1300632;10.228029;0.05746084
11:54:17:712;-1.1300632;10.228029;0.05746084
11:54:17:712;-1.1300632;10.228029;0.05746084
11:54:17:831;-0.32561144;9.3661175;0.4405331
11:54:17:831;-0.32561144;9.3661175;0.4405331
11:54:17:831;-0.32561144;9.3661175;0.4405331
11:54:17:831;-0.32561144;9.3661175;0.4405331
11:54:17:831;-0.32561144;9.3661175;0.4405331
11:54:17:831;-0.32561144;9.3661175;0.4405331
11:54:17:831;-0.32561144;9.3661175;0.4405331
11:54:17:831;-0.32561144;9.3661175;0.4405331
11:54:17:831;-0.32561144;9.3661175;0.4405331
11:54:17:831;-0.32561144;9.3661175;0.4405331
11:54:17:831;-0.32561144;9.3661175;0.4405331
11:54:17:831;-0.32561144;9.3661175;0.4405331
11:54:17:831;-0.32561144;9.3661175;0.4405331
11:54:17:831;-0.32561144;9.3661175;0.4405331
11:54:17:831;-0.32561144;9.3661175;0.4405331
11:54:17:950;-0.05746084;9.730036;-0.32561144
11:54:17:950;-0.05746084;9.730036;-0.32561144
11:54:17:950;-0.05746084;9.730036;-0.32561144
11:54:17:950;-0.05746084;9.730036;-0.32561144
11:54:17:950;-0.05746084;9.730036;-0.32561144
11:54:17:950;-0.05746084;9.730036;-0.32561144
11:54:17:950;-0.05746084;9.730036;-0.32561144
11:54:17:950;-0.05746084;9.730036;-0.32561144
11:54:17:950;-0.05746084;9.730036;-0.32561144
11:54:17:950;-0.05746084;9.730036;-0.32561144
11:54:17:950;-0.05746084;9.730036;-0.32561144
11:54:17:950;-0.05746084;9.730036;-0.32561144
11:54:17:950;-0.05746084;9.730036;-0.32561144
11:54:17:950;-0.05746084;9.730036;-0.32561144
11:54:18:055;-0.21068975;9.481039;0.21068975
11:54:18:055;-0.21068975;9.481039;0.21068975
11:54:18:055;-0.21068975;9.481039;0.21068975
11:54:18:055;-0.21068975;9.481039;0.21068975
11:54:18:055;-0.21068975;9.481039;0.21068975
11:54:18:055;-0.21068975;9.481039;0.21068975
11:54:18:055;-0.21068975;9.481039;0.21068975
11:54:18:055;-0.21068975;9.481039;0.21068975
11:54:18:055;-0.21068975;9.481039;0.21068975
11:54:18:055;-0.21068975;9.481039;0.21068975
11:54:18:055;-0.21068975;9.481039;0.21068975
11:54:18:055;-0.21068975;9.481039;0.21068975
11:54:18:055;-0.21068975;9.481039;0.21068975
11:54:18:055;-0.21068975;9.481039;0.21068975
11:54:18:165;-0.4405331;8.485051;0.4405331
11:54:18:165;-0.4405331;8.485051;0.4405331
11:54:18:165;-0.4405331;8.485051;0.4405331
11:54:18:165;-0.4405331;8.485051;0.4405331
11:54:18:165;-0.4405331;8.485051;0.4405331
11:54:18:165;-0.4405331;8.485051;0.4405331
11:54:18:165;-0.4405331;8.485051;0.4405331
11:54:18:165;-0.4405331;8.485051;0.4405331
11:54:18:165;-0.4405331;8.485051;0.4405331
11:54:18:165;-0.4405331;8.485051;0.4405331
11:54:18:165;-0.4405331;8.485051;0.4405331
11:54:18:165;-0.4405331;8.485051;0.4405331
11:54:18:165;-0.4405331;8.485051;0.4405331
11:54:18:269;-1.0534488;11.089942;-1.283292
11:54:18:269;-1.0534488;11.089942;-1.283292
11:54:18:269;-1.0534488;11.089942;-1.283292
11:54:18:269;-1.0534488;11.089942;-1.283292
11:54:18:269;-1.0534488;11.089942;-1.283292
11:54:18:269;-1.0534488;11.089942;-1.283292
11:54:18:269;-1.0534488;11.089942;-1.283292
11:54:18:269;-1.0534488;11.089942;-1.283292
11:54:18:269;-1.0534488;11.089942;-1.283292
11:54:18:269;-1.0534488;11.089942;-1.283292
11:54:18:269;-1.0534488;11.089942;-1.283292
11:54:18:269;-1.0534488;11.089942;-1.283292
11:54:18:269;-1.0534488;11.089942;-1.283292
11:54:18:269;-1.0534488;11.089942;-1.283292
11:54:18:269;-1.0534488;11.089942;-1.283292
11:54:18:389;-0.7086837;10.151415;-0.11492168
11:54:18:389;-0.7086837;10.151415;-0.11492168
11:54:18:389;-0.7086837;10.151415;-0.11492168
11:54:18:389;-0.7086837;10.151415;-0.11492168
11:54:18:389;-0.7086837;10.151415;-0.11492168
11:54:18:389;-0.7086837;10.151415;-0.11492168
11:54:18:389;-0.7086837;10.151415;-0.11492168
11:54:18:389;-0.7086837;10.151415;-0.11492168
11:54:18:389;-0.7086837;10.151415;-0.11492168
11:54:18:389;-0.7086837;10.151415;-0.11492168
11:54:18:389;-0.7086837;10.151415;-0.11492168
11:54:18:389;-0.7086837;10.151415;-0.11492168
11:54:18:389;-0.7086837;10.151415;-0.11492168
11:54:18:389;-0.7086837;10.151415;-0.11492168
11:54:18:389;-0.7086837;10.151415;-0.11492168
11:54:18:389;-0.7086837;10.151415;-0.11492168
11:54:18:389;-0.7086837;10.151415;-0.11492168
11:54:18:389;-0.7086837;10.151415;-0.11492168
11:54:18:524;-0.47884035;10.649409;-0.17238252
11:54:18:524;-0.47884035;10.649409;-0.17238252
11:54:18:524;-0.47884035;10.649409;-0.17238252
11:54:18:524;-0.47884035;10.649409;-0.17238252
11:54:18:524;-0.47884035;10.649409;-0.17238252
11:54:18:524;-0.47884035;10.649409;-0.17238252
11:54:18:524;-0.47884035;10.649409;-0.17238252
11:54:18:524;-0.47884035;10.649409;-0.17238252
11:54:18:524;-0.47884035;10.649409;-0.17238252
11:54:18:524;-0.47884035;10.649409;-0.17238252
11:54:18:524;-0.47884035;10.649409;-0.17238252
11:54:18:524;-0.47884035;10.649409;-0.17238252
11:54:18:524;-0.47884035;10.649409;-0.17238252
11:54:18:629;-0.5554548;10.745177;-0.5554548
11:54:18:629;-0.5554548;10.745177;-0.5554548
11:54:18:629;-0.5554548;10.745177;-0.5554548
11:54:18:629;-0.5554548;10.745177;-0.5554548
11:54:18:629;-0.5554548;10.745177;-0.5554548
11:54:18:629;-0.5554548;10.745177;-0.5554548
11:54:18:629;-0.5554548;10.745177;-0.5554548
11:54:18:629;-0.5554548;10.745177;-0.5554548
11:54:18:629;-0.5554548;10.745177;-0.5554548
11:54:18:629;-0.5554548;10.745177;-0.5554548
11:54:18:629;-0.5554548;10.745177;-0.5554548
11:54:18:629;-0.5554548;10.745177;-0.5554548
11:54:18:629;-0.5554548;10.745177;-0.5554548
11:54:18:629;-0.5554548;10.745177;-0.5554548
11:54:18:629;-0.5554548;10.745177;-0.5554548
11:54:18:750;-0.8619126;9.959879;-0.30645782
11:54:18:750;-0.8619126;9.959879;-0.30645782
11:54:18:750;-0.8619126;9.959879;-0.30645782
11:54:18:750;-0.8619126;9.959879;-0.30645782
11:54:18:750;-0.8619126;9.959879;-0.30645782
11:54:18:750;-0.8619126;9.959879;-0.30645782
11:54:18:750;-0.8619126;9.959879;-0.30645782
11:54:18:750;-0.8619126;9.959879;-0.30645782
11:54:18:750;-0.8619126;9.959879;-0.30645782
11:54:18:750;-0.8619126;9.959879;-0.30645782
11:54:18:750;-0.8619126;9.959879;-0.30645782
11:54:18:750;-0.8619126;9.959879;-0.30645782
11:54:18:750;-0.8619126;9.959879;-0.30645782
11:54:18:750;-0.8619126;9.959879;-0.30645782
11:54:18:750;-0.8619126;9.959879;-0.30645782
11:54:18:865;-1.2258313;9.710882;0.15322891
11:54:18:865;-1.2258313;9.710882;0.15322891
11:54:18:865;-1.2258313;9.710882;0.15322891
11:54:18:865;-1.2258313;9.710882;0.15322891
11:54:18:865;-1.2258313;9.710882;0.15322891
11:54:18:865;-1.2258313;9.710882;0.15322891
11:54:18:865;-1.2258313;9.710882;0.15322891
11:54:18:865;-1.2258313;9.710882;0.15322891
11:54:18:865;-1.2258313;9.710882;0.15322891
11:54:18:865;-1.2258313;9.710882;0.15322891
11:54:18:865;-1.2258313;9.710882;0.15322891
11:54:18:865;-1.2258313;9.710882;0.15322891
11:54:18:865;-1.2258313;9.710882;0.15322891
11:54:18:865;-1.2258313;9.710882;0.15322891
11:54:18:865;-1.2258313;9.710882;0.15322891
11:54:18:980;-1.5897499;10.802638;-0.11492168
11:54:18:980;-1.5897499;10.802638;-0.11492168
11:54:18:980;-1.5897499;10.802638;-0.11492168
11:54:18:980;-1.5897499;10.802638;-0.11492168
11:54:18:980;-1.5897499;10.802638;-0.11492168
11:54:18:980;-1.5897499;10.802638;-0.11492168
11:54:18:980;-1.5897499;10.802638;-0.11492168
11:54:18:980;-1.5897499;10.802638;-0.11492168
11:54:18:980;-1.5897499;10.802638;-0.11492168
11:54:18:980;-1.5897499;10.802638;-0.11492168
11:54:18:980;-1.5897499;10.802638;-0.11492168
11:54:18:980;-1.5897499;10.802638;-0.11492168
11:54:18:980;-1.5897499;10.802638;-0.11492168
11:54:18:980;-1.5897499;10.802638;-0.11492168
11:54:18:980;-1.5897499;10.802638;-0.11492168
11:54:18:980;-1.5897499;10.802638;-0.11492168
11:54:18:980;-1.5897499;10.802638;-0.11492168
11:54:18:980;-1.5897499;10.802638;-0.11492168
11:54:18:980;-1.5897499;10.802638;-0.11492168
11:54:18:980;-1.5897499;10.802638;-0.11492168
11:54:19:136;-1.1109096;9.557653;0.47884035
11:54:19:136;-1.1109096;9.557653;0.47884035
11:54:19:136;-1.1109096;9.557653;0.47884035
11:54:19:136;-1.1109096;9.557653;0.47884035
11:54:19:136;-1.1109096;9.557653;0.47884035
11:54:19:136;-1.1109096;9.557653;0.47884035
11:54:19:136;-1.1109096;9.557653;0.47884035
11:54:19:136;-1.1109096;9.557653;0.47884035
11:54:19:136;-1.1109096;9.557653;0.47884035
11:54:19:136;-1.1109096;9.557653;0.47884035
11:54:19:136;-1.1109096;9.557653;0.47884035
11:54:19:136;-1.1109096;9.557653;0.47884035
11:54:19:136;-1.1109096;9.557653;0.47884035
11:54:19:237;-0.8619126;9.442732;-0.038307227
11:54:19:237;-0.8619126;9.442732;-0.038307227
11:54:19:237;-0.8619126;9.442732;-0.038307227
11:54:19:237;-0.8619126;9.442732;-0.038307227
11:54:19:237;-0.8619126;9.442732;-0.038307227
11:54:19:237;-0.8619126;9.442732;-0.038307227
11:54:19:237;-0.8619126;9.442732;-0.038307227
11:54:19:237;-0.8619126;9.442732;-0.038307227
11:54:19:237;-0.8619126;9.442732;-0.038307227
11:54:19:237;-0.8619126;9.442732;-0.038307227
11:54:19:237;-0.8619126;9.442732;-0.038307227
11:54:19:237;-0.8619126;9.442732;-0.038307227
11:54:19:237;-0.8619126;9.442732;-0.038307227
11:54:19:237;-0.8619126;9.442732;-0.038307227
11:54:19:345;-0.5554548;10.189722;-0.38307226
11:54:19:345;-0.5554548;10.189722;-0.38307226
11:54:19:345;-0.5554548;10.189722;-0.38307226
11:54:19:345;-0.5554548;10.189722;-0.38307226
11:54:19:345;-0.5554548;10.189722;-0.38307226
11:54:19:345;-0.5554548;10.189722;-0.38307226
11:54:19:345;-0.5554548;10.189722;-0.38307226
11:54:19:345;-0.5554548;10.189722;-0.38307226
11:54:19:345;-0.5554548;10.189722;-0.38307226
11:54:19:345;-0.5554548;10.189722;-0.38307226
11:54:19:345;-0.5554548;10.189722;-0.38307226
11:54:19:345;-0.5554548;10.189722;-0.38307226
11:54:19:345;-0.5554548;10.189722;-0.38307226
11:54:19:345;-0.5554548;10.189722;-0.38307226
11:54:19:345;-0.5554548;10.189722;-0.38307226
11:54:19:463;-1.2066777;9.749189;0.4213795
11:54:19:463;-1.2066777;9.749189;0.4213795
11:54:19:463;-1.2066777;9.749189;0.4213795
11:54:19:463;-1.2066777;9.749189;0.4213795
11:54:19:463;-1.2066777;9.749189;0.4213795
11:54:19:463;-1.2066777;9.749189;0.4213795
11:54:19:463;-1.2066777;9.749189;0.4213795
11:54:19:463;-1.2066777;9.749189;0.4213795
11:54:19:463;-1.2066777;9.749189;0.4213795
11:54:19:463;-1.2066777;9.749189;0.4213795
11:54:19:463;-1.2066777;9.749189;0.4213795
11:54:19:463;-1.2066777;9.749189;0.4213795
11:54:19:463;-1.2066777;9.749189;0.4213795
11:54:19:463;-1.2066777;9.749189;0.4213795
11:54:19:463;-1.2066777;9.749189;0.4213795
11:54:19:463;-1.2066777;9.749189;0.4213795
11:54:19:463;-1.2066777;9.749189;0.4213795
11:54:19:463;-1.2066777;9.749189;0.4213795
11:54:19:603;-0.38307226;9.136273;0.49799395
11:54:19:603;-0.38307226;9.136273;0.49799395
11:54:19:603;-0.38307226;9.136273;0.49799395
11:54:19:603;-0.38307226;9.136273;0.49799395
11:54:19:603;-0.38307226;9.136273;0.49799395
11:54:19:603;-0.38307226;9.136273;0.49799395
11:54:19:603;-0.38307226;9.136273;0.49799395
11:54:19:603;-0.38307226;9.136273;0.49799395
11:54:19:603;-0.38307226;9.136273;0.49799395
11:54:19:603;-0.38307226;9.136273;0.49799395
11:54:19:603;-0.38307226;9.136273;0.49799395
11:54:19:603;-0.38307226;9.136273;0.49799395
11:54:19:603;-0.38307226;9.136273;0.49799395
11:54:19:603;-0.38307226;9.136273;0.49799395
11:54:19:603;-0.38307226;9.136273;0.49799395
11:54:19:603;-0.38307226;9.136273;0.49799395
11:54:19:603;-0.38307226;9.136273;0.49799395
11:54:19:603;-0.38307226;9.136273;0.49799395
11:54:19:603;-0.38307226;9.136273;0.49799395
11:54:19:603;-0.38307226;9.136273;0.49799395
11:54:19:603;-0.38307226;9.136273;0.49799395
11:54:19:603;-0.38307226;9.136273;0.49799395
11:54:19:603;-0.38307226;9.136273;0.49799395
11:54:19:789;0.17238252;10.266336;-0.30645782
11:54:19:789;0.17238252;10.266336;-0.30645782
11:54:19:789;0.17238252;10.266336;-0.30645782
11:54:19:789;0.17238252;10.266336;-0.30645782
11:54:19:789;0.17238252;10.266336;-0.30645782
11:54:19:789;0.17238252;10.266336;-0.30645782
11:54:19:789;0.17238252;10.266336;-0.30645782
11:54:19:789;0.17238252;10.266336;-0.30645782
11:54:19:789;0.17238252;10.266336;-0.30645782
11:54:19:789;0.17238252;10.266336;-0.30645782
11:54:19:789;0.17238252;10.266336;-0.30645782
11:54:19:789;0.17238252;10.266336;-0.30645782
11:54:19:789;0.17238252;10.266336;-0.30645782
11:54:19:789;0.17238252;10.266336;-0.30645782
11:54:19:789;0.17238252;10.266336;-0.30645782
11:54:19:901;-0.59376204;10.572795;-0.076614454
11:54:19:901;-0.59376204;10.572795;-0.076614454
11:54:19:901;-0.59376204;10.572795;-0.076614454
11:54:19:901;-0.59376204;10.572795;-0.076614454
11:54:19:901;-0.59376204;10.572795;-0.076614454
11:54:19:901;-0.59376204;10.572795;-0.076614454
11:54:19:901;-0.59376204;10.572795;-0.076614454
11:54:19:901;-0.59376204;10.572795;-0.076614454
11:54:19:901;-0.59376204;10.572795;-0.076614454
11:54:19:901;-0.59376204;10.572795;-0.076614454
11:54:19:901;-0.59376204;10.572795;-0.076614454
11:54:19:901;-0.59376204;10.572795;-0.076614454
11:54:19:901;-0.59376204;10.572795;-0.076614454
11:54:19:901;-0.59376204;10.572795;-0.076614454
11:54:19:901;-0.59376204;10.572795;-0.076614454
11:54:19:901;-0.59376204;10.572795;-0.076614454
11:54:19:901;-0.59376204;10.572795;-0.076614454
11:54:19:901;-0.59376204;10.572795;-0.076614454
11:54:20:046;-0.6703765;9.576807;0.2873042
11:54:20:046;-0.6703765;9.576807;0.2873042
11:54:20:046;-0.6703765;9.576807;0.2873042
11:54:20:046;-0.6703765;9.576807;0.2873042
11:54:20:046;-0.6703765;9.576807;0.2873042
11:54:20:046;-0.6703765;9.576807;0.2873042
11:54:20:046;-0.6703765;9.576807;0.2873042
11:54:20:046;-0.6703765;9.576807;0.2873042
11:54:20:046;-0.6703765;9.576807;0.2873042
11:54:20:046;-0.6703765;9.576807;0.2873042
11:54:20:046;-0.6703765;9.576807;0.2873042
11:54:20:046;-0.6703765;9.576807;0.2873042
11:54:20:046;-0.6703765;9.576807;0.2873042
11:54:20:046;-0.6703765;9.576807;0.2873042
11:54:20:046;-0.6703765;9.576807;0.2873042
11:54:20:160;-0.8810662;10.113108;-0.45968673
11:54:20:160;-0.8810662;10.113108;-0.45968673
11:54:20:160;-0.8810662;10.113108;-0.45968673
11:54:20:160;-0.8810662;10.113108;-0.45968673
11:54:20:160;-0.8810662;10.113108;-0.45968673
11:54:20:160;-0.8810662;10.113108;-0.45968673
11:54:20:160;-0.8810662;10.113108;-0.45968673
11:54:20:160;-0.8810662;10.113108;-0.45968673
11:54:20:160;-0.8810662;10.113108;-0.45968673
11:54:20:160;-0.8810662;10.113108;-0.45968673
11:54:20:160;-0.8810662;10.113108;-0.45968673
11:54:20:160;-0.8810662;10.113108;-0.45968673
11:54:20:160;-0.8810662;10.113108;-0.45968673
11:54:20:160;-0.8810662;10.113108;-0.45968673
11:54:20:160;-0.8810662;10.113108;-0.45968673
11:54:20:281;-0.45968673;9.768343;-0.5746084
11:54:20:281;-0.45968673;9.768343;-0.5746084
11:54:20:281;-0.45968673;9.768343;-0.5746084
11:54:20:281;-0.45968673;9.768343;-0.5746084
11:54:20:281;-0.45968673;9.768343;-0.5746084
11:54:20:281;-0.45968673;9.768343;-0.5746084
11:54:20:281;-0.45968673;9.768343;-0.5746084
11:54:20:281;-0.45968673;9.768343;-0.5746084
11:54:20:281;-0.45968673;9.768343;-0.5746084
11:54:20:281;-0.45968673;9.768343;-0.5746084
11:54:20:281;-0.45968673;9.768343;-0.5746084
11:54:20:281;-0.45968673;9.768343;-0.5746084
11:54:20:281;-0.45968673;9.768343;-0.5746084
11:54:20:281;-0.45968673;9.768343;-0.5746084
11:54:20:383;-0.51714754;9.9790325;0.4405331
11:54:20:383;-0.51714754;9.9790325;0.4405331
11:54:20:383;-0.51714754;9.9790325;0.4405331
11:54:20:383;-0.51714754;9.9790325;0.4405331
11:54:20:383;-0.51714754;9.9790325;0.4405331
11:54:20:383;-0.51714754;9.9790325;0.4405331
11:54:20:383;-0.51714754;9.9790325;0.4405331
11:54:20:383;-0.51714754;9.9790325;0.4405331
11:54:20:383;-0.51714754;9.9790325;0.4405331
11:54:20:383;-0.51714754;9.9790325;0.4405331
11:54:20:383;-0.51714754;9.9790325;0.4405331
11:54:20:383;-0.51714754;9.9790325;0.4405331
11:54:20:484;-0.91937345;10.28549;-0.1340753
11:54:20:484;-0.91937345;10.28549;-0.1340753
11:54:20:484;-0.91937345;10.28549;-0.1340753
11:54:20:484;-0.91937345;10.28549;-0.1340753
11:54:20:484;-0.91937345;10.28549;-0.1340753
11:54:20:484;-0.91937345;10.28549;-0.1340753
11:54:20:484;-0.91937345;10.28549;-0.1340753
11:54:20:484;-0.91937345;10.28549;-0.1340753
11:54:20:484;-0.91937345;10.28549;-0.1340753
11:54:20:484;-0.91937345;10.28549;-0.1340753
11:54:20:484;-0.91937345;10.28549;-0.1340753
11:54:20:484;-0.91937345;10.28549;-0.1340753
11:54:20:484;-0.91937345;10.28549;-0.1340753
11:54:20:585;0.21068975;9.9790325;-0.095768064
11:54:20:585;0.21068975;9.9790325;-0.095768064
11:54:20:585;0.21068975;9.9790325;-0.095768064
11:54:20:585;0.21068975;9.9790325;-0.095768064
11:54:20:585;0.21068975;9.9790325;-0.095768064
11:54:20:585;0.21068975;9.9790325;-0.095768064
11:54:20:585;0.21068975;9.9790325;-0.095768064
11:54:20:585;0.21068975;9.9790325;-0.095768064
11:54:20:585;0.21068975;9.9790325;-0.095768064
11:54:20:585;0.21068975;9.9790325;-0.095768064
11:54:20:585;0.21068975;9.9790325;-0.095768064
11:54:20:585;0.21068975;9.9790325;-0.095768064
11:54:20:585;0.21068975;9.9790325;-0.095768064
11:54:20:585;0.21068975;9.9790325;-0.095768064
11:54:20:585;0.21068975;9.9790325;-0.095768064
11:54:20:696;0.019153614;10.093954;0.038307227
11:54:20:696;0.019153614;10.093954;0.038307227
11:54:20:696;0.019153614;10.093954;0.038307227
11:54:20:696;0.019153614;10.093954;0.038307227
11:54:20:696;0.019153614;10.093954;0.038307227
11:54:20:696;0.019153614;10.093954;0.038307227
11:54:20:696;0.019153614;10.093954;0.038307227
11:54:20:696;0.019153614;10.093954;0.038307227
11:54:20:696;0.019153614;10.093954;0.038307227
11:54:20:696;0.019153614;10.093954;0.038307227
11:54:20:696;0.019153614;10.093954;0.038307227
11:54:20:696;0.019153614;10.093954;0.038307227
11:54:20:696;0.019153614;10.093954;0.038307227
11:54:20:696;0.019153614;10.093954;0.038307227
11:54:20:809;-0.51714754;9.9790325;0.7661445
11:54:20:809;-0.51714754;9.9790325;0.7661445
11:54:20:809;-0.51714754;9.9790325;0.7661445
11:54:20:809;-0.51714754;9.9790325;0.7661445
11:54:20:809;-0.51714754;9.9790325;0.7661445
11:54:20:809;-0.51714754;9.9790325;0.7661445
11:54:20:809;-0.51714754;9.9790325;0.7661445
11:54:20:809;-0.51714754;9.9790325;0.7661445
11:54:20:809;-0.51714754;9.9790325;0.7661445
11:54:20:809;-0.51714754;9.9790325;0.7661445
11:54:20:809;-0.51714754;9.9790325;0.7661445
11:54:20:809;-0.51714754;9.9790325;0.7661445
11:54:20:809;-0.51714754;9.9790325;0.7661445
11:54:20:809;-0.51714754;9.9790325;0.7661445
11:54:20:809;-0.51714754;9.9790325;0.7661445
11:54:20:927;-0.842759;9.461885;0.05746084
11:54:20:927;-0.842759;9.461885;0.05746084
11:54:20:927;-0.842759;9.461885;0.05746084
11:54:20:927;-0.842759;9.461885;0.05746084
11:54:20:927;-0.842759;9.461885;0.05746084
11:54:20:927;-0.842759;9.461885;0.05746084
11:54:20:927;-0.842759;9.461885;0.05746084
11:54:20:927;-0.842759;9.461885;0.05746084
11:54:20:927;-0.842759;9.461885;0.05746084
11:54:20:927;-0.842759;9.461885;0.05746084
11:54:20:927;-0.842759;9.461885;0.05746084
11:54:20:927;-0.842759;9.461885;0.05746084
11:54:20:927;-0.842759;9.461885;0.05746084
11:54:20:927;-0.842759;9.461885;0.05746084
11:54:20:927;-0.842759;9.461885;0.05746084
11:54:21:045;-0.1340753;9.998186;0.7661445
11:54:21:045;-0.1340753;9.998186;0.7661445
11:54:21:045;-0.1340753;9.998186;0.7661445
11:54:21:045;-0.1340753;9.998186;0.7661445
11:54:21:045;-0.1340753;9.998186;0.7661445
11:54:21:045;-0.1340753;9.998186;0.7661445
11:54:21:045;-0.1340753;9.998186;0.7661445
11:54:21:045;-0.1340753;9.998186;0.7661445
11:54:21:045;-0.1340753;9.998186;0.7661445
11:54:21:045;-0.1340753;9.998186;0.7661445
11:54:21:045;-0.1340753;9.998186;0.7661445
11:54:21:045;-0.1340753;9.998186;0.7661445
11:54:21:045;-0.1340753;9.998186;0.7661445
11:54:21:045;-0.1340753;9.998186;0.7661445
11:54:21:045;-0.1340753;9.998186;0.7661445
11:54:21:045;-0.1340753;9.998186;0.7661445
11:54:21:045;-0.1340753;9.998186;0.7661445
11:54:21:045;-0.1340753;9.998186;0.7661445
11:54:21:180;-0.9768343;10.515334;0.22984336
11:54:21:180;-0.9768343;10.515334;0.22984336
11:54:21:180;-0.9768343;10.515334;0.22984336
11:54:21:180;-0.9768343;10.515334;0.22984336
11:54:21:180;-0.9768343;10.515334;0.22984336
11:54:21:180;-0.9768343;10.515334;0.22984336
11:54:21:180;-0.9768343;10.515334;0.22984336
11:54:21:180;-0.9768343;10.515334;0.22984336
11:54:21:180;-0.9768343;10.515334;0.22984336
11:54:21:180;-0.9768343;10.515334;0.22984336
11:54:21:180;-0.9768343;10.515334;0.22984336
11:54:21:180;-0.9768343;10.515334;0.22984336
11:54:21:180;-0.9768343;10.515334;0.22984336
11:54:21:180;-0.9768343;10.515334;0.22984336
11:54:21:293;-0.7469909;9.921572;0.24899697
11:54:21:293;-0.7469909;9.921572;0.24899697
11:54:21:293;-0.7469909;9.921572;0.24899697
11:54:21:293;-0.7469909;9.921572;0.24899697
11:54:21:293;-0.7469909;9.921572;0.24899697
11:54:21:293;-0.7469909;9.921572;0.24899697
11:54:21:293;-0.7469909;9.921572;0.24899697
11:54:21:293;-0.7469909;9.921572;0.24899697
11:54:21:293;-0.7469909;9.921572;0.24899697
11:54:21:293;-0.7469909;9.921572;0.24899697
11:54:21:293;-0.7469909;9.921572;0.24899697
11:54:21:293;-0.7469909;9.921572;0.24899697
11:54:21:293;-0.7469909;9.921572;0.24899697
11:54:21:293;-0.7469909;9.921572;0.24899697
11:54:21:293;-0.7469909;9.921572;0.24899697
11:54:21:410;-0.15322891;9.844957;-0.17238252
11:54:21:410;-0.15322891;9.844957;-0.17238252
11:54:21:410;-0.15322891;9.844957;-0.17238252
11:54:21:410;-0.15322891;9.844957;-0.17238252
11:54:21:410;-0.15322891;9.844957;-0.17238252
11:54:21:410;-0.15322891;9.844957;-0.17238252
11:54:21:410;-0.15322891;9.844957;-0.17238252
11:54:21:410;-0.15322891;9.844957;-0.17238252
11:54:21:410;-0.15322891;9.844957;-0.17238252
11:54:21:410;-0.15322891;9.844957;-0.17238252
11:54:21:410;-0.15322891;9.844957;-0.17238252
11:54:21:410;-0.15322891;9.844957;-0.17238252
11:54:21:410;-0.15322891;9.844957;-0.17238252
11:54:21:410;-0.15322891;9.844957;-0.17238252
11:54:21:410;-0.15322891;9.844957;-0.17238252
11:54:21:530;-0.5363012;10.093954;0.5746084
11:54:21:530;-0.5363012;10.093954;0.5746084
11:54:21:530;-0.5363012;10.093954;0.5746084
11:54:21:530;-0.5363012;10.093954;0.5746084
11:54:21:530;-0.5363012;10.093954;0.5746084
11:54:21:530;-0.5363012;10.093954;0.5746084
11:54:21:530;-0.5363012;10.093954;0.5746084
11:54:21:530;-0.5363012;10.093954;0.5746084
11:54:21:530;-0.5363012;10.093954;0.5746084
11:54:21:530;-0.5363012;10.093954;0.5746084
11:54:21:530;-0.5363012;10.093954;0.5746084
11:54:21:530;-0.5363012;10.093954;0.5746084
11:54:21:530;-0.5363012;10.093954;0.5746084
11:54:21:530;-0.5363012;10.093954;0.5746084
11:54:21:530;-0.5363012;10.093954;0.5746084
11:54:21:648;-0.7661445;9.730036;0.45968673
11:54:21:648;-0.7661445;9.730036;0.45968673
11:54:21:648;-0.7661445;9.730036;0.45968673
11:54:21:648;-0.7661445;9.730036;0.45968673
11:54:21:648;-0.7661445;9.730036;0.45968673
11:54:21:648;-0.7661445;9.730036;0.45968673
11:54:21:648;-0.7661445;9.730036;0.45968673
11:54:21:648;-0.7661445;9.730036;0.45968673
11:54:21:648;-0.7661445;9.730036;0.45968673
11:54:21:648;-0.7661445;9.730036;0.45968673
11:54:21:648;-0.7661445;9.730036;0.45968673
11:54:21:648;-0.7661445;9.730036;0.45968673
11:54:21:648;-0.7661445;9.730036;0.45968673
11:54:21:750;-1.091756;9.5385;0.63206923
11:54:21:750;-1.091756;9.5385;0.63206923
11:54:21:750;-1.091756;9.5385;0.63206923
11:54:21:750;-1.091756;9.5385;0.63206923
11:54:21:750;-1.091756;9.5385;0.63206923
11:54:21:750;-1.091756;9.5385;0.63206923
11:54:21:750;-1.091756;9.5385;0.63206923
11:54:21:750;-1.091756;9.5385;0.63206923
11:54:21:750;-1.091756;9.5385;0.63206923
11:54:21:750;-1.091756;9.5385;0.63206923
11:54:21:750;-1.091756;9.5385;0.63206923
11:54:21:750;-1.091756;9.5385;0.63206923
11:54:21:750;-1.091756;9.5385;0.63206923
11:54:21:750;-1.091756;9.5385;0.63206923
11:54:21:750;-1.091756;9.5385;0.63206923
11:54:21:750;-1.091756;9.5385;0.63206923
11:54:21:869;-0.63206923;10.0748005;0.38307226
11:54:21:869;-0.63206923;10.0748005;0.38307226
11:54:21:869;-0.63206923;10.0748005;0.38307226
11:54:21:869;-0.63206923;10.0748005;0.38307226
11:54:21:869;-0.63206923;10.0748005;0.38307226
11:54:21:869;-0.63206923;10.0748005;0.38307226
11:54:21:869;-0.63206923;10.0748005;0.38307226
11:54:21:869;-0.63206923;10.0748005;0.38307226
11:54:21:869;-0.63206923;10.0748005;0.38307226
11:54:21:869;-0.63206923;10.0748005;0.38307226
11:54:21:869;-0.63206923;10.0748005;0.38307226
11:54:21:869;-0.63206923;10.0748005;0.38307226
11:54:21:869;-0.63206923;10.0748005;0.38307226
11:54:21:972;-0.82360536;10.247183;-0.15322891
11:54:21:972;-0.82360536;10.247183;-0.15322891
11:54:21:972;-0.82360536;10.247183;-0.15322891
11:54:21:972;-0.82360536;10.247183;-0.15322891
11:54:21:972;-0.82360536;10.247183;-0.15322891
11:54:21:972;-0.82360536;10.247183;-0.15322891
11:54:21:972;-0.82360536;10.247183;-0.15322891
11:54:21:972;-0.82360536;10.247183;-0.15322891
11:54:21:972;-0.82360536;10.247183;-0.15322891
11:54:21:972;-0.82360536;10.247183;-0.15322891
11:54:21:972;-0.82360536;10.247183;-0.15322891
11:54:21:972;-0.82360536;10.247183;-0.15322891
11:54:21:972;-0.82360536;10.247183;-0.15322891
11:54:22:078;-0.49799395;10.151415;0.36391866
11:54:22:078;-0.49799395;10.151415;0.36391866
11:54:22:078;-0.49799395;10.151415;0.36391866
11:54:22:078;-0.49799395;10.151415;0.36391866
11:54:22:078;-0.49799395;10.151415;0.36391866
11:54:22:078;-0.49799395;10.151415;0.36391866
11:54:22:078;-0.49799395;10.151415;0.36391866
11:54:22:078;-0.49799395;10.151415;0.36391866
11:54:22:078;-0.49799395;10.151415;0.36391866
11:54:22:078;-0.49799395;10.151415;0.36391866
11:54:22:078;-0.49799395;10.151415;0.36391866
11:54:22:078;-0.49799395;10.151415;0.36391866
11:54:22:078;-0.49799395;10.151415;0.36391866
11:54:22:078;-0.49799395;10.151415;0.36391866
11:54:22:078;-0.49799395;10.151415;0.36391866
11:54:22:078;-0.49799395;10.151415;0.36391866
11:54:22:197;-0.59376204;10.208876;-0.32561144
11:54:22:197;-0.59376204;10.208876;-0.32561144
11:54:22:197;-0.59376204;10.208876;-0.32561144
11:54:22:197;-0.59376204;10.208876;-0.32561144
11:54:22:197;-0.59376204;10.208876;-0.32561144
11:54:22:197;-0.59376204;10.208876;-0.32561144
11:54:22:197;-0.59376204;10.208876;-0.32561144
11:54:22:197;-0.59376204;10.208876;-0.32561144
11:54:22:197;-0.59376204;10.208876;-0.32561144
11:54:22:197;-0.59376204;10.208876;-0.32561144
11:54:22:197;-0.59376204;10.208876;-0.32561144
11:54:22:197;-0.59376204;10.208876;-0.32561144
11:54:22:197;-0.59376204;10.208876;-0.32561144
11:54:22:301;-0.40222588;10.840945;-0.5554548
11:54:22:301;-0.40222588;10.840945;-0.5554548
11:54:22:301;-0.40222588;10.840945;-0.5554548
11:54:22:301;-0.40222588;10.840945;-0.5554548
11:54:22:301;-0.40222588;10.840945;-0.5554548
11:54:22:301;-0.40222588;10.840945;-0.5554548
11:54:22:301;-0.40222588;10.840945;-0.5554548
11:54:22:301;-0.40222588;10.840945;-0.5554548
11:54:22:301;-0.40222588;10.840945;-0.5554548
11:54:22:301;-0.40222588;10.840945;-0.5554548
11:54:22:301;-0.40222588;10.840945;-0.5554548
11:54:22:301;-0.40222588;10.840945;-0.5554548
11:54:22:301;-0.40222588;10.840945;-0.5554548
11:54:22:301;-0.40222588;10.840945;-0.5554548
11:54:22:301;-0.40222588;10.840945;-0.5554548
11:54:22:419;-0.6703765;9.232041;0.2681506
11:54:22:419;-0.6703765;9.232041;0.2681506
11:54:22:419;-0.6703765;9.232041;0.2681506
11:54:22:419;-0.6703765;9.232041;0.2681506
11:54:22:419;-0.6703765;9.232041;0.2681506
11:54:22:419;-0.6703765;9.232041;0.2681506
11:54:22:419;-0.6703765;9.232041;0.2681506
11:54:22:419;-0.6703765;9.232041;0.2681506
11:54:22:419;-0.6703765;9.232041;0.2681506
11:54:22:419;-0.6703765;9.232041;0.2681506
11:54:22:419;-0.6703765;9.232041;0.2681506
11:54:22:419;-0.6703765;9.232041;0.2681506
11:54:22:419;-0.6703765;9.232041;0.2681506
11:54:22:419;-0.6703765;9.232041;0.2681506
11:54:22:419;-0.6703765;9.232041;0.2681506
11:54:22:537;-0.6703765;10.70687;0.1340753
11:54:22:537;-0.6703765;10.70687;0.1340753
11:54:22:537;-0.6703765;10.70687;0.1340753
11:54:22:537;-0.6703765;10.70687;0.1340753
11:54:22:537;-0.6703765;10.70687;0.1340753
11:54:22:537;-0.6703765;10.70687;0.1340753
11:54:22:537;-0.6703765;10.70687;0.1340753
11:54:22:537;-0.6703765;10.70687;0.1340753
11:54:22:537;-0.6703765;10.70687;0.1340753
11:54:22:537;-0.6703765;10.70687;0.1340753
11:54:22:537;-0.6703765;10.70687;0.1340753
11:54:22:537;-0.6703765;10.70687;0.1340753
11:54:22:537;-0.6703765;10.70687;0.1340753
11:54:22:537;-0.6703765;10.70687;0.1340753
11:54:22:537;-0.6703765;10.70687;0.1340753
11:54:22:537;-0.6703765;10.70687;0.1340753
11:54:22:659;-0.38307226;10.381259;-0.7661445
11:54:22:659;-0.38307226;10.381259;-0.7661445
11:54:22:659;-0.38307226;10.381259;-0.7661445
11:54:22:659;-0.38307226;10.381259;-0.7661445
11:54:22:659;-0.38307226;10.381259;-0.7661445
11:54:22:659;-0.38307226;10.381259;-0.7661445
11:54:22:659;-0.38307226;10.381259;-0.7661445
11:54:22:659;-0.38307226;10.381259;-0.7661445
11:54:22:659;-0.38307226;10.381259;-0.7661445
11:54:22:659;-0.38307226;10.381259;-0.7661445
11:54:22:659;-0.38307226;10.381259;-0.7661445
11:54:22:659;-0.38307226;10.381259;-0.7661445
11:54:22:659;-0.38307226;10.381259;-0.7661445
11:54:22:759;-0.59376204;10.01734;0.34476504
11:54:22:759;-0.59376204;10.01734;0.34476504
11:54:22:759;-0.59376204;10.01734;0.34476504
11:54:22:759;-0.59376204;10.01734;0.34476504
11:54:22:759;-0.59376204;10.01734;0.34476504
11:54:22:759;-0.59376204;10.01734;0.34476504
11:54:22:759;-0.59376204;10.01734;0.34476504
11:54:22:759;-0.59376204;10.01734;0.34476504
11:54:22:759;-0.59376204;10.01734;0.34476504
11:54:22:759;-0.59376204;10.01734;0.34476504
11:54:22:759;-0.59376204;10.01734;0.34476504
11:54:22:759;-0.59376204;10.01734;0.34476504
11:54:22:759;-0.59376204;10.01734;0.34476504
11:54:22:862;-1.091756;9.787497;0.2681506
11:54:22:862;-1.091756;9.787497;0.2681506
11:54:22:862;-1.091756;9.787497;0.2681506
11:54:22:862;-1.091756;9.787497;0.2681506
11:54:22:862;-1.091756;9.787497;0.2681506
11:54:22:862;-1.091756;9.787497;0.2681506
11:54:22:862;-1.091756;9.787497;0.2681506
11:54:22:862;-1.091756;9.787497;0.2681506
11:54:22:862;-1.091756;9.787497;0.2681506
11:54:22:862;-1.091756;9.787497;0.2681506
11:54:22:862;-1.091756;9.787497;0.2681506
11:54:22:862;-1.091756;9.787497;0.2681506
11:54:22:862;-1.091756;9.787497;0.2681506
11:54:22:963;-1.0342951;10.055647;-0.40222588
11:54:22:963;-1.0342951;10.055647;-0.40222588
11:54:22:963;-1.0342951;10.055647;-0.40222588
11:54:22:963;-1.0342951;10.055647;-0.40222588
11:54:22:963;-1.0342951;10.055647;-0.40222588
11:54:22:963;-1.0342951;10.055647;-0.40222588
11:54:22:963;-1.0342951;10.055647;-0.40222588
11:54:22:963;-1.0342951;10.055647;-0.40222588
11:54:22:963;-1.0342951;10.055647;-0.40222588
11:54:22:963;-1.0342951;10.055647;-0.40222588
11:54:22:963;-1.0342951;10.055647;-0.40222588
11:54:22:963;-1.0342951;10.055647;-0.40222588
11:54:22:963;-1.0342951;10.055647;-0.40222588
11:54:22:963;-1.0342951;10.055647;-0.40222588
11:54:22:963;-1.0342951;10.055647;-0.40222588
11:54:22:963;-1.0342951;10.055647;-0.40222588
11:54:23:093;-0.47884035;10.649409;-0.2681506
11:54:23:093;-0.47884035;10.649409;-0.2681506
11:54:23:093;-0.47884035;10.649409;-0.2681506
11:54:23:093;-0.47884035;10.649409;-0.2681506
11:54:23:093;-0.47884035;10.649409;-0.2681506
11:54:23:093;-0.47884035;10.649409;-0.2681506
11:54:23:093;-0.47884035;10.649409;-0.2681506
11:54:23:093;-0.47884035;10.649409;-0.2681506
11:54:23:093;-0.47884035;10.649409;-0.2681506
11:54:23:093;-0.47884035;10.649409;-0.2681506
11:54:23:093;-0.47884035;10.649409;-0.2681506
11:54:23:093;-0.47884035;10.649409;-0.2681506
11:54:23:093;-0.47884035;10.649409;-0.2681506
11:54:23:093;-0.47884035;10.649409;-0.2681506
11:54:23:093;-0.47884035;10.649409;-0.2681506
11:54:23:093;-0.47884035;10.649409;-0.2681506
11:54:23:211;-0.2681506;10.228029;-0.2681506
11:54:23:211;-0.2681506;10.228029;-0.2681506
11:54:23:211;-0.2681506;10.228029;-0.2681506
11:54:23:211;-0.2681506;10.228029;-0.2681506
11:54:23:211;-0.2681506;10.228029;-0.2681506
11:54:23:211;-0.2681506;10.228029;-0.2681506
11:54:23:211;-0.2681506;10.228029;-0.2681506
11:54:23:211;-0.2681506;10.228029;-0.2681506
11:54:23:211;-0.2681506;10.228029;-0.2681506
11:54:23:211;-0.2681506;10.228029;-0.2681506
11:54:23:211;-0.2681506;10.228029;-0.2681506
11:54:23:211;-0.2681506;10.228029;-0.2681506
11:54:23:211;-0.2681506;10.228029;-0.2681506
11:54:23:211;-0.2681506;10.228029;-0.2681506
11:54:23:322;-0.17238252;10.113108;-0.038307227
11:54:23:322;-0.17238252;10.113108;-0.038307227
11:54:23:322;-0.17238252;10.113108;-0.038307227
11:54:23:322;-0.17238252;10.113108;-0.038307227
11:54:23:322;-0.17238252;10.113108;-0.038307227
11:54:23:322;-0.17238252;10.113108;-0.038307227
11:54:23:322;-0.17238252;10.113108;-0.038307227
11:54:23:322;-0.17238252;10.113108;-0.038307227
11:54:23:322;-0.17238252;10.113108;-0.038307227
11:54:23:322;-0.17238252;10.113108;-0.038307227
11:54:23:322;-0.17238252;10.113108;-0.038307227
11:54:23:322;-0.17238252;10.113108;-0.038307227
11:54:23:322;-0.17238252;10.113108;-0.038307227
11:54:23:322;-0.17238252;10.113108;-0.038307227
11:54:23:431;-0.80445176;10.170568;-0.15322891
11:54:23:431;-0.80445176;10.170568;-0.15322891
11:54:23:431;-0.80445176;10.170568;-0.15322891
11:54:23:431;-0.80445176;10.170568;-0.15322891
11:54:23:431;-0.80445176;10.170568;-0.15322891
11:54:23:431;-0.80445176;10.170568;-0.15322891
11:54:23:431;-0.80445176;10.170568;-0.15322891
11:54:23:431;-0.80445176;10.170568;-0.15322891
11:54:23:431;-0.80445176;10.170568;-0.15322891
11:54:23:431;-0.80445176;10.170568;-0.15322891
11:54:23:431;-0.80445176;10.170568;-0.15322891
11:54:23:431;-0.80445176;10.170568;-0.15322891
11:54:23:431;-0.80445176;10.170568;-0.15322891
11:54:23:533;-0.11492168;9.423578;-0.2873042
11:54:23:533;-0.11492168;9.423578;-0.2873042
11:54:23:533;-0.11492168;9.423578;-0.2873042
11:54:23:533;-0.11492168;9.423578;-0.2873042
11:54:23:533;-0.11492168;9.423578;-0.2873042
11:54:23:533;-0.11492168;9.423578;-0.2873042
11:54:23:533;-0.11492168;9.423578;-0.2873042
11:54:23:533;-0.11492168;9.423578;-0.2873042
11:54:23:533;-0.11492168;9.423578;-0.2873042
11:54:23:533;-0.11492168;9.423578;-0.2873042
11:54:23:533;-0.11492168;9.423578;-0.2873042
11:54:23:533;-0.11492168;9.423578;-0.2873042
11:54:23:533;-0.11492168;9.423578;-0.2873042
11:54:23:533;-0.11492168;9.423578;-0.2873042
11:54:23:646;-0.61291564;10.362105;-0.47884035
11:54:23:646;-0.61291564;10.362105;-0.47884035
11:54:23:646;-0.61291564;10.362105;-0.47884035
11:54:23:646;-0.61291564;10.362105;-0.47884035
11:54:23:646;-0.61291564;10.362105;-0.47884035
11:54:23:646;-0.61291564;10.362105;-0.47884035
11:54:23:646;-0.61291564;10.362105;-0.47884035
11:54:23:646;-0.61291564;10.362105;-0.47884035
11:54:23:646;-0.61291564;10.362105;-0.47884035
11:54:23:646;-0.61291564;10.362105;-0.47884035
11:54:23:646;-0.61291564;10.362105;-0.47884035
11:54:23:646;-0.61291564;10.362105;-0.47884035
11:54:23:646;-0.61291564;10.362105;-0.47884035
11:54:23:646;-0.61291564;10.362105;-0.47884035
11:54:23:646;-0.61291564;10.362105;-0.47884035
11:54:23:646;-0.61291564;10.362105;-0.47884035
11:54:23:766;-0.19153613;10.5919485;-0.24899697
11:54:23:766;-0.19153613;10.5919485;-0.24899697
11:54:23:766;-0.19153613;10.5919485;-0.24899697
11:54:23:766;-0.19153613;10.5919485;-0.24899697
11:54:23:766;-0.19153613;10.5919485;-0.24899697
11:54:23:766;-0.19153613;10.5919485;-0.24899697
11:54:23:766;-0.19153613;10.5919485;-0.24899697
11:54:23:766;-0.19153613;10.5919485;-0.24899697
11:54:23:766;-0.19153613;10.5919485;-0.24899697
11:54:23:766;-0.19153613;10.5919485;-0.24899697
11:54:23:766;-0.19153613;10.5919485;-0.24899697
11:54:23:766;-0.19153613;10.5919485;-0.24899697
11:54:23:766;-0.19153613;10.5919485;-0.24899697
11:54:23:868;-1.1492168;10.266336;-0.17238252
11:54:23:868;-1.1492168;10.266336;-0.17238252
11:54:23:868;-1.1492168;10.266336;-0.17238252
11:54:23:868;-1.1492168;10.266336;-0.17238252
11:54:23:868;-1.1492168;10.266336;-0.17238252
11:54:23:868;-1.1492168;10.266336;-0.17238252
11:54:23:868;-1.1492168;10.266336;-0.17238252
11:54:23:868;-1.1492168;10.266336;-0.17238252
11:54:23:868;-1.1492168;10.266336;-0.17238252
11:54:23:868;-1.1492168;10.266336;-0.17238252
11:54:23:868;-1.1492168;10.266336;-0.17238252
11:54:23:868;-1.1492168;10.266336;-0.17238252
11:54:23:868;-1.1492168;10.266336;-0.17238252
11:54:23:868;-1.1492168;10.266336;-0.17238252
11:54:23:868;-1.1492168;10.266336;-0.17238252
11:54:23:868;-1.1492168;10.266336;-0.17238252
11:54:23:868;-1.1492168;10.266336;-0.17238252
11:54:23:868;-1.1492168;10.266336;-0.17238252
11:54:23:868;-1.1492168;10.266336;-0.17238252
11:54:24:019;-0.7278373;10.342952;-0.05746084
11:54:24:019;-0.7278373;10.342952;-0.05746084
11:54:24:019;-0.7278373;10.342952;-0.05746084
11:54:24:019;-0.7278373;10.342952;-0.05746084
11:54:24:019;-0.7278373;10.342952;-0.05746084
11:54:24:019;-0.7278373;10.342952;-0.05746084
11:54:24:019;-0.7278373;10.342952;-0.05746084
11:54:24:019;-0.7278373;10.342952;-0.05746084
11:54:24:019;-0.7278373;10.342952;-0.05746084
11:54:24:019;-0.7278373;10.342952;-0.05746084
11:54:24:019;-0.7278373;10.342952;-0.05746084
11:54:24:019;-0.7278373;10.342952;-0.05746084
11:54:24:019;-0.7278373;10.342952;-0.05746084
11:54:24:019;-0.7278373;10.342952;-0.05746084
11:54:24:019;-0.7278373;10.342952;-0.05746084
11:54:24:019;-0.7278373;10.342952;-0.05746084
11:54:24:019;-0.7278373;10.342952;-0.05746084
11:54:24:019;-0.7278373;10.342952;-0.05746084
11:54:24:019;-0.7278373;10.342952;-0.05746084
11:54:24:019;-0.7278373;10.342952;-0.05746084
11:54:24:019;-0.7278373;10.342952;-0.05746084
11:54:24:185;-0.22984336;9.787497;0.21068975
11:54:24:185;-0.22984336;9.787497;0.21068975
11:54:24:185;-0.22984336;9.787497;0.21068975
11:54:24:185;-0.22984336;9.787497;0.21068975
11:54:24:185;-0.22984336;9.787497;0.21068975
11:54:24:185;-0.22984336;9.787497;0.21068975
11:54:24:185;-0.22984336;9.787497;0.21068975
