Time_Accel;AccelX;AccelY;AccelZ
10:00:23:177;1.2641385;10.5919485;1.3024458
10:00:23:177;1.2641385;10.5919485;1.3024458
10:00:23:287;2.183512;8.408437;1.340753
10:00:23:287;2.183512;8.408437;1.340753
10:00:23:287;2.183512;8.408437;1.340753
10:00:23:287;2.183512;8.408437;1.340753
10:00:23:287;2.183512;8.408437;1.340753
10:00:23:287;2.183512;8.408437;1.340753
10:00:23:287;2.183512;8.408437;1.340753
10:00:23:287;2.183512;8.408437;1.340753
10:00:23:287;2.183512;8.408437;1.340753
10:00:23:287;2.183512;8.408437;1.340753
10:00:23:287;2.183512;8.408437;1.340753
10:00:23:287;2.183512;8.408437;1.340753
10:00:23:287;2.183512;8.408437;1.340753
10:00:23:287;2.183512;8.408437;1.340753
10:00:23:287;2.183512;8.408437;1.340753
10:00:23:405;1.5514427;9.672575;2.4899697
10:00:23:405;1.5514427;9.672575;2.4899697
10:00:23:405;1.5514427;9.672575;2.4899697
10:00:23:405;1.5514427;9.672575;2.4899697
10:00:23:405;1.5514427;9.672575;2.4899697
10:00:23:405;1.5514427;9.672575;2.4899697
10:00:23:405;1.5514427;9.672575;2.4899697
10:00:23:405;1.5514427;9.672575;2.4899697
10:00:23:405;1.5514427;9.672575;2.4899697
10:00:23:405;1.5514427;9.672575;2.4899697
10:00:23:405;1.5514427;9.672575;2.4899697
10:00:23:405;1.5514427;9.672575;2.4899697
10:00:23:405;1.5514427;9.672575;2.4899697
10:00:23:405;1.5514427;9.672575;2.4899697
10:00:23:405;1.5514427;9.672575;2.4899697
10:00:23:405;1.5514427;9.672575;2.4899697
10:00:23:405;1.5514427;9.672575;2.4899697
10:00:23:405;1.5514427;9.672575;2.4899697
10:00:23:405;1.5514427;9.672575;2.4899697
10:00:23:551;2.1068976;8.868123;1.9728222
10:00:23:551;2.1068976;8.868123;1.9728222
10:00:23:551;2.1068976;8.868123;1.9728222
10:00:23:551;2.1068976;8.868123;1.9728222
10:00:23:551;2.1068976;8.868123;1.9728222
10:00:23:551;2.1068976;8.868123;1.9728222
10:00:23:551;2.1068976;8.868123;1.9728222
10:00:23:551;2.1068976;8.868123;1.9728222
10:00:23:551;2.1068976;8.868123;1.9728222
10:00:23:551;2.1068976;8.868123;1.9728222
10:00:23:551;2.1068976;8.868123;1.9728222
10:00:23:551;2.1068976;8.868123;1.9728222
10:00:23:551;2.1068976;8.868123;1.9728222
10:00:23:551;2.1068976;8.868123;1.9728222
10:00:23:661;0.9576807;8.90643;0.8619126
10:00:23:661;0.9576807;8.90643;0.8619126
10:00:23:661;0.9576807;8.90643;0.8619126
10:00:23:661;0.9576807;8.90643;0.8619126
10:00:23:661;0.9576807;8.90643;0.8619126
10:00:23:661;0.9576807;8.90643;0.8619126
10:00:23:661;0.9576807;8.90643;0.8619126
10:00:23:661;0.9576807;8.90643;0.8619126
10:00:23:661;0.9576807;8.90643;0.8619126
10:00:23:661;0.9576807;8.90643;0.8619126
10:00:23:661;0.9576807;8.90643;0.8619126
10:00:23:661;0.9576807;8.90643;0.8619126
10:00:23:661;0.9576807;8.90643;0.8619126
10:00:23:763;0.7469909;8.810662;2.1068976
10:00:23:763;0.7469909;8.810662;2.1068976
10:00:23:763;0.7469909;8.810662;2.1068976
10:00:23:763;0.7469909;8.810662;2.1068976
10:00:23:763;0.7469909;8.810662;2.1068976
10:00:23:763;0.7469909;8.810662;2.1068976
10:00:23:763;0.7469909;8.810662;2.1068976
10:00:23:763;0.7469909;8.810662;2.1068976
10:00:23:763;0.7469909;8.810662;2.1068976
10:00:23:763;0.7469909;8.810662;2.1068976
10:00:23:763;0.7469909;8.810662;2.1068976
10:00:23:763;0.7469909;8.810662;2.1068976
10:00:23:763;0.7469909;8.810662;2.1068976
10:00:23:865;0.842759;7.776367;1.0534488
10:00:23:865;0.842759;7.776367;1.0534488
10:00:23:865;0.842759;7.776367;1.0534488
10:00:23:865;0.842759;7.776367;1.0534488
10:00:23:865;0.842759;7.776367;1.0534488
10:00:23:865;0.842759;7.776367;1.0534488
10:00:23:865;0.842759;7.776367;1.0534488
10:00:23:865;0.842759;7.776367;1.0534488
10:00:23:865;0.842759;7.776367;1.0534488
10:00:23:865;0.842759;7.776367;1.0534488
10:00:23:865;0.842759;7.776367;1.0534488
10:00:23:865;0.842759;7.776367;1.0534488
10:00:23:865;0.842759;7.776367;1.0534488
10:00:23:967;-0.4405331;9.998186;1.6663644
10:00:23:967;-0.4405331;9.998186;1.6663644
10:00:23:967;-0.4405331;9.998186;1.6663644
10:00:23:967;-0.4405331;9.998186;1.6663644
10:00:23:967;-0.4405331;9.998186;1.6663644
10:00:23:967;-0.4405331;9.998186;1.6663644
10:00:23:967;-0.4405331;9.998186;1.6663644
10:00:23:967;-0.4405331;9.998186;1.6663644
10:00:23:967;-0.4405331;9.998186;1.6663644
10:00:23:967;-0.4405331;9.998186;1.6663644
10:00:23:967;-0.4405331;9.998186;1.6663644
10:00:23:967;-0.4405331;9.998186;1.6663644
10:00:23:967;-0.4405331;9.998186;1.6663644
10:00:23:967;-0.4405331;9.998186;1.6663644
10:00:23:967;-0.4405331;9.998186;1.6663644
10:00:24:080;-0.49799395;11.453861;2.7006595
10:00:24:080;-0.49799395;11.453861;2.7006595
10:00:24:080;-0.49799395;11.453861;2.7006595
10:00:24:080;-0.49799395;11.453861;2.7006595
10:00:24:080;-0.49799395;11.453861;2.7006595
10:00:24:080;-0.49799395;11.453861;2.7006595
10:00:24:080;-0.49799395;11.453861;2.7006595
10:00:24:080;-0.49799395;11.453861;2.7006595
10:00:24:080;-0.49799395;11.453861;2.7006595
10:00:24:080;-0.49799395;11.453861;2.7006595
10:00:24:080;-0.49799395;11.453861;2.7006595
10:00:24:080;-0.49799395;11.453861;2.7006595
10:00:24:080;-0.49799395;11.453861;2.7006595
10:00:24:080;-0.49799395;11.453861;2.7006595
10:00:24:080;-0.49799395;11.453861;2.7006595
10:00:24:203;0.7661445;10.304645;0.93852705
10:00:24:203;0.7661445;10.304645;0.93852705
10:00:24:203;0.7661445;10.304645;0.93852705
10:00:24:203;0.7661445;10.304645;0.93852705
10:00:24:203;0.7661445;10.304645;0.93852705
10:00:24:203;0.7661445;10.304645;0.93852705
10:00:24:203;0.7661445;10.304645;0.93852705
10:00:24:203;0.7661445;10.304645;0.93852705
10:00:24:203;0.7661445;10.304645;0.93852705
10:00:24:203;0.7661445;10.304645;0.93852705
10:00:24:203;0.7661445;10.304645;0.93852705
10:00:24:203;0.7661445;10.304645;0.93852705
10:00:24:203;0.7661445;10.304645;0.93852705
10:00:24:203;0.7661445;10.304645;0.93852705
10:00:24:307;0.7278373;11.224017;0.40222588
10:00:24:307;0.7278373;11.224017;0.40222588
10:00:24:307;0.7278373;11.224017;0.40222588
10:00:24:307;0.7278373;11.224017;0.40222588
10:00:24:307;0.7278373;11.224017;0.40222588
10:00:24:307;0.7278373;11.224017;0.40222588
10:00:24:307;0.7278373;11.224017;0.40222588
10:00:24:307;0.7278373;11.224017;0.40222588
10:00:24:307;0.7278373;11.224017;0.40222588
10:00:24:307;0.7278373;11.224017;0.40222588
10:00:24:307;0.7278373;11.224017;0.40222588
10:00:24:307;0.7278373;11.224017;0.40222588
10:00:24:307;0.7278373;11.224017;0.40222588
10:00:24:412;1.1109096;8.676587;1.532289
10:00:24:412;1.1109096;8.676587;1.532289
10:00:24:412;1.1109096;8.676587;1.532289
10:00:24:412;1.1109096;8.676587;1.532289
10:00:24:412;1.1109096;8.676587;1.532289
10:00:24:412;1.1109096;8.676587;1.532289
10:00:24:412;1.1109096;8.676587;1.532289
10:00:24:412;1.1109096;8.676587;1.532289
10:00:24:412;1.1109096;8.676587;1.532289
10:00:24:412;1.1109096;8.676587;1.532289
10:00:24:412;1.1109096;8.676587;1.532289
10:00:24:412;1.1109096;8.676587;1.532289
10:00:24:412;1.1109096;8.676587;1.532289
10:00:24:412;1.1109096;8.676587;1.532289
10:00:24:412;1.1109096;8.676587;1.532289
10:00:24:525;0.51714754;12.909535;0.45968673
10:00:24:525;0.51714754;12.909535;0.45968673
10:00:24:525;0.51714754;12.909535;0.45968673
10:00:24:525;0.51714754;12.909535;0.45968673
10:00:24:525;0.51714754;12.909535;0.45968673
10:00:24:525;0.51714754;12.909535;0.45968673
10:00:24:525;0.51714754;12.909535;0.45968673
10:00:24:525;0.51714754;12.909535;0.45968673
10:00:24:525;0.51714754;12.909535;0.45968673
10:00:24:525;0.51714754;12.909535;0.45968673
10:00:24:525;0.51714754;12.909535;0.45968673
10:00:24:525;0.51714754;12.909535;0.45968673
10:00:24:525;0.51714754;12.909535;0.45968673
10:00:24:525;0.51714754;12.909535;0.45968673
10:00:24:525;0.51714754;12.909535;0.45968673
10:00:24:644;1.0151415;8.312668;1.3215994
10:00:24:644;1.0151415;8.312668;1.3215994
10:00:24:644;1.0151415;8.312668;1.3215994
10:00:24:644;1.0151415;8.312668;1.3215994
10:00:24:644;1.0151415;8.312668;1.3215994
10:00:24:644;1.0151415;8.312668;1.3215994
10:00:24:644;1.0151415;8.312668;1.3215994
10:00:24:644;1.0151415;8.312668;1.3215994
10:00:24:644;1.0151415;8.312668;1.3215994
10:00:24:644;1.0151415;8.312668;1.3215994
10:00:24:644;1.0151415;8.312668;1.3215994
10:00:24:644;1.0151415;8.312668;1.3215994
10:00:24:644;1.0151415;8.312668;1.3215994
10:00:24:644;1.0151415;8.312668;1.3215994
10:00:24:644;1.0151415;8.312668;1.3215994
10:00:24:762;0.24899697;10.994174;1.0726024
10:00:24:762;0.24899697;10.994174;1.0726024
10:00:24:762;0.24899697;10.994174;1.0726024
10:00:24:762;0.24899697;10.994174;1.0726024
10:00:24:762;0.24899697;10.994174;1.0726024
10:00:24:762;0.24899697;10.994174;1.0726024
10:00:24:762;0.24899697;10.994174;1.0726024
10:00:24:762;0.24899697;10.994174;1.0726024
10:00:24:762;0.24899697;10.994174;1.0726024
10:00:24:762;0.24899697;10.994174;1.0726024
10:00:24:762;0.24899697;10.994174;1.0726024
10:00:24:762;0.24899697;10.994174;1.0726024
10:00:24:762;0.24899697;10.994174;1.0726024
10:00:24:864;0.5363012;10.879252;1.2066777
10:00:24:864;0.5363012;10.879252;1.2066777
10:00:24:864;0.5363012;10.879252;1.2066777
10:00:24:864;0.5363012;10.879252;1.2066777
10:00:24:864;0.5363012;10.879252;1.2066777
10:00:24:864;0.5363012;10.879252;1.2066777
10:00:24:864;0.5363012;10.879252;1.2066777
10:00:24:864;0.5363012;10.879252;1.2066777
10:00:24:864;0.5363012;10.879252;1.2066777
10:00:24:864;0.5363012;10.879252;1.2066777
10:00:24:864;0.5363012;10.879252;1.2066777
10:00:24:864;0.5363012;10.879252;1.2066777
10:00:24:864;0.5363012;10.879252;1.2066777
10:00:24:965;0.6895301;10.342952;1.1109096
10:00:24:965;0.6895301;10.342952;1.1109096
10:00:24:965;0.6895301;10.342952;1.1109096
10:00:24:965;0.6895301;10.342952;1.1109096
10:00:24:965;0.6895301;10.342952;1.1109096
10:00:24:965;0.6895301;10.342952;1.1109096
10:00:24:965;0.6895301;10.342952;1.1109096
10:00:24:965;0.6895301;10.342952;1.1109096
10:00:24:965;0.6895301;10.342952;1.1109096
10:00:24:965;0.6895301;10.342952;1.1109096
10:00:24:965;0.6895301;10.342952;1.1109096
10:00:24:965;0.6895301;10.342952;1.1109096
10:00:24:965;0.6895301;10.342952;1.1109096
10:00:24:965;0.6895301;10.342952;1.1109096
10:00:24:965;0.6895301;10.342952;1.1109096
10:00:24:965;0.6895301;10.342952;1.1109096
10:00:25:092;1.0534488;10.381259;1.685518
10:00:25:092;1.0534488;10.381259;1.685518
10:00:25:092;1.0534488;10.381259;1.685518
10:00:25:092;1.0534488;10.381259;1.685518
10:00:25:092;1.0534488;10.381259;1.685518
10:00:25:092;1.0534488;10.381259;1.685518
10:00:25:092;1.0534488;10.381259;1.685518
10:00:25:092;1.0534488;10.381259;1.685518
10:00:25:092;1.0534488;10.381259;1.685518
10:00:25:092;1.0534488;10.381259;1.685518
10:00:25:092;1.0534488;10.381259;1.685518
10:00:25:092;1.0534488;10.381259;1.685518
10:00:25:092;1.0534488;10.381259;1.685518
10:00:25:092;1.0534488;10.381259;1.685518
10:00:25:092;1.0534488;10.381259;1.685518
10:00:25:092;1.0534488;10.381259;1.685518
10:00:25:211;0.9768343;9.634268;0.49799395
10:00:25:211;0.9768343;9.634268;0.49799395
10:00:25:211;0.9768343;9.634268;0.49799395
10:00:25:211;0.9768343;9.634268;0.49799395
10:00:25:211;0.9768343;9.634268;0.49799395
10:00:25:211;0.9768343;9.634268;0.49799395
10:00:25:211;0.9768343;9.634268;0.49799395
10:00:25:211;0.9768343;9.634268;0.49799395
10:00:25:211;0.9768343;9.634268;0.49799395
10:00:25:211;0.9768343;9.634268;0.49799395
10:00:25:211;0.9768343;9.634268;0.49799395
10:00:25:211;0.9768343;9.634268;0.49799395
10:00:25:211;0.9768343;9.634268;0.49799395
10:00:25:211;0.9768343;9.634268;0.49799395
10:00:25:211;0.9768343;9.634268;0.49799395
10:00:25:330;0.24899697;8.236053;2.3558946
10:00:25:330;0.24899697;8.236053;2.3558946
10:00:25:330;0.24899697;8.236053;2.3558946
10:00:25:330;0.24899697;8.236053;2.3558946
10:00:25:330;0.24899697;8.236053;2.3558946
10:00:25:330;0.24899697;8.236053;2.3558946
10:00:25:330;0.24899697;8.236053;2.3558946
10:00:25:330;0.24899697;8.236053;2.3558946
10:00:25:330;0.24899697;8.236053;2.3558946
10:00:25:330;0.24899697;8.236053;2.3558946
10:00:25:330;0.24899697;8.236053;2.3558946
10:00:25:330;0.24899697;8.236053;2.3558946
10:00:25:330;0.24899697;8.236053;2.3558946
10:00:25:431;0.82360536;9.289502;2.2026656
10:00:25:431;0.82360536;9.289502;2.2026656
10:00:25:431;0.82360536;9.289502;2.2026656
10:00:25:431;0.82360536;9.289502;2.2026656
10:00:25:431;0.82360536;9.289502;2.2026656
10:00:25:431;0.82360536;9.289502;2.2026656
10:00:25:431;0.82360536;9.289502;2.2026656
10:00:25:431;0.82360536;9.289502;2.2026656
10:00:25:431;0.82360536;9.289502;2.2026656
10:00:25:431;0.82360536;9.289502;2.2026656
10:00:25:431;0.82360536;9.289502;2.2026656
10:00:25:431;0.82360536;9.289502;2.2026656
10:00:25:431;0.82360536;9.289502;2.2026656
10:00:25:431;0.82360536;9.289502;2.2026656
10:00:25:431;0.82360536;9.289502;2.2026656
10:00:25:431;0.82360536;9.289502;2.2026656
10:00:25:431;0.82360536;9.289502;2.2026656
10:00:25:431;0.82360536;9.289502;2.2026656
10:00:25:577;0.45968673;10.5919485;1.8770541
10:00:25:577;0.45968673;10.5919485;1.8770541
10:00:25:577;0.45968673;10.5919485;1.8770541
10:00:25:577;0.45968673;10.5919485;1.8770541
10:00:25:577;0.45968673;10.5919485;1.8770541
10:00:25:577;0.45968673;10.5919485;1.8770541
10:00:25:577;0.45968673;10.5919485;1.8770541
10:00:25:577;0.45968673;10.5919485;1.8770541
10:00:25:577;0.45968673;10.5919485;1.8770541
10:00:25:577;0.45968673;10.5919485;1.8770541
10:00:25:577;0.45968673;10.5919485;1.8770541
10:00:25:577;0.45968673;10.5919485;1.8770541
10:00:25:577;0.45968673;10.5919485;1.8770541
10:00:25:577;0.45968673;10.5919485;1.8770541
10:00:25:685;0.095768064;9.174581;2.4516625
10:00:25:685;0.095768064;9.174581;2.4516625
10:00:25:685;0.095768064;9.174581;2.4516625
10:00:25:685;0.095768064;9.174581;2.4516625
10:00:25:685;0.095768064;9.174581;2.4516625
10:00:25:685;0.095768064;9.174581;2.4516625
10:00:25:685;0.095768064;9.174581;2.4516625
10:00:25:685;0.095768064;9.174581;2.4516625
10:00:25:685;0.095768064;9.174581;2.4516625
10:00:25:685;0.095768064;9.174581;2.4516625
10:00:25:685;0.095768064;9.174581;2.4516625
10:00:25:685;0.095768064;9.174581;2.4516625
10:00:25:685;0.095768064;9.174581;2.4516625
10:00:25:788;0.24899697;10.381259;2.030283
10:00:25:788;0.24899697;10.381259;2.030283
10:00:25:788;0.24899697;10.381259;2.030283
10:00:25:788;0.24899697;10.381259;2.030283
10:00:25:788;0.24899697;10.381259;2.030283
10:00:25:788;0.24899697;10.381259;2.030283
10:00:25:788;0.24899697;10.381259;2.030283
10:00:25:788;0.24899697;10.381259;2.030283
10:00:25:788;0.24899697;10.381259;2.030283
10:00:25:788;0.24899697;10.381259;2.030283
10:00:25:788;0.24899697;10.381259;2.030283
10:00:25:788;0.24899697;10.381259;2.030283
10:00:25:788;0.24899697;10.381259;2.030283
10:00:25:788;0.24899697;10.381259;2.030283
10:00:25:788;0.24899697;10.381259;2.030283
10:00:25:788;0.24899697;10.381259;2.030283
10:00:25:907;0.095768064;9.212888;1.532289
10:00:25:907;0.095768064;9.212888;1.532289
10:00:25:907;0.095768064;9.212888;1.532289
10:00:25:907;0.095768064;9.212888;1.532289
10:00:25:907;0.095768064;9.212888;1.532289
10:00:25:907;0.095768064;9.212888;1.532289
10:00:25:907;0.095768064;9.212888;1.532289
10:00:25:907;0.095768064;9.212888;1.532289
10:00:25:907;0.095768064;9.212888;1.532289
10:00:25:907;0.095768064;9.212888;1.532289
10:00:25:907;0.095768064;9.212888;1.532289
10:00:25:907;0.095768064;9.212888;1.532289
10:00:25:907;0.095768064;9.212888;1.532289
10:00:26:008;0.78529817;7.795521;2.7006595
10:00:26:008;0.78529817;7.795521;2.7006595
10:00:26:008;0.78529817;7.795521;2.7006595
10:00:26:008;0.78529817;7.795521;2.7006595
10:00:26:008;0.78529817;7.795521;2.7006595
10:00:26:008;0.78529817;7.795521;2.7006595
10:00:26:008;0.78529817;7.795521;2.7006595
10:00:26:008;0.78529817;7.795521;2.7006595
10:00:26:008;0.78529817;7.795521;2.7006595
10:00:26:008;0.78529817;7.795521;2.7006595
10:00:26:008;0.78529817;7.795521;2.7006595
10:00:26:008;0.78529817;7.795521;2.7006595
10:00:26:008;0.78529817;7.795521;2.7006595
10:00:26:008;0.78529817;7.795521;2.7006595
10:00:26:008;0.78529817;7.795521;2.7006595
10:00:26:126;1.091756;10.093954;0.63206923
10:00:26:126;1.091756;10.093954;0.63206923
10:00:26:126;1.091756;10.093954;0.63206923
10:00:26:126;1.091756;10.093954;0.63206923
10:00:26:126;1.091756;10.093954;0.63206923
10:00:26:126;1.091756;10.093954;0.63206923
10:00:26:126;1.091756;10.093954;0.63206923
10:00:26:126;1.091756;10.093954;0.63206923
10:00:26:126;1.091756;10.093954;0.63206923
10:00:26:126;1.091756;10.093954;0.63206923
10:00:26:126;1.091756;10.093954;0.63206923
10:00:26:126;1.091756;10.093954;0.63206923
10:00:26:126;1.091756;10.093954;0.63206923
10:00:26:126;1.091756;10.093954;0.63206923
10:00:26:236;1.0534488;8.599973;0.8619126
10:00:26:236;1.0534488;8.599973;0.8619126
10:00:26:236;1.0534488;8.599973;0.8619126
10:00:26:236;1.0534488;8.599973;0.8619126
10:00:26:236;1.0534488;8.599973;0.8619126
10:00:26:236;1.0534488;8.599973;0.8619126
10:00:26:236;1.0534488;8.599973;0.8619126
10:00:26:236;1.0534488;8.599973;0.8619126
10:00:26:236;1.0534488;8.599973;0.8619126
10:00:26:236;1.0534488;8.599973;0.8619126
10:00:26:236;1.0534488;8.599973;0.8619126
10:00:26:236;1.0534488;8.599973;0.8619126
10:00:26:236;1.0534488;8.599973;0.8619126
10:00:26:236;1.0534488;8.599973;0.8619126
10:00:26:236;1.0534488;8.599973;0.8619126
10:00:26:353;1.0726024;10.093954;2.1643584
10:00:26:353;1.0726024;10.093954;2.1643584
10:00:26:353;1.0726024;10.093954;2.1643584
10:00:26:353;1.0726024;10.093954;2.1643584
10:00:26:353;1.0726024;10.093954;2.1643584
10:00:26:353;1.0726024;10.093954;2.1643584
10:00:26:353;1.0726024;10.093954;2.1643584
10:00:26:353;1.0726024;10.093954;2.1643584
10:00:26:353;1.0726024;10.093954;2.1643584
10:00:26:353;1.0726024;10.093954;2.1643584
10:00:26:353;1.0726024;10.093954;2.1643584
10:00:26:353;1.0726024;10.093954;2.1643584
10:00:26:353;1.0726024;10.093954;2.1643584
10:00:26:353;1.0726024;10.093954;2.1643584
10:00:26:353;1.0726024;10.093954;2.1643584
10:00:26:474;-0.2873042;10.898406;1.9153614
10:00:26:474;-0.2873042;10.898406;1.9153614
10:00:26:474;-0.2873042;10.898406;1.9153614
10:00:26:474;-0.2873042;10.898406;1.9153614
10:00:26:474;-0.2873042;10.898406;1.9153614
10:00:26:474;-0.2873042;10.898406;1.9153614
10:00:26:474;-0.2873042;10.898406;1.9153614
10:00:26:474;-0.2873042;10.898406;1.9153614
10:00:26:474;-0.2873042;10.898406;1.9153614
10:00:26:474;-0.2873042;10.898406;1.9153614
10:00:26:474;-0.2873042;10.898406;1.9153614
10:00:26:474;-0.2873042;10.898406;1.9153614
10:00:26:474;-0.2873042;10.898406;1.9153614
10:00:26:577;0.6512229;7.833828;0.93852705
10:00:26:577;0.6512229;7.833828;0.93852705
10:00:26:577;0.6512229;7.833828;0.93852705
10:00:26:577;0.6512229;7.833828;0.93852705
10:00:26:577;0.6512229;7.833828;0.93852705
10:00:26:577;0.6512229;7.833828;0.93852705
10:00:26:577;0.6512229;7.833828;0.93852705
10:00:26:577;0.6512229;7.833828;0.93852705
10:00:26:577;0.6512229;7.833828;0.93852705
10:00:26:577;0.6512229;7.833828;0.93852705
10:00:26:577;0.6512229;7.833828;0.93852705
10:00:26:577;0.6512229;7.833828;0.93852705
10:00:26:577;0.6512229;7.833828;0.93852705
10:00:26:577;0.6512229;7.833828;0.93852705
10:00:26:577;0.6512229;7.833828;0.93852705
10:00:26:695;-0.019153614;11.032481;1.2641385
10:00:26:695;-0.019153614;11.032481;1.2641385
10:00:26:695;-0.019153614;11.032481;1.2641385
10:00:26:695;-0.019153614;11.032481;1.2641385
10:00:26:695;-0.019153614;11.032481;1.2641385
10:00:26:695;-0.019153614;11.032481;1.2641385
10:00:26:695;-0.019153614;11.032481;1.2641385
10:00:26:695;-0.019153614;11.032481;1.2641385
10:00:26:695;-0.019153614;11.032481;1.2641385
10:00:26:695;-0.019153614;11.032481;1.2641385
10:00:26:695;-0.019153614;11.032481;1.2641385
10:00:26:695;-0.019153614;11.032481;1.2641385
10:00:26:695;-0.019153614;11.032481;1.2641385
10:00:26:695;-0.019153614;11.032481;1.2641385
10:00:26:695;-0.019153614;11.032481;1.2641385
10:00:26:695;-0.019153614;11.032481;1.2641385
10:00:26:695;-0.019153614;11.032481;1.2641385
10:00:26:824;-0.17238252;9.80665;1.3982137
10:00:26:824;-0.17238252;9.80665;1.3982137
10:00:26:824;-0.17238252;9.80665;1.3982137
10:00:26:824;-0.17238252;9.80665;1.3982137
10:00:26:824;-0.17238252;9.80665;1.3982137
10:00:26:824;-0.17238252;9.80665;1.3982137
10:00:26:824;-0.17238252;9.80665;1.3982137
10:00:26:824;-0.17238252;9.80665;1.3982137
10:00:26:824;-0.17238252;9.80665;1.3982137
10:00:26:824;-0.17238252;9.80665;1.3982137
10:00:26:824;-0.17238252;9.80665;1.3982137
10:00:26:824;-0.17238252;9.80665;1.3982137
10:00:26:824;-0.17238252;9.80665;1.3982137
10:00:26:824;-0.17238252;9.80665;1.3982137
10:00:26:824;-0.17238252;9.80665;1.3982137
10:00:26:940;-0.59376204;11.377247;1.0534488
10:00:26:940;-0.59376204;11.377247;1.0534488
10:00:26:940;-0.59376204;11.377247;1.0534488
10:00:26:940;-0.59376204;11.377247;1.0534488
10:00:26:940;-0.59376204;11.377247;1.0534488
10:00:26:940;-0.59376204;11.377247;1.0534488
10:00:26:940;-0.59376204;11.377247;1.0534488
10:00:26:940;-0.59376204;11.377247;1.0534488
10:00:26:940;-0.59376204;11.377247;1.0534488
10:00:26:940;-0.59376204;11.377247;1.0534488
10:00:26:940;-0.59376204;11.377247;1.0534488
10:00:26:940;-0.59376204;11.377247;1.0534488
10:00:26:940;-0.59376204;11.377247;1.0534488
10:00:26:940;-0.59376204;11.377247;1.0534488
10:00:26:940;-0.59376204;11.377247;1.0534488
10:00:26:940;-0.59376204;11.377247;1.0534488
10:00:26:940;-0.59376204;11.377247;1.0534488
10:00:27:078;0.49799395;8.887277;1.1875241
10:00:27:078;0.49799395;8.887277;1.1875241
10:00:27:078;0.49799395;8.887277;1.1875241
10:00:27:078;0.49799395;8.887277;1.1875241
10:00:27:078;0.49799395;8.887277;1.1875241
10:00:27:078;0.49799395;8.887277;1.1875241
10:00:27:078;0.49799395;8.887277;1.1875241
10:00:27:078;0.49799395;8.887277;1.1875241
10:00:27:078;0.49799395;8.887277;1.1875241
10:00:27:078;0.49799395;8.887277;1.1875241
10:00:27:078;0.49799395;8.887277;1.1875241
10:00:27:078;0.49799395;8.887277;1.1875241
10:00:27:078;0.49799395;8.887277;1.1875241
10:00:27:078;0.49799395;8.887277;1.1875241
10:00:27:187;-0.095768064;9.519346;1.3024458
10:00:27:187;-0.095768064;9.519346;1.3024458
10:00:27:187;-0.095768064;9.519346;1.3024458
10:00:27:187;-0.095768064;9.519346;1.3024458
10:00:27:187;-0.095768064;9.519346;1.3024458
10:00:27:187;-0.095768064;9.519346;1.3024458
10:00:27:187;-0.095768064;9.519346;1.3024458
10:00:27:187;-0.095768064;9.519346;1.3024458
10:00:27:187;-0.095768064;9.519346;1.3024458
10:00:27:187;-0.095768064;9.519346;1.3024458
10:00:27:187;-0.095768064;9.519346;1.3024458
10:00:27:187;-0.095768064;9.519346;1.3024458
10:00:27:187;-0.095768064;9.519346;1.3024458
10:00:27:289;0.47884035;9.212888;1.6280571
10:00:27:289;0.47884035;9.212888;1.6280571
10:00:27:289;0.47884035;9.212888;1.6280571
10:00:27:289;0.47884035;9.212888;1.6280571
10:00:27:289;0.47884035;9.212888;1.6280571
10:00:27:289;0.47884035;9.212888;1.6280571
10:00:27:289;0.47884035;9.212888;1.6280571
10:00:27:289;0.47884035;9.212888;1.6280571
10:00:27:289;0.47884035;9.212888;1.6280571
10:00:27:289;0.47884035;9.212888;1.6280571
10:00:27:289;0.47884035;9.212888;1.6280571
10:00:27:289;0.47884035;9.212888;1.6280571
10:00:27:289;0.47884035;9.212888;1.6280571
10:00:27:289;0.47884035;9.212888;1.6280571
10:00:27:289;0.47884035;9.212888;1.6280571
10:00:27:289;0.47884035;9.212888;1.6280571
10:00:27:289;0.47884035;9.212888;1.6280571
10:00:27:289;0.47884035;9.212888;1.6280571
10:00:27:289;0.47884035;9.212888;1.6280571
10:00:27:289;0.47884035;9.212888;1.6280571
10:00:27:444;0.59376204;10.43872;1.6472107
10:00:27:444;0.59376204;10.43872;1.6472107
10:00:27:444;0.59376204;10.43872;1.6472107
10:00:27:444;0.59376204;10.43872;1.6472107
10:00:27:444;0.59376204;10.43872;1.6472107
10:00:27:444;0.59376204;10.43872;1.6472107
10:00:27:444;0.59376204;10.43872;1.6472107
10:00:27:444;0.59376204;10.43872;1.6472107
10:00:27:444;0.59376204;10.43872;1.6472107
10:00:27:444;0.59376204;10.43872;1.6472107
10:00:27:444;0.59376204;10.43872;1.6472107
10:00:27:444;0.59376204;10.43872;1.6472107
10:00:27:444;0.59376204;10.43872;1.6472107
10:00:27:546;-0.11492168;11.415554;-0.6895301
10:00:27:546;-0.11492168;11.415554;-0.6895301
10:00:27:546;-0.11492168;11.415554;-0.6895301
10:00:27:546;-0.11492168;11.415554;-0.6895301
10:00:27:546;-0.11492168;11.415554;-0.6895301
10:00:27:546;-0.11492168;11.415554;-0.6895301
10:00:27:546;-0.11492168;11.415554;-0.6895301
10:00:27:546;-0.11492168;11.415554;-0.6895301
10:00:27:546;-0.11492168;11.415554;-0.6895301
10:00:27:546;-0.11492168;11.415554;-0.6895301
10:00:27:546;-0.11492168;11.415554;-0.6895301
10:00:27:546;-0.11492168;11.415554;-0.6895301
10:00:27:546;-0.11492168;11.415554;-0.6895301
10:00:27:647;0.5554548;8.619126;1.1492168
10:00:27:647;0.5554548;8.619126;1.1492168
10:00:27:647;0.5554548;8.619126;1.1492168
10:00:27:647;0.5554548;8.619126;1.1492168
10:00:27:647;0.5554548;8.619126;1.1492168
10:00:27:647;0.5554548;8.619126;1.1492168
10:00:27:647;0.5554548;8.619126;1.1492168
10:00:27:647;0.5554548;8.619126;1.1492168
10:00:27:647;0.5554548;8.619126;1.1492168
10:00:27:647;0.5554548;8.619126;1.1492168
10:00:27:647;0.5554548;8.619126;1.1492168
10:00:27:647;0.5554548;8.619126;1.1492168
10:00:27:647;0.5554548;8.619126;1.1492168
10:00:27:647;0.5554548;8.619126;1.1492168
10:00:27:647;0.5554548;8.619126;1.1492168
10:00:27:764;-0.095768064;11.9135475;2.7389667
10:00:27:764;-0.095768064;11.9135475;2.7389667
10:00:27:764;-0.095768064;11.9135475;2.7389667
10:00:27:764;-0.095768064;11.9135475;2.7389667
10:00:27:764;-0.095768064;11.9135475;2.7389667
10:00:27:764;-0.095768064;11.9135475;2.7389667
10:00:27:764;-0.095768064;11.9135475;2.7389667
10:00:27:764;-0.095768064;11.9135475;2.7389667
10:00:27:764;-0.095768064;11.9135475;2.7389667
10:00:27:764;-0.095768064;11.9135475;2.7389667
10:00:27:764;-0.095768064;11.9135475;2.7389667
10:00:27:764;-0.095768064;11.9135475;2.7389667
10:00:27:764;-0.095768064;11.9135475;2.7389667
10:00:27:764;-0.095768064;11.9135475;2.7389667
10:00:27:871;0.30645782;10.43872;2.4899697
10:00:27:871;0.30645782;10.43872;2.4899697
10:00:27:871;0.30645782;10.43872;2.4899697
10:00:27:871;0.30645782;10.43872;2.4899697
10:00:27:871;0.30645782;10.43872;2.4899697
10:00:27:871;0.30645782;10.43872;2.4899697
10:00:27:871;0.30645782;10.43872;2.4899697
10:00:27:871;0.30645782;10.43872;2.4899697
10:00:27:871;0.30645782;10.43872;2.4899697
10:00:27:871;0.30645782;10.43872;2.4899697
10:00:27:871;0.30645782;10.43872;2.4899697
10:00:27:871;0.30645782;10.43872;2.4899697
10:00:27:871;0.30645782;10.43872;2.4899697
10:00:27:871;0.30645782;10.43872;2.4899697
10:00:27:871;0.30645782;10.43872;2.4899697
10:00:27:987;0.1340753;8.159439;2.6048915
10:00:27:987;0.1340753;8.159439;2.6048915
10:00:27:987;0.1340753;8.159439;2.6048915
10:00:27:987;0.1340753;8.159439;2.6048915
10:00:27:987;0.1340753;8.159439;2.6048915
10:00:27:987;0.1340753;8.159439;2.6048915
10:00:27:987;0.1340753;8.159439;2.6048915
10:00:27:987;0.1340753;8.159439;2.6048915
10:00:27:987;0.1340753;8.159439;2.6048915
10:00:27:987;0.1340753;8.159439;2.6048915
10:00:27:987;0.1340753;8.159439;2.6048915
10:00:27:987;0.1340753;8.159439;2.6048915
10:00:27:987;0.1340753;8.159439;2.6048915
10:00:28:091;0.45968673;9.825804;1.2449849
10:00:28:091;0.45968673;9.825804;1.2449849
10:00:28:091;0.45968673;9.825804;1.2449849
10:00:28:091;0.45968673;9.825804;1.2449849
10:00:28:091;0.45968673;9.825804;1.2449849
10:00:28:091;0.45968673;9.825804;1.2449849
10:00:28:091;0.45968673;9.825804;1.2449849
10:00:28:091;0.45968673;9.825804;1.2449849
10:00:28:091;0.45968673;9.825804;1.2449849
10:00:28:091;0.45968673;9.825804;1.2449849
10:00:28:091;0.45968673;9.825804;1.2449849
10:00:28:091;0.45968673;9.825804;1.2449849
10:00:28:091;0.45968673;9.825804;1.2449849
10:00:28:091;0.45968673;9.825804;1.2449849
10:00:28:202;0.8619126;9.80665;1.2258313
10:00:28:202;0.8619126;9.80665;1.2258313
10:00:28:202;0.8619126;9.80665;1.2258313
10:00:28:202;0.8619126;9.80665;1.2258313
10:00:28:202;0.8619126;9.80665;1.2258313
10:00:28:202;0.8619126;9.80665;1.2258313
10:00:28:202;0.8619126;9.80665;1.2258313
10:00:28:202;0.8619126;9.80665;1.2258313
10:00:28:202;0.8619126;9.80665;1.2258313
10:00:28:202;0.8619126;9.80665;1.2258313
10:00:28:202;0.8619126;9.80665;1.2258313
10:00:28:202;0.8619126;9.80665;1.2258313
10:00:28:202;0.8619126;9.80665;1.2258313
10:00:28:202;0.8619126;9.80665;1.2258313
10:00:28:312;0.38307226;11.147403;1.5897499
10:00:28:312;0.38307226;11.147403;1.5897499
10:00:28:312;0.38307226;11.147403;1.5897499
10:00:28:312;0.38307226;11.147403;1.5897499
10:00:28:312;0.38307226;11.147403;1.5897499
10:00:28:312;0.38307226;11.147403;1.5897499
10:00:28:312;0.38307226;11.147403;1.5897499
10:00:28:312;0.38307226;11.147403;1.5897499
10:00:28:312;0.38307226;11.147403;1.5897499
10:00:28:312;0.38307226;11.147403;1.5897499
10:00:28:312;0.38307226;11.147403;1.5897499
10:00:28:312;0.38307226;11.147403;1.5897499
10:00:28:312;0.38307226;11.147403;1.5897499
10:00:28:312;0.38307226;11.147403;1.5897499
10:00:28:312;0.38307226;11.147403;1.5897499
10:00:28:429;0.45968673;10.419566;1.5897499
10:00:28:429;0.45968673;10.419566;1.5897499
10:00:28:429;0.45968673;10.419566;1.5897499
10:00:28:429;0.45968673;10.419566;1.5897499
10:00:28:429;0.45968673;10.419566;1.5897499
10:00:28:429;0.45968673;10.419566;1.5897499
10:00:28:429;0.45968673;10.419566;1.5897499
10:00:28:429;0.45968673;10.419566;1.5897499
10:00:28:429;0.45968673;10.419566;1.5897499
10:00:28:429;0.45968673;10.419566;1.5897499
10:00:28:429;0.45968673;10.419566;1.5897499
10:00:28:429;0.45968673;10.419566;1.5897499
10:00:28:429;0.45968673;10.419566;1.5897499
10:00:28:429;0.45968673;10.419566;1.5897499
10:00:28:429;0.45968673;10.419566;1.5897499
10:00:28:429;0.45968673;10.419566;1.5897499
10:00:28:550;1.1683705;7.699753;1.532289
10:00:28:550;1.1683705;7.699753;1.532289
10:00:28:550;1.1683705;7.699753;1.532289
10:00:28:550;1.1683705;7.699753;1.532289
10:00:28:550;1.1683705;7.699753;1.532289
10:00:28:550;1.1683705;7.699753;1.532289
10:00:28:550;1.1683705;7.699753;1.532289
10:00:28:550;1.1683705;7.699753;1.532289
10:00:28:550;1.1683705;7.699753;1.532289
10:00:28:550;1.1683705;7.699753;1.532289
10:00:28:550;1.1683705;7.699753;1.532289
10:00:28:550;1.1683705;7.699753;1.532289
10:00:28:550;1.1683705;7.699753;1.532289
10:00:28:550;1.1683705;7.699753;1.532289
10:00:28:550;1.1683705;7.699753;1.532289
10:00:28:669;-0.17238252;11.683704;2.7389667
10:00:28:669;-0.17238252;11.683704;2.7389667
10:00:28:669;-0.17238252;11.683704;2.7389667
10:00:28:669;-0.17238252;11.683704;2.7389667
10:00:28:669;-0.17238252;11.683704;2.7389667
10:00:28:669;-0.17238252;11.683704;2.7389667
10:00:28:669;-0.17238252;11.683704;2.7389667
10:00:28:669;-0.17238252;11.683704;2.7389667
10:00:28:669;-0.17238252;11.683704;2.7389667
10:00:28:669;-0.17238252;11.683704;2.7389667
10:00:28:669;-0.17238252;11.683704;2.7389667
10:00:28:669;-0.17238252;11.683704;2.7389667
10:00:28:669;-0.17238252;11.683704;2.7389667
10:00:28:669;-0.17238252;11.683704;2.7389667
10:00:28:669;-0.17238252;11.683704;2.7389667
10:00:28:669;-0.17238252;11.683704;2.7389667
10:00:28:791;0.5554548;8.6574335;1.7046716
10:00:28:791;0.5554548;8.6574335;1.7046716
10:00:28:791;0.5554548;8.6574335;1.7046716
10:00:28:791;0.5554548;8.6574335;1.7046716
10:00:28:791;0.5554548;8.6574335;1.7046716
10:00:28:791;0.5554548;8.6574335;1.7046716
10:00:28:791;0.5554548;8.6574335;1.7046716
10:00:28:791;0.5554548;8.6574335;1.7046716
10:00:28:791;0.5554548;8.6574335;1.7046716
10:00:28:791;0.5554548;8.6574335;1.7046716
10:00:28:791;0.5554548;8.6574335;1.7046716
10:00:28:791;0.5554548;8.6574335;1.7046716
10:00:28:791;0.5554548;8.6574335;1.7046716
10:00:28:791;0.5554548;8.6574335;1.7046716
10:00:28:791;0.5554548;8.6574335;1.7046716
10:00:28:909;1.1492168;10.01734;0.7469909
10:00:28:909;1.1492168;10.01734;0.7469909
10:00:28:909;1.1492168;10.01734;0.7469909
10:00:28:909;1.1492168;10.01734;0.7469909
10:00:28:909;1.1492168;10.01734;0.7469909
10:00:28:909;1.1492168;10.01734;0.7469909
10:00:28:909;1.1492168;10.01734;0.7469909
10:00:28:909;1.1492168;10.01734;0.7469909
10:00:28:909;1.1492168;10.01734;0.7469909
10:00:28:909;1.1492168;10.01734;0.7469909
10:00:28:909;1.1492168;10.01734;0.7469909
10:00:28:909;1.1492168;10.01734;0.7469909
10:00:28:909;1.1492168;10.01734;0.7469909
10:00:28:909;1.1492168;10.01734;0.7469909
10:00:28:909;1.1492168;10.01734;0.7469909
10:00:29:028;0.15322891;8.963891;2.2984335
10:00:29:028;0.15322891;8.963891;2.2984335
10:00:29:028;0.15322891;8.963891;2.2984335
10:00:29:028;0.15322891;8.963891;2.2984335
10:00:29:028;0.15322891;8.963891;2.2984335
10:00:29:028;0.15322891;8.963891;2.2984335
10:00:29:028;0.15322891;8.963891;2.2984335
10:00:29:028;0.15322891;8.963891;2.2984335
10:00:29:028;0.15322891;8.963891;2.2984335
10:00:29:028;0.15322891;8.963891;2.2984335
10:00:29:028;0.15322891;8.963891;2.2984335
10:00:29:028;0.15322891;8.963891;2.2984335
10:00:29:028;0.15322891;8.963891;2.2984335
10:00:29:028;0.15322891;8.963891;2.2984335
10:00:29:133;0.8810662;6.9719152;2.0685902
10:00:29:133;0.8810662;6.9719152;2.0685902
10:00:29:133;0.8810662;6.9719152;2.0685902
10:00:29:133;0.8810662;6.9719152;2.0685902
10:00:29:133;0.8810662;6.9719152;2.0685902
10:00:29:133;0.8810662;6.9719152;2.0685902
10:00:29:133;0.8810662;6.9719152;2.0685902
10:00:29:133;0.8810662;6.9719152;2.0685902
10:00:29:133;0.8810662;6.9719152;2.0685902
10:00:29:133;0.8810662;6.9719152;2.0685902
10:00:29:133;0.8810662;6.9719152;2.0685902
10:00:29:133;0.8810662;6.9719152;2.0685902
10:00:29:133;0.8810662;6.9719152;2.0685902
10:00:29:133;0.8810662;6.9719152;2.0685902
10:00:29:133;0.8810662;6.9719152;2.0685902
10:00:29:255;0.7661445;11.779472;0.6703765
10:00:29:255;0.7661445;11.779472;0.6703765
10:00:29:255;0.7661445;11.779472;0.6703765
10:00:29:255;0.7661445;11.779472;0.6703765
10:00:29:255;0.7661445;11.779472;0.6703765
10:00:29:255;0.7661445;11.779472;0.6703765
10:00:29:255;0.7661445;11.779472;0.6703765
10:00:29:255;0.7661445;11.779472;0.6703765
10:00:29:255;0.7661445;11.779472;0.6703765
10:00:29:255;0.7661445;11.779472;0.6703765
10:00:29:255;0.7661445;11.779472;0.6703765
10:00:29:255;0.7661445;11.779472;0.6703765
10:00:29:255;0.7661445;11.779472;0.6703765
10:00:29:255;0.7661445;11.779472;0.6703765
10:00:29:255;0.7661445;11.779472;0.6703765
10:00:29:255;0.7661445;11.779472;0.6703765
10:00:29:255;0.7661445;11.779472;0.6703765
10:00:29:255;0.7661445;11.779472;0.6703765
10:00:29:392;0.6703765;10.113108;2.0685902
10:00:29:392;0.6703765;10.113108;2.0685902
10:00:29:392;0.6703765;10.113108;2.0685902
10:00:29:392;0.6703765;10.113108;2.0685902
10:00:29:392;0.6703765;10.113108;2.0685902
10:00:29:392;0.6703765;10.113108;2.0685902
10:00:29:392;0.6703765;10.113108;2.0685902
10:00:29:392;0.6703765;10.113108;2.0685902
10:00:29:392;0.6703765;10.113108;2.0685902
10:00:29:392;0.6703765;10.113108;2.0685902
10:00:29:392;0.6703765;10.113108;2.0685902
10:00:29:392;0.6703765;10.113108;2.0685902
10:00:29:392;0.6703765;10.113108;2.0685902
10:00:29:494;0.5363012;7.2209125;4.060566
10:00:29:494;0.5363012;7.2209125;4.060566
10:00:29:494;0.5363012;7.2209125;4.060566
10:00:29:494;0.5363012;7.2209125;4.060566
10:00:29:494;0.5363012;7.2209125;4.060566
10:00:29:494;0.5363012;7.2209125;4.060566
10:00:29:494;0.5363012;7.2209125;4.060566
10:00:29:494;0.5363012;7.2209125;4.060566
10:00:29:494;0.5363012;7.2209125;4.060566
10:00:29:494;0.5363012;7.2209125;4.060566
10:00:29:494;0.5363012;7.2209125;4.060566
10:00:29:494;0.5363012;7.2209125;4.060566
10:00:29:494;0.5363012;7.2209125;4.060566
10:00:29:494;0.5363012;7.2209125;4.060566
10:00:29:494;0.5363012;7.2209125;4.060566
10:00:29:494;0.5363012;7.2209125;4.060566
10:00:29:494;0.5363012;7.2209125;4.060566
10:00:29:494;0.5363012;7.2209125;4.060566
10:00:29:494;0.5363012;7.2209125;4.060566
10:00:29:644;0.34476504;8.714894;1.1875241
10:00:29:644;0.34476504;8.714894;1.1875241
10:00:29:644;0.34476504;8.714894;1.1875241
10:00:29:644;0.34476504;8.714894;1.1875241
10:00:29:644;0.34476504;8.714894;1.1875241
10:00:29:644;0.34476504;8.714894;1.1875241
10:00:29:644;0.34476504;8.714894;1.1875241
10:00:29:644;0.34476504;8.714894;1.1875241
10:00:29:644;0.34476504;8.714894;1.1875241
10:00:29:644;0.34476504;8.714894;1.1875241
10:00:29:644;0.34476504;8.714894;1.1875241
10:00:29:644;0.34476504;8.714894;1.1875241
10:00:29:644;0.34476504;8.714894;1.1875241
10:00:29:644;0.34476504;8.714894;1.1875241
10:00:29:751;0.5554548;9.825804;0.4213795
10:00:29:751;0.5554548;9.825804;0.4213795
10:00:29:751;0.5554548;9.825804;0.4213795
10:00:29:751;0.5554548;9.825804;0.4213795
10:00:29:751;0.5554548;9.825804;0.4213795
10:00:29:751;0.5554548;9.825804;0.4213795
10:00:29:751;0.5554548;9.825804;0.4213795
10:00:29:751;0.5554548;9.825804;0.4213795
10:00:29:751;0.5554548;9.825804;0.4213795
10:00:29:751;0.5554548;9.825804;0.4213795
10:00:29:751;0.5554548;9.825804;0.4213795
10:00:29:751;0.5554548;9.825804;0.4213795
10:00:29:751;0.5554548;9.825804;0.4213795
10:00:29:853;0.076614454;10.113108;0.9576807
10:00:29:853;0.076614454;10.113108;0.9576807
10:00:29:853;0.076614454;10.113108;0.9576807
10:00:29:853;0.076614454;10.113108;0.9576807
10:00:29:853;0.076614454;10.113108;0.9576807
10:00:29:853;0.076614454;10.113108;0.9576807
10:00:29:853;0.076614454;10.113108;0.9576807
10:00:29:853;0.076614454;10.113108;0.9576807
10:00:29:853;0.076614454;10.113108;0.9576807
10:00:29:853;0.076614454;10.113108;0.9576807
10:00:29:853;0.076614454;10.113108;0.9576807
10:00:29:853;0.076614454;10.113108;0.9576807
10:00:29:853;0.076614454;10.113108;0.9576807
10:00:29:853;0.076614454;10.113108;0.9576807
10:00:29:853;0.076614454;10.113108;0.9576807
10:00:29:970;1.3982137;9.385271;2.719813
10:00:29:970;1.3982137;9.385271;2.719813
10:00:29:970;1.3982137;9.385271;2.719813
10:00:29:970;1.3982137;9.385271;2.719813
10:00:29:970;1.3982137;9.385271;2.719813
10:00:29:970;1.3982137;9.385271;2.719813
10:00:29:970;1.3982137;9.385271;2.719813
10:00:29:970;1.3982137;9.385271;2.719813
10:00:29:970;1.3982137;9.385271;2.719813
10:00:29:970;1.3982137;9.385271;2.719813
10:00:29:970;1.3982137;9.385271;2.719813
10:00:29:970;1.3982137;9.385271;2.719813
10:00:29:970;1.3982137;9.385271;2.719813
10:00:29:970;1.3982137;9.385271;2.719813
10:00:29:970;1.3982137;9.385271;2.719813
10:00:30:088;1.0726024;10.955867;1.3215994
10:00:30:088;1.0726024;10.955867;1.3215994
10:00:30:088;1.0726024;10.955867;1.3215994
10:00:30:088;1.0726024;10.955867;1.3215994
10:00:30:088;1.0726024;10.955867;1.3215994
10:00:30:088;1.0726024;10.955867;1.3215994
10:00:30:088;1.0726024;10.955867;1.3215994
10:00:30:088;1.0726024;10.955867;1.3215994
10:00:30:088;1.0726024;10.955867;1.3215994
10:00:30:088;1.0726024;10.955867;1.3215994
10:00:30:088;1.0726024;10.955867;1.3215994
10:00:30:088;1.0726024;10.955867;1.3215994
10:00:30:088;1.0726024;10.955867;1.3215994
10:00:30:088;1.0726024;10.955867;1.3215994
10:00:30:088;1.0726024;10.955867;1.3215994
10:00:30:207;0.15322891;9.021352;1.6472107
10:00:30:207;0.15322891;9.021352;1.6472107
10:00:30:207;0.15322891;9.021352;1.6472107
10:00:30:207;0.15322891;9.021352;1.6472107
10:00:30:207;0.15322891;9.021352;1.6472107
10:00:30:207;0.15322891;9.021352;1.6472107
10:00:30:207;0.15322891;9.021352;1.6472107
10:00:30:207;0.15322891;9.021352;1.6472107
10:00:30:207;0.15322891;9.021352;1.6472107
10:00:30:207;0.15322891;9.021352;1.6472107
10:00:30:207;0.15322891;9.021352;1.6472107
10:00:30:207;0.15322891;9.021352;1.6472107
10:00:30:207;0.15322891;9.021352;1.6472107
10:00:30:207;0.15322891;9.021352;1.6472107
10:00:30:207;0.15322891;9.021352;1.6472107
10:00:30:325;0.80445176;9.844957;1.4939818
10:00:30:325;0.80445176;9.844957;1.4939818
10:00:30:325;0.80445176;9.844957;1.4939818
10:00:30:325;0.80445176;9.844957;1.4939818
10:00:30:325;0.80445176;9.844957;1.4939818
10:00:30:325;0.80445176;9.844957;1.4939818
10:00:30:325;0.80445176;9.844957;1.4939818
10:00:30:325;0.80445176;9.844957;1.4939818
10:00:30:325;0.80445176;9.844957;1.4939818
10:00:30:325;0.80445176;9.844957;1.4939818
10:00:30:325;0.80445176;9.844957;1.4939818
10:00:30:325;0.80445176;9.844957;1.4939818
10:00:30:325;0.80445176;9.844957;1.4939818
10:00:30:427;0.49799395;10.5919485;0.842759
10:00:30:427;0.49799395;10.5919485;0.842759
10:00:30:427;0.49799395;10.5919485;0.842759
10:00:30:427;0.49799395;10.5919485;0.842759
10:00:30:427;0.49799395;10.5919485;0.842759
10:00:30:427;0.49799395;10.5919485;0.842759
10:00:30:427;0.49799395;10.5919485;0.842759
10:00:30:427;0.49799395;10.5919485;0.842759
10:00:30:427;0.49799395;10.5919485;0.842759
10:00:30:427;0.49799395;10.5919485;0.842759
10:00:30:427;0.49799395;10.5919485;0.842759
10:00:30:427;0.49799395;10.5919485;0.842759
10:00:30:427;0.49799395;10.5919485;0.842759
10:00:30:427;0.49799395;10.5919485;0.842759
10:00:30:427;0.49799395;10.5919485;0.842759
10:00:30:545;0.5746084;10.840945;0.7469909
10:00:30:545;0.5746084;10.840945;0.7469909
10:00:30:545;0.5746084;10.840945;0.7469909
10:00:30:545;0.5746084;10.840945;0.7469909
10:00:30:545;0.5746084;10.840945;0.7469909
10:00:30:545;0.5746084;10.840945;0.7469909
10:00:30:545;0.5746084;10.840945;0.7469909
10:00:30:545;0.5746084;10.840945;0.7469909
10:00:30:545;0.5746084;10.840945;0.7469909
10:00:30:545;0.5746084;10.840945;0.7469909
10:00:30:545;0.5746084;10.840945;0.7469909
10:00:30:545;0.5746084;10.840945;0.7469909
10:00:30:545;0.5746084;10.840945;0.7469909
10:00:30:545;0.5746084;10.840945;0.7469909
10:00:30:545;0.5746084;10.840945;0.7469909
10:00:30:661;0.63206923;9.423578;0.8810662
10:00:30:661;0.63206923;9.423578;0.8810662
10:00:30:661;0.63206923;9.423578;0.8810662
10:00:30:661;0.63206923;9.423578;0.8810662
10:00:30:661;0.63206923;9.423578;0.8810662
10:00:30:661;0.63206923;9.423578;0.8810662
10:00:30:661;0.63206923;9.423578;0.8810662
10:00:30:661;0.63206923;9.423578;0.8810662
10:00:30:661;0.63206923;9.423578;0.8810662
10:00:30:661;0.63206923;9.423578;0.8810662
10:00:30:661;0.63206923;9.423578;0.8810662
10:00:30:661;0.63206923;9.423578;0.8810662
10:00:30:661;0.63206923;9.423578;0.8810662
10:00:30:661;0.63206923;9.423578;0.8810662
10:00:30:773;0.8619126;10.208876;0.9768343
10:00:30:773;0.8619126;10.208876;0.9768343
10:00:30:773;0.8619126;10.208876;0.9768343
10:00:30:773;0.8619126;10.208876;0.9768343
10:00:30:773;0.8619126;10.208876;0.9768343
10:00:30:773;0.8619126;10.208876;0.9768343
10:00:30:773;0.8619126;10.208876;0.9768343
10:00:30:773;0.8619126;10.208876;0.9768343
10:00:30:773;0.8619126;10.208876;0.9768343
10:00:30:773;0.8619126;10.208876;0.9768343
10:00:30:773;0.8619126;10.208876;0.9768343
10:00:30:773;0.8619126;10.208876;0.9768343
10:00:30:773;0.8619126;10.208876;0.9768343
10:00:30:773;0.8619126;10.208876;0.9768343
10:00:30:881;0.6512229;9.557653;1.8579005
10:00:30:881;0.6512229;9.557653;1.8579005
10:00:30:881;0.6512229;9.557653;1.8579005
10:00:30:881;0.6512229;9.557653;1.8579005
10:00:30:881;0.6512229;9.557653;1.8579005
10:00:30:881;0.6512229;9.557653;1.8579005
10:00:30:881;0.6512229;9.557653;1.8579005
10:00:30:881;0.6512229;9.557653;1.8579005
10:00:30:881;0.6512229;9.557653;1.8579005
10:00:30:881;0.6512229;9.557653;1.8579005
10:00:30:881;0.6512229;9.557653;1.8579005
10:00:30:881;0.6512229;9.557653;1.8579005
10:00:30:881;0.6512229;9.557653;1.8579005
10:00:30:881;0.6512229;9.557653;1.8579005
10:00:30:881;0.6512229;9.557653;1.8579005
10:00:31:000;0.7661445;10.151415;0.7469909
10:00:31:000;0.7661445;10.151415;0.7469909
10:00:31:000;0.7661445;10.151415;0.7469909
10:00:31:000;0.7661445;10.151415;0.7469909
10:00:31:000;0.7661445;10.151415;0.7469909
10:00:31:000;0.7661445;10.151415;0.7469909
10:00:31:000;0.7661445;10.151415;0.7469909
10:00:31:000;0.7661445;10.151415;0.7469909
10:00:31:000;0.7661445;10.151415;0.7469909
10:00:31:000;0.7661445;10.151415;0.7469909
10:00:31:000;0.7661445;10.151415;0.7469909
10:00:31:000;0.7661445;10.151415;0.7469909
10:00:31:000;0.7661445;10.151415;0.7469909
10:00:31:000;0.7661445;10.151415;0.7469909
10:00:31:000;0.7661445;10.151415;0.7469909
10:00:31:000;0.7661445;10.151415;0.7469909
10:00:31:000;0.7661445;10.151415;0.7469909
10:00:31:000;0.7661445;10.151415;0.7469909
10:00:31:000;0.7661445;10.151415;0.7469909
10:00:31:147;-0.5746084;9.308656;2.183512
10:00:31:147;-0.5746084;9.308656;2.183512
10:00:31:147;-0.5746084;9.308656;2.183512
10:00:31:147;-0.5746084;9.308656;2.183512
10:00:31:147;-0.5746084;9.308656;2.183512
10:00:31:147;-0.5746084;9.308656;2.183512
10:00:31:147;-0.5746084;9.308656;2.183512
10:00:31:147;-0.5746084;9.308656;2.183512
10:00:31:147;-0.5746084;9.308656;2.183512
10:00:31:147;-0.5746084;9.308656;2.183512
10:00:31:147;-0.5746084;9.308656;2.183512
10:00:31:147;-0.5746084;9.308656;2.183512
10:00:31:147;-0.5746084;9.308656;2.183512
10:00:31:147;-0.5746084;9.308656;2.183512
10:00:31:147;-0.5746084;9.308656;2.183512
10:00:31:260;0.076614454;9.749189;2.4899697
10:00:31:260;0.076614454;9.749189;2.4899697
10:00:31:260;0.076614454;9.749189;2.4899697
10:00:31:260;0.076614454;9.749189;2.4899697
10:00:31:260;0.076614454;9.749189;2.4899697
10:00:31:260;0.076614454;9.749189;2.4899697
10:00:31:260;0.076614454;9.749189;2.4899697
10:00:31:260;0.076614454;9.749189;2.4899697
10:00:31:260;0.076614454;9.749189;2.4899697
10:00:31:260;0.076614454;9.749189;2.4899697
10:00:31:260;0.076614454;9.749189;2.4899697
10:00:31:260;0.076614454;9.749189;2.4899697
10:00:31:260;0.076614454;9.749189;2.4899697
10:00:31:260;0.076614454;9.749189;2.4899697
10:00:31:260;0.076614454;9.749189;2.4899697
10:00:31:380;0.5746084;9.864111;1.5514427
10:00:31:380;0.5746084;9.864111;1.5514427
10:00:31:380;0.5746084;9.864111;1.5514427
10:00:31:380;0.5746084;9.864111;1.5514427
10:00:31:380;0.5746084;9.864111;1.5514427
10:00:31:380;0.5746084;9.864111;1.5514427
10:00:31:380;0.5746084;9.864111;1.5514427
10:00:31:380;0.5746084;9.864111;1.5514427
10:00:31:380;0.5746084;9.864111;1.5514427
10:00:31:380;0.5746084;9.864111;1.5514427
10:00:31:380;0.5746084;9.864111;1.5514427
10:00:31:380;0.5746084;9.864111;1.5514427
10:00:31:380;0.5746084;9.864111;1.5514427
10:00:31:380;0.5746084;9.864111;1.5514427
10:00:31:486;1.2641385;7.6614456;2.5474305
10:00:31:486;1.2641385;7.6614456;2.5474305
10:00:31:486;1.2641385;7.6614456;2.5474305
10:00:31:486;1.2641385;7.6614456;2.5474305
10:00:31:486;1.2641385;7.6614456;2.5474305
10:00:31:486;1.2641385;7.6614456;2.5474305
10:00:31:486;1.2641385;7.6614456;2.5474305
10:00:31:486;1.2641385;7.6614456;2.5474305
10:00:31:486;1.2641385;7.6614456;2.5474305
10:00:31:486;1.2641385;7.6614456;2.5474305
10:00:31:486;1.2641385;7.6614456;2.5474305
10:00:31:486;1.2641385;7.6614456;2.5474305
10:00:31:486;1.2641385;7.6614456;2.5474305
10:00:31:486;1.2641385;7.6614456;2.5474305
10:00:31:596;0.49799395;8.408437;3.715801
10:00:31:596;0.49799395;8.408437;3.715801
10:00:31:596;0.49799395;8.408437;3.715801
10:00:31:596;0.49799395;8.408437;3.715801
10:00:31:596;0.49799395;8.408437;3.715801
10:00:31:596;0.49799395;8.408437;3.715801
10:00:31:596;0.49799395;8.408437;3.715801
10:00:31:596;0.49799395;8.408437;3.715801
10:00:31:596;0.49799395;8.408437;3.715801
10:00:31:596;0.49799395;8.408437;3.715801
10:00:31:596;0.49799395;8.408437;3.715801
10:00:31:596;0.49799395;8.408437;3.715801
10:00:31:596;0.49799395;8.408437;3.715801
10:00:31:596;0.49799395;8.408437;3.715801
10:00:31:596;0.49799395;8.408437;3.715801
10:00:31:714;-0.11492168;12.890382;-0.038307227
10:00:31:714;-0.11492168;12.890382;-0.038307227
10:00:31:714;-0.11492168;12.890382;-0.038307227
10:00:31:714;-0.11492168;12.890382;-0.038307227
10:00:31:714;-0.11492168;12.890382;-0.038307227
10:00:31:714;-0.11492168;12.890382;-0.038307227
10:00:31:714;-0.11492168;12.890382;-0.038307227
10:00:31:714;-0.11492168;12.890382;-0.038307227
10:00:31:714;-0.11492168;12.890382;-0.038307227
10:00:31:714;-0.11492168;12.890382;-0.038307227
10:00:31:714;-0.11492168;12.890382;-0.038307227
10:00:31:714;-0.11492168;12.890382;-0.038307227
10:00:31:714;-0.11492168;12.890382;-0.038307227
10:00:31:816;0.49799395;9.653421;0.7661445
10:00:31:816;0.49799395;9.653421;0.7661445
10:00:31:816;0.49799395;9.653421;0.7661445
10:00:31:816;0.49799395;9.653421;0.7661445
10:00:31:816;0.49799395;9.653421;0.7661445
10:00:31:816;0.49799395;9.653421;0.7661445
10:00:31:816;0.49799395;9.653421;0.7661445
10:00:31:816;0.49799395;9.653421;0.7661445
10:00:31:816;0.49799395;9.653421;0.7661445
10:00:31:816;0.49799395;9.653421;0.7661445
10:00:31:816;0.49799395;9.653421;0.7661445
10:00:31:816;0.49799395;9.653421;0.7661445
10:00:31:816;0.49799395;9.653421;0.7661445
10:00:31:816;0.49799395;9.653421;0.7661445
10:00:31:816;0.49799395;9.653421;0.7661445
10:00:31:935;0.4213795;7.4507556;3.8881836
10:00:31:935;0.4213795;7.4507556;3.8881836
10:00:31:935;0.4213795;7.4507556;3.8881836
10:00:31:935;0.4213795;7.4507556;3.8881836
10:00:31:935;0.4213795;7.4507556;3.8881836
10:00:31:935;0.4213795;7.4507556;3.8881836
10:00:31:935;0.4213795;7.4507556;3.8881836
10:00:31:935;0.4213795;7.4507556;3.8881836
10:00:31:935;0.4213795;7.4507556;3.8881836
10:00:31:935;0.4213795;7.4507556;3.8881836
10:00:31:935;0.4213795;7.4507556;3.8881836
10:00:31:935;0.4213795;7.4507556;3.8881836
10:00:31:935;0.4213795;7.4507556;3.8881836
10:00:31:935;0.4213795;7.4507556;3.8881836
10:00:31:935;0.4213795;7.4507556;3.8881836
10:00:31:935;0.4213795;7.4507556;3.8881836
10:00:31:935;0.4213795;7.4507556;3.8881836
10:00:32:068;1.1683705;11.473015;1.091756
10:00:32:068;1.1683705;11.473015;1.091756
10:00:32:068;1.1683705;11.473015;1.091756
10:00:32:068;1.1683705;11.473015;1.091756
10:00:32:068;1.1683705;11.473015;1.091756
10:00:32:068;1.1683705;11.473015;1.091756
10:00:32:068;1.1683705;11.473015;1.091756
10:00:32:068;1.1683705;11.473015;1.091756
10:00:32:068;1.1683705;11.473015;1.091756
10:00:32:068;1.1683705;11.473015;1.091756
10:00:32:068;1.1683705;11.473015;1.091756
10:00:32:068;1.1683705;11.473015;1.091756
10:00:32:068;1.1683705;11.473015;1.091756
10:00:32:170;0.21068975;11.089942;1.8004397
10:00:32:170;0.21068975;11.089942;1.8004397
10:00:32:170;0.21068975;11.089942;1.8004397
10:00:32:170;0.21068975;11.089942;1.8004397
10:00:32:170;0.21068975;11.089942;1.8004397
10:00:32:170;0.21068975;11.089942;1.8004397
10:00:32:170;0.21068975;11.089942;1.8004397
10:00:32:170;0.21068975;11.089942;1.8004397
10:00:32:170;0.21068975;11.089942;1.8004397
10:00:32:170;0.21068975;11.089942;1.8004397
10:00:32:170;0.21068975;11.089942;1.8004397
10:00:32:170;0.21068975;11.089942;1.8004397
10:00:32:170;0.21068975;11.089942;1.8004397
10:00:32:273;1.0342951;9.136273;1.4939818
10:00:32:273;1.0342951;9.136273;1.4939818
10:00:32:273;1.0342951;9.136273;1.4939818
10:00:32:273;1.0342951;9.136273;1.4939818
10:00:32:273;1.0342951;9.136273;1.4939818
10:00:32:273;1.0342951;9.136273;1.4939818
10:00:32:273;1.0342951;9.136273;1.4939818
10:00:32:273;1.0342951;9.136273;1.4939818
10:00:32:273;1.0342951;9.136273;1.4939818
10:00:32:273;1.0342951;9.136273;1.4939818
10:00:32:273;1.0342951;9.136273;1.4939818
10:00:32:273;1.0342951;9.136273;1.4939818
10:00:32:273;1.0342951;9.136273;1.4939818
10:00:32:273;1.0342951;9.136273;1.4939818
10:00:32:273;1.0342951;9.136273;1.4939818
10:00:32:273;1.0342951;9.136273;1.4939818
10:00:32:391;0.34476504;10.821792;1.5131354
10:00:32:391;0.34476504;10.821792;1.5131354
10:00:32:391;0.34476504;10.821792;1.5131354
10:00:32:391;0.34476504;10.821792;1.5131354
10:00:32:391;0.34476504;10.821792;1.5131354
10:00:32:391;0.34476504;10.821792;1.5131354
10:00:32:391;0.34476504;10.821792;1.5131354
10:00:32:391;0.34476504;10.821792;1.5131354
10:00:32:391;0.34476504;10.821792;1.5131354
10:00:32:391;0.34476504;10.821792;1.5131354
10:00:32:391;0.34476504;10.821792;1.5131354
10:00:32:391;0.34476504;10.821792;1.5131354
10:00:32:391;0.34476504;10.821792;1.5131354
10:00:32:391;0.34476504;10.821792;1.5131354
10:00:32:391;0.34476504;10.821792;1.5131354
10:00:32:510;-0.19153613;10.093954;1.8579005
10:00:32:510;-0.19153613;10.093954;1.8579005
10:00:32:510;-0.19153613;10.093954;1.8579005
10:00:32:510;-0.19153613;10.093954;1.8579005
10:00:32:510;-0.19153613;10.093954;1.8579005
10:00:32:510;-0.19153613;10.093954;1.8579005
10:00:32:510;-0.19153613;10.093954;1.8579005
10:00:32:510;-0.19153613;10.093954;1.8579005
10:00:32:510;-0.19153613;10.093954;1.8579005
10:00:32:510;-0.19153613;10.093954;1.8579005
10:00:32:510;-0.19153613;10.093954;1.8579005
10:00:32:510;-0.19153613;10.093954;1.8579005
10:00:32:510;-0.19153613;10.093954;1.8579005
10:00:32:612;0.8810662;8.963891;2.3942018
10:00:32:612;0.8810662;8.963891;2.3942018
10:00:32:612;0.8810662;8.963891;2.3942018
10:00:32:612;0.8810662;8.963891;2.3942018
10:00:32:612;0.8810662;8.963891;2.3942018
10:00:32:612;0.8810662;8.963891;2.3942018
10:00:32:612;0.8810662;8.963891;2.3942018
10:00:32:612;0.8810662;8.963891;2.3942018
10:00:32:612;0.8810662;8.963891;2.3942018
10:00:32:612;0.8810662;8.963891;2.3942018
10:00:32:612;0.8810662;8.963891;2.3942018
10:00:32:612;0.8810662;8.963891;2.3942018
10:00:32:612;0.8810662;8.963891;2.3942018
10:00:32:612;0.8810662;8.963891;2.3942018
10:00:32:612;0.8810662;8.963891;2.3942018
10:00:32:729;0.59376204;10.457873;2.1452048
10:00:32:729;0.59376204;10.457873;2.1452048
10:00:32:729;0.59376204;10.457873;2.1452048
10:00:32:729;0.59376204;10.457873;2.1452048
10:00:32:729;0.59376204;10.457873;2.1452048
10:00:32:729;0.59376204;10.457873;2.1452048
10:00:32:729;0.59376204;10.457873;2.1452048
10:00:32:729;0.59376204;10.457873;2.1452048
10:00:32:729;0.59376204;10.457873;2.1452048
10:00:32:729;0.59376204;10.457873;2.1452048
10:00:32:729;0.59376204;10.457873;2.1452048
10:00:32:729;0.59376204;10.457873;2.1452048
10:00:32:729;0.59376204;10.457873;2.1452048
10:00:32:729;0.59376204;10.457873;2.1452048
10:00:32:729;0.59376204;10.457873;2.1452048
10:00:32:846;1.091756;10.342952;1.6663644
10:00:32:846;1.091756;10.342952;1.6663644
10:00:32:846;1.091756;10.342952;1.6663644
10:00:32:846;1.091756;10.342952;1.6663644
10:00:32:846;1.091756;10.342952;1.6663644
10:00:32:846;1.091756;10.342952;1.6663644
10:00:32:846;1.091756;10.342952;1.6663644
10:00:32:846;1.091756;10.342952;1.6663644
10:00:32:846;1.091756;10.342952;1.6663644
10:00:32:846;1.091756;10.342952;1.6663644
10:00:32:846;1.091756;10.342952;1.6663644
10:00:32:846;1.091756;10.342952;1.6663644
10:00:32:846;1.091756;10.342952;1.6663644
10:00:32:846;1.091756;10.342952;1.6663644
10:00:32:846;1.091756;10.342952;1.6663644
10:00:32:965;0.78529817;10.477027;1.8770541
10:00:32:965;0.78529817;10.477027;1.8770541
10:00:32:965;0.78529817;10.477027;1.8770541
10:00:32:965;0.78529817;10.477027;1.8770541
10:00:32:965;0.78529817;10.477027;1.8770541
10:00:32:965;0.78529817;10.477027;1.8770541
10:00:32:965;0.78529817;10.477027;1.8770541
10:00:32:965;0.78529817;10.477027;1.8770541
10:00:32:965;0.78529817;10.477027;1.8770541
10:00:32:965;0.78529817;10.477027;1.8770541
10:00:32:965;0.78529817;10.477027;1.8770541
10:00:32:965;0.78529817;10.477027;1.8770541
10:00:32:965;0.78529817;10.477027;1.8770541
10:00:32:965;0.78529817;10.477027;1.8770541
10:00:32:965;0.78529817;10.477027;1.8770541
10:00:33:082;0.7278373;11.013328;1.532289
10:00:33:082;0.7278373;11.013328;1.532289
10:00:33:082;0.7278373;11.013328;1.532289
10:00:33:082;0.7278373;11.013328;1.532289
10:00:33:082;0.7278373;11.013328;1.532289
10:00:33:082;0.7278373;11.013328;1.532289
10:00:33:082;0.7278373;11.013328;1.532289
10:00:33:082;0.7278373;11.013328;1.532289
10:00:33:082;0.7278373;11.013328;1.532289
10:00:33:082;0.7278373;11.013328;1.532289
10:00:33:082;0.7278373;11.013328;1.532289
10:00:33:082;0.7278373;11.013328;1.532289
10:00:33:082;0.7278373;11.013328;1.532289
10:00:33:082;0.7278373;11.013328;1.532289
10:00:33:188;1.0151415;9.883265;0.9768343
10:00:33:188;1.0151415;9.883265;0.9768343
10:00:33:188;1.0151415;9.883265;0.9768343
10:00:33:188;1.0151415;9.883265;0.9768343
10:00:33:188;1.0151415;9.883265;0.9768343
10:00:33:188;1.0151415;9.883265;0.9768343
10:00:33:188;1.0151415;9.883265;0.9768343
10:00:33:188;1.0151415;9.883265;0.9768343
10:00:33:188;1.0151415;9.883265;0.9768343
10:00:33:188;1.0151415;9.883265;0.9768343
10:00:33:188;1.0151415;9.883265;0.9768343
10:00:33:188;1.0151415;9.883265;0.9768343
10:00:33:188;1.0151415;9.883265;0.9768343
10:00:33:295;0.8619126;9.576807;1.7238252
10:00:33:295;0.8619126;9.576807;1.7238252
10:00:33:295;0.8619126;9.576807;1.7238252
10:00:33:295;0.8619126;9.576807;1.7238252
10:00:33:295;0.8619126;9.576807;1.7238252
10:00:33:295;0.8619126;9.576807;1.7238252
10:00:33:295;0.8619126;9.576807;1.7238252
10:00:33:295;0.8619126;9.576807;1.7238252
10:00:33:295;0.8619126;9.576807;1.7238252
10:00:33:295;0.8619126;9.576807;1.7238252
10:00:33:295;0.8619126;9.576807;1.7238252
10:00:33:295;0.8619126;9.576807;1.7238252
10:00:33:295;0.8619126;9.576807;1.7238252
10:00:33:295;0.8619126;9.576807;1.7238252
10:00:33:295;0.8619126;9.576807;1.7238252
10:00:33:295;0.8619126;9.576807;1.7238252
10:00:33:295;0.8619126;9.576807;1.7238252
10:00:33:295;0.8619126;9.576807;1.7238252
10:00:33:433;0.9576807;9.825804;2.0494366
10:00:33:433;0.9576807;9.825804;2.0494366
10:00:33:433;0.9576807;9.825804;2.0494366
10:00:33:433;0.9576807;9.825804;2.0494366
10:00:33:433;0.9576807;9.825804;2.0494366
10:00:33:433;0.9576807;9.825804;2.0494366
10:00:33:433;0.9576807;9.825804;2.0494366
10:00:33:433;0.9576807;9.825804;2.0494366
10:00:33:433;0.9576807;9.825804;2.0494366
10:00:33:433;0.9576807;9.825804;2.0494366
10:00:33:433;0.9576807;9.825804;2.0494366
10:00:33:433;0.9576807;9.825804;2.0494366
10:00:33:433;0.9576807;9.825804;2.0494366
10:00:33:433;0.9576807;9.825804;2.0494366
10:00:33:542;0.4405331;10.362105;2.336741
10:00:33:542;0.4405331;10.362105;2.336741
10:00:33:542;0.4405331;10.362105;2.336741
10:00:33:542;0.4405331;10.362105;2.336741
10:00:33:542;0.4405331;10.362105;2.336741
10:00:33:542;0.4405331;10.362105;2.336741
10:00:33:542;0.4405331;10.362105;2.336741
10:00:33:542;0.4405331;10.362105;2.336741
10:00:33:542;0.4405331;10.362105;2.336741
10:00:33:542;0.4405331;10.362105;2.336741
10:00:33:542;0.4405331;10.362105;2.336741
10:00:33:542;0.4405331;10.362105;2.336741
10:00:33:542;0.4405331;10.362105;2.336741
10:00:33:542;0.4405331;10.362105;2.336741
10:00:33:542;0.4405331;10.362105;2.336741
10:00:33:542;0.4405331;10.362105;2.336741
10:00:33:542;0.4405331;10.362105;2.336741
10:00:33:678;1.0342951;10.400413;2.1260512
10:00:33:678;1.0342951;10.400413;2.1260512
10:00:33:678;1.0342951;10.400413;2.1260512
10:00:33:678;1.0342951;10.400413;2.1260512
10:00:33:678;1.0342951;10.400413;2.1260512
10:00:33:678;1.0342951;10.400413;2.1260512
10:00:33:678;1.0342951;10.400413;2.1260512
10:00:33:678;1.0342951;10.400413;2.1260512
10:00:33:678;1.0342951;10.400413;2.1260512
10:00:33:678;1.0342951;10.400413;2.1260512
10:00:33:678;1.0342951;10.400413;2.1260512
10:00:33:678;1.0342951;10.400413;2.1260512
10:00:33:678;1.0342951;10.400413;2.1260512
10:00:33:780;0.36391866;9.844957;2.2601264
10:00:33:780;0.36391866;9.844957;2.2601264
10:00:33:780;0.36391866;9.844957;2.2601264
10:00:33:780;0.36391866;9.844957;2.2601264
10:00:33:780;0.36391866;9.844957;2.2601264
10:00:33:780;0.36391866;9.844957;2.2601264
10:00:33:780;0.36391866;9.844957;2.2601264
10:00:33:780;0.36391866;9.844957;2.2601264
10:00:33:780;0.36391866;9.844957;2.2601264
10:00:33:780;0.36391866;9.844957;2.2601264
10:00:33:780;0.36391866;9.844957;2.2601264
10:00:33:780;0.36391866;9.844957;2.2601264
10:00:33:780;0.36391866;9.844957;2.2601264
10:00:33:780;0.36391866;9.844957;2.2601264
10:00:33:780;0.36391866;9.844957;2.2601264
10:00:33:898;1.6280571;11.473015;1.4939818
10:00:33:898;1.6280571;11.473015;1.4939818
10:00:33:898;1.6280571;11.473015;1.4939818
10:00:33:898;1.6280571;11.473015;1.4939818
10:00:33:898;1.6280571;11.473015;1.4939818
10:00:33:898;1.6280571;11.473015;1.4939818
10:00:33:898;1.6280571;11.473015;1.4939818
10:00:33:898;1.6280571;11.473015;1.4939818
10:00:33:898;1.6280571;11.473015;1.4939818
10:00:33:898;1.6280571;11.473015;1.4939818
10:00:33:898;1.6280571;11.473015;1.4939818
10:00:33:898;1.6280571;11.473015;1.4939818
10:00:33:898;1.6280571;11.473015;1.4939818
10:00:33:898;1.6280571;11.473015;1.4939818
10:00:33:898;1.6280571;11.473015;1.4939818
10:00:34:014;0.22984336;9.174581;4.098873
10:00:34:014;0.22984336;9.174581;4.098873
10:00:34:014;0.22984336;9.174581;4.098873
10:00:34:014;0.22984336;9.174581;4.098873
10:00:34:014;0.22984336;9.174581;4.098873
10:00:34:014;0.22984336;9.174581;4.098873
10:00:34:014;0.22984336;9.174581;4.098873
10:00:34:014;0.22984336;9.174581;4.098873
10:00:34:014;0.22984336;9.174581;4.098873
10:00:34:014;0.22984336;9.174581;4.098873
10:00:34:014;0.22984336;9.174581;4.098873
10:00:34:014;0.22984336;9.174581;4.098873
10:00:34:014;0.22984336;9.174581;4.098873
10:00:34:115;0.45968673;9.136273;2.719813
10:00:34:115;0.45968673;9.136273;2.719813
10:00:34:115;0.45968673;9.136273;2.719813
10:00:34:115;0.45968673;9.136273;2.719813
10:00:34:115;0.45968673;9.136273;2.719813
10:00:34:115;0.45968673;9.136273;2.719813
10:00:34:115;0.45968673;9.136273;2.719813
10:00:34:115;0.45968673;9.136273;2.719813
10:00:34:115;0.45968673;9.136273;2.719813
10:00:34:115;0.45968673;9.136273;2.719813
10:00:34:115;0.45968673;9.136273;2.719813
10:00:34:115;0.45968673;9.136273;2.719813
10:00:34:115;0.45968673;9.136273;2.719813
10:00:34:115;0.45968673;9.136273;2.719813
10:00:34:223;0.40222588;10.43872;2.4899697
10:00:34:223;0.40222588;10.43872;2.4899697
10:00:34:223;0.40222588;10.43872;2.4899697
10:00:34:223;0.40222588;10.43872;2.4899697
10:00:34:223;0.40222588;10.43872;2.4899697
10:00:34:223;0.40222588;10.43872;2.4899697
10:00:34:223;0.40222588;10.43872;2.4899697
10:00:34:223;0.40222588;10.43872;2.4899697
10:00:34:223;0.40222588;10.43872;2.4899697
10:00:34:223;0.40222588;10.43872;2.4899697
10:00:34:223;0.40222588;10.43872;2.4899697
10:00:34:223;0.40222588;10.43872;2.4899697
10:00:34:223;0.40222588;10.43872;2.4899697
10:00:34:223;0.40222588;10.43872;2.4899697
10:00:34:223;0.40222588;10.43872;2.4899697
10:00:34:337;0.30645782;9.461885;2.087744
10:00:34:337;0.30645782;9.461885;2.087744
10:00:34:337;0.30645782;9.461885;2.087744
10:00:34:337;0.30645782;9.461885;2.087744
10:00:34:337;0.30645782;9.461885;2.087744
10:00:34:337;0.30645782;9.461885;2.087744
10:00:34:337;0.30645782;9.461885;2.087744
10:00:34:337;0.30645782;9.461885;2.087744
10:00:34:337;0.30645782;9.461885;2.087744
10:00:34:337;0.30645782;9.461885;2.087744
10:00:34:337;0.30645782;9.461885;2.087744
10:00:34:337;0.30645782;9.461885;2.087744
10:00:34:337;0.30645782;9.461885;2.087744
10:00:34:337;0.30645782;9.461885;2.087744
10:00:34:337;0.30645782;9.461885;2.087744
10:00:34:337;0.30645782;9.461885;2.087744
10:00:34:337;0.30645782;9.461885;2.087744
10:00:34:337;0.30645782;9.461885;2.087744
10:00:34:483;0.80445176;10.228029;1.4939818
10:00:34:483;0.80445176;10.228029;1.4939818
10:00:34:483;0.80445176;10.228029;1.4939818
10:00:34:483;0.80445176;10.228029;1.4939818
10:00:34:483;0.80445176;10.228029;1.4939818
10:00:34:483;0.80445176;10.228029;1.4939818
10:00:34:483;0.80445176;10.228029;1.4939818
10:00:34:483;0.80445176;10.228029;1.4939818
10:00:34:483;0.80445176;10.228029;1.4939818
10:00:34:483;0.80445176;10.228029;1.4939818
10:00:34:483;0.80445176;10.228029;1.4939818
10:00:34:483;0.80445176;10.228029;1.4939818
10:00:34:483;0.80445176;10.228029;1.4939818
10:00:34:483;0.80445176;10.228029;1.4939818
10:00:34:483;0.80445176;10.228029;1.4939818
10:00:34:594;0.59376204;9.883265;1.8770541
10:00:34:594;0.59376204;9.883265;1.8770541
10:00:34:594;0.59376204;9.883265;1.8770541
10:00:34:594;0.59376204;9.883265;1.8770541
10:00:34:594;0.59376204;9.883265;1.8770541
10:00:34:594;0.59376204;9.883265;1.8770541
10:00:34:594;0.59376204;9.883265;1.8770541
10:00:34:594;0.59376204;9.883265;1.8770541
10:00:34:594;0.59376204;9.883265;1.8770541
10:00:34:594;0.59376204;9.883265;1.8770541
10:00:34:594;0.59376204;9.883265;1.8770541
10:00:34:594;0.59376204;9.883265;1.8770541
10:00:34:594;0.59376204;9.883265;1.8770541
10:00:34:594;0.59376204;9.883265;1.8770541
10:00:34:594;0.59376204;9.883265;1.8770541
10:00:34:594;0.59376204;9.883265;1.8770541
10:00:34:723;0.61291564;9.193734;1.340753
10:00:34:723;0.61291564;9.193734;1.340753
10:00:34:723;0.61291564;9.193734;1.340753
10:00:34:723;0.61291564;9.193734;1.340753
10:00:34:723;0.61291564;9.193734;1.340753
10:00:34:723;0.61291564;9.193734;1.340753
10:00:34:723;0.61291564;9.193734;1.340753
10:00:34:723;0.61291564;9.193734;1.340753
10:00:34:723;0.61291564;9.193734;1.340753
10:00:34:723;0.61291564;9.193734;1.340753
10:00:34:723;0.61291564;9.193734;1.340753
10:00:34:723;0.61291564;9.193734;1.340753
10:00:34:723;0.61291564;9.193734;1.340753
10:00:34:723;0.61291564;9.193734;1.340753
10:00:34:830;0.6703765;10.189722;2.1260512
10:00:34:830;0.6703765;10.189722;2.1260512
10:00:34:830;0.6703765;10.189722;2.1260512
10:00:34:830;0.6703765;10.189722;2.1260512
10:00:34:830;0.6703765;10.189722;2.1260512
10:00:34:830;0.6703765;10.189722;2.1260512
10:00:34:830;0.6703765;10.189722;2.1260512
10:00:34:830;0.6703765;10.189722;2.1260512
10:00:34:830;0.6703765;10.189722;2.1260512
10:00:34:830;0.6703765;10.189722;2.1260512
10:00:34:830;0.6703765;10.189722;2.1260512
10:00:34:830;0.6703765;10.189722;2.1260512
10:00:34:830;0.6703765;10.189722;2.1260512
10:00:34:830;0.6703765;10.189722;2.1260512
10:00:34:830;0.6703765;10.189722;2.1260512
10:00:34:949;0.842759;9.3661175;0.90021986
10:00:34:949;0.842759;9.3661175;0.90021986
10:00:34:949;0.842759;9.3661175;0.90021986
10:00:34:949;0.842759;9.3661175;0.90021986
10:00:34:949;0.842759;9.3661175;0.90021986
10:00:34:949;0.842759;9.3661175;0.90021986
10:00:34:949;0.842759;9.3661175;0.90021986
10:00:34:949;0.842759;9.3661175;0.90021986
10:00:34:949;0.842759;9.3661175;0.90021986
10:00:34:949;0.842759;9.3661175;0.90021986
10:00:34:949;0.842759;9.3661175;0.90021986
10:00:34:949;0.842759;9.3661175;0.90021986
10:00:34:949;0.842759;9.3661175;0.90021986
10:00:34:949;0.842759;9.3661175;0.90021986
10:00:35:057;0.6512229;11.089942;1.532289
10:00:35:057;0.6512229;11.089942;1.532289
10:00:35:057;0.6512229;11.089942;1.532289
10:00:35:057;0.6512229;11.089942;1.532289
10:00:35:057;0.6512229;11.089942;1.532289
10:00:35:057;0.6512229;11.089942;1.532289
10:00:35:057;0.6512229;11.089942;1.532289
10:00:35:057;0.6512229;11.089942;1.532289
10:00:35:057;0.6512229;11.089942;1.532289
10:00:35:057;0.6512229;11.089942;1.532289
10:00:35:057;0.6512229;11.089942;1.532289
10:00:35:057;0.6512229;11.089942;1.532289
10:00:35:057;0.6512229;11.089942;1.532289
10:00:35:057;0.6512229;11.089942;1.532289
10:00:35:057;0.6512229;11.089942;1.532289
10:00:35:174;-0.076614454;10.170568;2.566584
10:00:35:174;-0.076614454;10.170568;2.566584
10:00:35:174;-0.076614454;10.170568;2.566584
10:00:35:174;-0.076614454;10.170568;2.566584
10:00:35:174;-0.076614454;10.170568;2.566584
10:00:35:174;-0.076614454;10.170568;2.566584
10:00:35:174;-0.076614454;10.170568;2.566584
10:00:35:174;-0.076614454;10.170568;2.566584
10:00:35:174;-0.076614454;10.170568;2.566584
10:00:35:174;-0.076614454;10.170568;2.566584
10:00:35:174;-0.076614454;10.170568;2.566584
10:00:35:174;-0.076614454;10.170568;2.566584
10:00:35:174;-0.076614454;10.170568;2.566584
10:00:35:275;0.2681506;10.0748005;1.6280571
10:00:35:275;0.2681506;10.0748005;1.6280571
10:00:35:275;0.2681506;10.0748005;1.6280571
10:00:35:275;0.2681506;10.0748005;1.6280571
10:00:35:275;0.2681506;10.0748005;1.6280571
10:00:35:275;0.2681506;10.0748005;1.6280571
10:00:35:275;0.2681506;10.0748005;1.6280571
10:00:35:275;0.2681506;10.0748005;1.6280571
10:00:35:275;0.2681506;10.0748005;1.6280571
10:00:35:275;0.2681506;10.0748005;1.6280571
10:00:35:275;0.2681506;10.0748005;1.6280571
10:00:35:275;0.2681506;10.0748005;1.6280571
10:00:35:275;0.2681506;10.0748005;1.6280571
10:00:35:275;0.2681506;10.0748005;1.6280571
10:00:35:388;0.61291564;9.423578;1.4173675
10:00:35:388;0.61291564;9.423578;1.4173675
10:00:35:388;0.61291564;9.423578;1.4173675
10:00:35:388;0.61291564;9.423578;1.4173675
10:00:35:388;0.61291564;9.423578;1.4173675
10:00:35:388;0.61291564;9.423578;1.4173675
10:00:35:388;0.61291564;9.423578;1.4173675
10:00:35:388;0.61291564;9.423578;1.4173675
10:00:35:388;0.61291564;9.423578;1.4173675
10:00:35:388;0.61291564;9.423578;1.4173675
10:00:35:388;0.61291564;9.423578;1.4173675
10:00:35:388;0.61291564;9.423578;1.4173675
10:00:35:388;0.61291564;9.423578;1.4173675
10:00:35:388;0.61291564;9.423578;1.4173675
10:00:35:494;0.842759;9.730036;1.436521
10:00:35:494;0.842759;9.730036;1.436521
10:00:35:494;0.842759;9.730036;1.436521
10:00:35:494;0.842759;9.730036;1.436521
10:00:35:494;0.842759;9.730036;1.436521
10:00:35:494;0.842759;9.730036;1.436521
10:00:35:494;0.842759;9.730036;1.436521
10:00:35:494;0.842759;9.730036;1.436521
10:00:35:494;0.842759;9.730036;1.436521
10:00:35:494;0.842759;9.730036;1.436521
10:00:35:494;0.842759;9.730036;1.436521
10:00:35:494;0.842759;9.730036;1.436521
10:00:35:494;0.842759;9.730036;1.436521
10:00:35:600;0.6512229;10.6877165;1.3215994
10:00:35:600;0.6512229;10.6877165;1.3215994
10:00:35:600;0.6512229;10.6877165;1.3215994
10:00:35:600;0.6512229;10.6877165;1.3215994
10:00:35:600;0.6512229;10.6877165;1.3215994
10:00:35:600;0.6512229;10.6877165;1.3215994
10:00:35:600;0.6512229;10.6877165;1.3215994
10:00:35:600;0.6512229;10.6877165;1.3215994
10:00:35:600;0.6512229;10.6877165;1.3215994
10:00:35:600;0.6512229;10.6877165;1.3215994
10:00:35:600;0.6512229;10.6877165;1.3215994
10:00:35:600;0.6512229;10.6877165;1.3215994
10:00:35:600;0.6512229;10.6877165;1.3215994
10:00:35:600;0.6512229;10.6877165;1.3215994
10:00:35:600;0.6512229;10.6877165;1.3215994
10:00:35:717;0.05746084;9.921572;1.9728222
10:00:35:717;0.05746084;9.921572;1.9728222
10:00:35:717;0.05746084;9.921572;1.9728222
10:00:35:717;0.05746084;9.921572;1.9728222
10:00:35:717;0.05746084;9.921572;1.9728222
10:00:35:717;0.05746084;9.921572;1.9728222
10:00:35:717;0.05746084;9.921572;1.9728222
10:00:35:717;0.05746084;9.921572;1.9728222
10:00:35:717;0.05746084;9.921572;1.9728222
10:00:35:717;0.05746084;9.921572;1.9728222
10:00:35:717;0.05746084;9.921572;1.9728222
10:00:35:717;0.05746084;9.921572;1.9728222
10:00:35:717;0.05746084;9.921572;1.9728222
10:00:35:717;0.05746084;9.921572;1.9728222
10:00:35:717;0.05746084;9.921572;1.9728222
10:00:35:717;0.05746084;9.921572;1.9728222
10:00:35:838;0.5746084;10.323798;1.2066777
10:00:35:838;0.5746084;10.323798;1.2066777
10:00:35:838;0.5746084;10.323798;1.2066777
10:00:35:838;0.5746084;10.323798;1.2066777
10:00:35:838;0.5746084;10.323798;1.2066777
10:00:35:838;0.5746084;10.323798;1.2066777
10:00:35:838;0.5746084;10.323798;1.2066777
10:00:35:838;0.5746084;10.323798;1.2066777
10:00:35:838;0.5746084;10.323798;1.2066777
10:00:35:838;0.5746084;10.323798;1.2066777
10:00:35:838;0.5746084;10.323798;1.2066777
10:00:35:838;0.5746084;10.323798;1.2066777
10:00:35:838;0.5746084;10.323798;1.2066777
10:00:35:838;0.5746084;10.323798;1.2066777
10:00:35:953;0.49799395;9.634268;2.1260512
10:00:35:953;0.49799395;9.634268;2.1260512
10:00:35:953;0.49799395;9.634268;2.1260512
10:00:35:953;0.49799395;9.634268;2.1260512
10:00:35:953;0.49799395;9.634268;2.1260512
10:00:35:953;0.49799395;9.634268;2.1260512
10:00:35:953;0.49799395;9.634268;2.1260512
10:00:35:953;0.49799395;9.634268;2.1260512
10:00:35:953;0.49799395;9.634268;2.1260512
10:00:35:953;0.49799395;9.634268;2.1260512
10:00:35:953;0.49799395;9.634268;2.1260512
10:00:35:953;0.49799395;9.634268;2.1260512
10:00:35:953;0.49799395;9.634268;2.1260512
10:00:35:953;0.49799395;9.634268;2.1260512
10:00:35:953;0.49799395;9.634268;2.1260512
10:00:35:953;0.49799395;9.634268;2.1260512
10:00:36:072;0.5554548;10.304645;1.1300632
10:00:36:072;0.5554548;10.304645;1.1300632
10:00:36:072;0.5554548;10.304645;1.1300632
10:00:36:072;0.5554548;10.304645;1.1300632
10:00:36:072;0.5554548;10.304645;1.1300632
10:00:36:072;0.5554548;10.304645;1.1300632
10:00:36:072;0.5554548;10.304645;1.1300632
10:00:36:072;0.5554548;10.304645;1.1300632
10:00:36:072;0.5554548;10.304645;1.1300632
10:00:36:072;0.5554548;10.304645;1.1300632
10:00:36:072;0.5554548;10.304645;1.1300632
10:00:36:072;0.5554548;10.304645;1.1300632
10:00:36:072;0.5554548;10.304645;1.1300632
10:00:36:072;0.5554548;10.304645;1.1300632
10:00:36:072;0.5554548;10.304645;1.1300632
10:00:36:188;0.59376204;10.572795;2.2026656
10:00:36:188;0.59376204;10.572795;2.2026656
10:00:36:188;0.59376204;10.572795;2.2026656
10:00:36:188;0.59376204;10.572795;2.2026656
10:00:36:188;0.59376204;10.572795;2.2026656
10:00:36:188;0.59376204;10.572795;2.2026656
10:00:36:188;0.59376204;10.572795;2.2026656
10:00:36:188;0.59376204;10.572795;2.2026656
10:00:36:188;0.59376204;10.572795;2.2026656
10:00:36:188;0.59376204;10.572795;2.2026656
10:00:36:188;0.59376204;10.572795;2.2026656
10:00:36:188;0.59376204;10.572795;2.2026656
10:00:36:188;0.59376204;10.572795;2.2026656
10:00:36:296;0.019153614;10.189722;1.3599066
10:00:36:296;0.019153614;10.189722;1.3599066
10:00:36:296;0.019153614;10.189722;1.3599066
10:00:36:296;0.019153614;10.189722;1.3599066
10:00:36:296;0.019153614;10.189722;1.3599066
10:00:36:296;0.019153614;10.189722;1.3599066
10:00:36:296;0.019153614;10.189722;1.3599066
10:00:36:296;0.019153614;10.189722;1.3599066
10:00:36:296;0.019153614;10.189722;1.3599066
10:00:36:296;0.019153614;10.189722;1.3599066
10:00:36:296;0.019153614;10.189722;1.3599066
10:00:36:296;0.019153614;10.189722;1.3599066
10:00:36:296;0.019153614;10.189722;1.3599066
10:00:36:296;0.019153614;10.189722;1.3599066
10:00:36:296;0.019153614;10.189722;1.3599066
10:00:36:296;0.019153614;10.189722;1.3599066
10:00:36:296;0.019153614;10.189722;1.3599066
10:00:36:296;0.019153614;10.189722;1.3599066
10:00:36:296;0.019153614;10.189722;1.3599066
10:00:36:296;0.019153614;10.189722;1.3599066
10:00:36:296;0.019153614;10.189722;1.3599066
10:00:36:296;0.019153614;10.189722;1.3599066
10:00:36:468;0.45968673;9.136273;1.5705963
10:00:36:468;0.45968673;9.136273;1.5705963
10:00:36:468;0.45968673;9.136273;1.5705963
10:00:36:468;0.45968673;9.136273;1.5705963
10:00:36:468;0.45968673;9.136273;1.5705963
10:00:36:468;0.45968673;9.136273;1.5705963
10:00:36:468;0.45968673;9.136273;1.5705963
10:00:36:468;0.45968673;9.136273;1.5705963
10:00:36:468;0.45968673;9.136273;1.5705963
10:00:36:468;0.45968673;9.136273;1.5705963
10:00:36:468;0.45968673;9.136273;1.5705963
10:00:36:468;0.45968673;9.136273;1.5705963
10:00:36:468;0.45968673;9.136273;1.5705963
10:00:36:468;0.45968673;9.136273;1.5705963
10:00:36:573;0.4213795;8.90643;1.5705963
10:00:36:573;0.4213795;8.90643;1.5705963
10:00:36:573;0.4213795;8.90643;1.5705963
10:00:36:573;0.4213795;8.90643;1.5705963
10:00:36:573;0.4213795;8.90643;1.5705963
10:00:36:573;0.4213795;8.90643;1.5705963
10:00:36:573;0.4213795;8.90643;1.5705963
10:00:36:573;0.4213795;8.90643;1.5705963
10:00:36:573;0.4213795;8.90643;1.5705963
10:00:36:573;0.4213795;8.90643;1.5705963
10:00:36:573;0.4213795;8.90643;1.5705963
10:00:36:573;0.4213795;8.90643;1.5705963
10:00:36:573;0.4213795;8.90643;1.5705963
10:00:36:674;0.15322891;9.749189;2.27928
10:00:36:674;0.15322891;9.749189;2.27928
10:00:36:674;0.15322891;9.749189;2.27928
10:00:36:674;0.15322891;9.749189;2.27928
10:00:36:674;0.15322891;9.749189;2.27928
10:00:36:674;0.15322891;9.749189;2.27928
10:00:36:674;0.15322891;9.749189;2.27928
10:00:36:674;0.15322891;9.749189;2.27928
10:00:36:674;0.15322891;9.749189;2.27928
10:00:36:674;0.15322891;9.749189;2.27928
10:00:36:674;0.15322891;9.749189;2.27928
10:00:36:674;0.15322891;9.749189;2.27928
10:00:36:674;0.15322891;9.749189;2.27928
10:00:36:776;0.05746084;9.385271;2.4899697
10:00:36:776;0.05746084;9.385271;2.4899697
10:00:36:776;0.05746084;9.385271;2.4899697
10:00:36:776;0.05746084;9.385271;2.4899697
10:00:36:776;0.05746084;9.385271;2.4899697
10:00:36:776;0.05746084;9.385271;2.4899697
10:00:36:776;0.05746084;9.385271;2.4899697
10:00:36:776;0.05746084;9.385271;2.4899697
10:00:36:776;0.05746084;9.385271;2.4899697
10:00:36:776;0.05746084;9.385271;2.4899697
10:00:36:776;0.05746084;9.385271;2.4899697
10:00:36:776;0.05746084;9.385271;2.4899697
10:00:36:776;0.05746084;9.385271;2.4899697
10:00:36:776;0.05746084;9.385271;2.4899697
10:00:36:776;0.05746084;9.385271;2.4899697
10:00:36:894;0.17238252;10.400413;1.0534488
10:00:36:894;0.17238252;10.400413;1.0534488
10:00:36:894;0.17238252;10.400413;1.0534488
10:00:36:894;0.17238252;10.400413;1.0534488
10:00:36:894;0.17238252;10.400413;1.0534488
10:00:36:894;0.17238252;10.400413;1.0534488
10:00:36:894;0.17238252;10.400413;1.0534488
10:00:36:894;0.17238252;10.400413;1.0534488
10:00:36:894;0.17238252;10.400413;1.0534488
10:00:36:894;0.17238252;10.400413;1.0534488
10:00:36:894;0.17238252;10.400413;1.0534488
10:00:36:894;0.17238252;10.400413;1.0534488
10:00:36:894;0.17238252;10.400413;1.0534488
10:00:36:995;0.19153613;10.879252;0.82360536
10:00:36:995;0.19153613;10.879252;0.82360536
10:00:36:995;0.19153613;10.879252;0.82360536
10:00:36:995;0.19153613;10.879252;0.82360536
10:00:36:995;0.19153613;10.879252;0.82360536
10:00:36:995;0.19153613;10.879252;0.82360536
10:00:36:995;0.19153613;10.879252;0.82360536
10:00:36:995;0.19153613;10.879252;0.82360536
10:00:36:995;0.19153613;10.879252;0.82360536
10:00:36:995;0.19153613;10.879252;0.82360536
10:00:36:995;0.19153613;10.879252;0.82360536
10:00:36:995;0.19153613;10.879252;0.82360536
10:00:36:995;0.19153613;10.879252;0.82360536
10:00:36:995;0.19153613;10.879252;0.82360536
10:00:36:995;0.19153613;10.879252;0.82360536
10:00:37:113;1.091756;9.021352;2.2409728
10:00:37:113;1.091756;9.021352;2.2409728
10:00:37:113;1.091756;9.021352;2.2409728
10:00:37:113;1.091756;9.021352;2.2409728
10:00:37:113;1.091756;9.021352;2.2409728
10:00:37:113;1.091756;9.021352;2.2409728
10:00:37:113;1.091756;9.021352;2.2409728
10:00:37:113;1.091756;9.021352;2.2409728
10:00:37:113;1.091756;9.021352;2.2409728
10:00:37:113;1.091756;9.021352;2.2409728
10:00:37:113;1.091756;9.021352;2.2409728
10:00:37:113;1.091756;9.021352;2.2409728
10:00:37:113;1.091756;9.021352;2.2409728
10:00:37:113;1.091756;9.021352;2.2409728
10:00:37:113;1.091756;9.021352;2.2409728
10:00:37:228;0.9576807;9.32781;2.1452048
10:00:37:228;0.9576807;9.32781;2.1452048
10:00:37:228;0.9576807;9.32781;2.1452048
10:00:37:228;0.9576807;9.32781;2.1452048
10:00:37:228;0.9576807;9.32781;2.1452048
10:00:37:228;0.9576807;9.32781;2.1452048
10:00:37:228;0.9576807;9.32781;2.1452048
10:00:37:228;0.9576807;9.32781;2.1452048
10:00:37:228;0.9576807;9.32781;2.1452048
10:00:37:228;0.9576807;9.32781;2.1452048
10:00:37:228;0.9576807;9.32781;2.1452048
10:00:37:228;0.9576807;9.32781;2.1452048
10:00:37:228;0.9576807;9.32781;2.1452048
10:00:37:228;0.9576807;9.32781;2.1452048
10:00:37:338;0.51714754;8.63828;2.4516625
10:00:37:338;0.51714754;8.63828;2.4516625
10:00:37:338;0.51714754;8.63828;2.4516625
10:00:37:338;0.51714754;8.63828;2.4516625
10:00:37:338;0.51714754;8.63828;2.4516625
10:00:37:338;0.51714754;8.63828;2.4516625
10:00:37:338;0.51714754;8.63828;2.4516625
10:00:37:338;0.51714754;8.63828;2.4516625
10:00:37:338;0.51714754;8.63828;2.4516625
10:00:37:338;0.51714754;8.63828;2.4516625
10:00:37:338;0.51714754;8.63828;2.4516625
10:00:37:338;0.51714754;8.63828;2.4516625
10:00:37:338;0.51714754;8.63828;2.4516625
10:00:37:338;0.51714754;8.63828;2.4516625
10:00:37:338;0.51714754;8.63828;2.4516625
10:00:37:457;0.842759;10.036493;2.7389667
10:00:37:457;0.842759;10.036493;2.7389667
10:00:37:457;0.842759;10.036493;2.7389667
10:00:37:457;0.842759;10.036493;2.7389667
10:00:37:457;0.842759;10.036493;2.7389667
10:00:37:457;0.842759;10.036493;2.7389667
10:00:37:457;0.842759;10.036493;2.7389667
10:00:37:457;0.842759;10.036493;2.7389667
10:00:37:457;0.842759;10.036493;2.7389667
10:00:37:457;0.842759;10.036493;2.7389667
10:00:37:457;0.842759;10.036493;2.7389667
10:00:37:457;0.842759;10.036493;2.7389667
10:00:37:457;0.842759;10.036493;2.7389667
10:00:37:457;0.842759;10.036493;2.7389667
10:00:37:457;0.842759;10.036493;2.7389667
10:00:37:457;0.842759;10.036493;2.7389667
10:00:37:457;0.842759;10.036493;2.7389667
10:00:37:457;0.842759;10.036493;2.7389667
10:00:37:457;0.842759;10.036493;2.7389667
10:00:37:609;0.78529817;9.385271;0.91937345
10:00:37:609;0.78529817;9.385271;0.91937345
10:00:37:609;0.78529817;9.385271;0.91937345
10:00:37:609;0.78529817;9.385271;0.91937345
10:00:37:609;0.78529817;9.385271;0.91937345
10:00:37:609;0.78529817;9.385271;0.91937345
10:00:37:609;0.78529817;9.385271;0.91937345
10:00:37:609;0.78529817;9.385271;0.91937345
10:00:37:609;0.78529817;9.385271;0.91937345
10:00:37:609;0.78529817;9.385271;0.91937345
10:00:37:609;0.78529817;9.385271;0.91937345
10:00:37:609;0.78529817;9.385271;0.91937345
10:00:37:609;0.78529817;9.385271;0.91937345
10:00:37:710;0.59376204;10.132261;1.8004397
10:00:37:710;0.59376204;10.132261;1.8004397
10:00:37:710;0.59376204;10.132261;1.8004397
10:00:37:710;0.59376204;10.132261;1.8004397
10:00:37:710;0.59376204;10.132261;1.8004397
10:00:37:710;0.59376204;10.132261;1.8004397
10:00:37:710;0.59376204;10.132261;1.8004397
10:00:37:710;0.59376204;10.132261;1.8004397
10:00:37:710;0.59376204;10.132261;1.8004397
10:00:37:710;0.59376204;10.132261;1.8004397
10:00:37:710;0.59376204;10.132261;1.8004397
10:00:37:710;0.59376204;10.132261;1.8004397
10:00:37:710;0.59376204;10.132261;1.8004397
10:00:37:710;0.59376204;10.132261;1.8004397
10:00:37:710;0.59376204;10.132261;1.8004397
10:00:37:828;0.8619126;9.308656;1.5705963
10:00:37:828;0.8619126;9.308656;1.5705963
10:00:37:828;0.8619126;9.308656;1.5705963
10:00:37:828;0.8619126;9.308656;1.5705963
10:00:37:828;0.8619126;9.308656;1.5705963
10:00:37:828;0.8619126;9.308656;1.5705963
10:00:37:828;0.8619126;9.308656;1.5705963
10:00:37:828;0.8619126;9.308656;1.5705963
10:00:37:828;0.8619126;9.308656;1.5705963
10:00:37:828;0.8619126;9.308656;1.5705963
10:00:37:828;0.8619126;9.308656;1.5705963
10:00:37:828;0.8619126;9.308656;1.5705963
10:00:37:828;0.8619126;9.308656;1.5705963
10:00:37:828;0.8619126;9.308656;1.5705963
10:00:37:828;0.8619126;9.308656;1.5705963
10:00:37:828;0.8619126;9.308656;1.5705963
10:00:37:948;0.51714754;10.113108;1.9728222
10:00:37:948;0.51714754;10.113108;1.9728222
10:00:37:948;0.51714754;10.113108;1.9728222
10:00:37:948;0.51714754;10.113108;1.9728222
10:00:37:948;0.51714754;10.113108;1.9728222
10:00:37:948;0.51714754;10.113108;1.9728222
10:00:37:948;0.51714754;10.113108;1.9728222
10:00:37:948;0.51714754;10.113108;1.9728222
10:00:37:948;0.51714754;10.113108;1.9728222
10:00:37:948;0.51714754;10.113108;1.9728222
10:00:37:948;0.51714754;10.113108;1.9728222
10:00:37:948;0.51714754;10.113108;1.9728222
10:00:37:948;0.51714754;10.113108;1.9728222
10:00:37:948;0.51714754;10.113108;1.9728222
10:00:37:948;0.51714754;10.113108;1.9728222
10:00:38:064;0.8619126;10.28549;2.0111294
10:00:38:064;0.8619126;10.28549;2.0111294
10:00:38:064;0.8619126;10.28549;2.0111294
10:00:38:064;0.8619126;10.28549;2.0111294
10:00:38:064;0.8619126;10.28549;2.0111294
10:00:38:064;0.8619126;10.28549;2.0111294
10:00:38:064;0.8619126;10.28549;2.0111294
10:00:38:064;0.8619126;10.28549;2.0111294
10:00:38:064;0.8619126;10.28549;2.0111294
10:00:38:064;0.8619126;10.28549;2.0111294
10:00:38:064;0.8619126;10.28549;2.0111294
10:00:38:064;0.8619126;10.28549;2.0111294
10:00:38:064;0.8619126;10.28549;2.0111294
10:00:38:064;0.8619126;10.28549;2.0111294
10:00:38:064;0.8619126;10.28549;2.0111294
10:00:38:182;0.8619126;9.3661175;2.1452048
10:00:38:182;0.8619126;9.3661175;2.1452048
10:00:38:182;0.8619126;9.3661175;2.1452048
10:00:38:182;0.8619126;9.3661175;2.1452048
10:00:38:182;0.8619126;9.3661175;2.1452048
10:00:38:182;0.8619126;9.3661175;2.1452048
10:00:38:182;0.8619126;9.3661175;2.1452048
10:00:38:182;0.8619126;9.3661175;2.1452048
10:00:38:182;0.8619126;9.3661175;2.1452048
10:00:38:182;0.8619126;9.3661175;2.1452048
10:00:38:182;0.8619126;9.3661175;2.1452048
10:00:38:182;0.8619126;9.3661175;2.1452048
10:00:38:182;0.8619126;9.3661175;2.1452048
10:00:38:285;0.80445176;9.940725;1.9919758
10:00:38:285;0.80445176;9.940725;1.9919758
10:00:38:285;0.80445176;9.940725;1.9919758
10:00:38:285;0.80445176;9.940725;1.9919758
10:00:38:285;0.80445176;9.940725;1.9919758
10:00:38:285;0.80445176;9.940725;1.9919758
10:00:38:285;0.80445176;9.940725;1.9919758
10:00:38:285;0.80445176;9.940725;1.9919758
10:00:38:285;0.80445176;9.940725;1.9919758
10:00:38:285;0.80445176;9.940725;1.9919758
10:00:38:285;0.80445176;9.940725;1.9919758
10:00:38:285;0.80445176;9.940725;1.9919758
10:00:38:285;0.80445176;9.940725;1.9919758
10:00:38:390;0.5363012;10.170568;1.5897499
10:00:38:390;0.5363012;10.170568;1.5897499
10:00:38:390;0.5363012;10.170568;1.5897499
10:00:38:390;0.5363012;10.170568;1.5897499
10:00:38:390;0.5363012;10.170568;1.5897499
10:00:38:390;0.5363012;10.170568;1.5897499
10:00:38:390;0.5363012;10.170568;1.5897499
10:00:38:390;0.5363012;10.170568;1.5897499
10:00:38:390;0.5363012;10.170568;1.5897499
10:00:38:390;0.5363012;10.170568;1.5897499
10:00:38:390;0.5363012;10.170568;1.5897499
10:00:38:390;0.5363012;10.170568;1.5897499
10:00:38:390;0.5363012;10.170568;1.5897499
10:00:38:390;0.5363012;10.170568;1.5897499
10:00:38:390;0.5363012;10.170568;1.5897499
10:00:38:390;0.5363012;10.170568;1.5897499
10:00:38:508;-0.038307227;9.749189;1.9919758
10:00:38:508;-0.038307227;9.749189;1.9919758
10:00:38:508;-0.038307227;9.749189;1.9919758
10:00:38:508;-0.038307227;9.749189;1.9919758
10:00:38:508;-0.038307227;9.749189;1.9919758
10:00:38:508;-0.038307227;9.749189;1.9919758
10:00:38:508;-0.038307227;9.749189;1.9919758
10:00:38:508;-0.038307227;9.749189;1.9919758
10:00:38:508;-0.038307227;9.749189;1.9919758
10:00:38:508;-0.038307227;9.749189;1.9919758
10:00:38:508;-0.038307227;9.749189;1.9919758
10:00:38:508;-0.038307227;9.749189;1.9919758
10:00:38:508;-0.038307227;9.749189;1.9919758
10:00:38:613;0.22984336;9.672575;1.7812861
10:00:38:613;0.22984336;9.672575;1.7812861
10:00:38:613;0.22984336;9.672575;1.7812861
10:00:38:613;0.22984336;9.672575;1.7812861
10:00:38:613;0.22984336;9.672575;1.7812861
10:00:38:613;0.22984336;9.672575;1.7812861
10:00:38:613;0.22984336;9.672575;1.7812861
10:00:38:613;0.22984336;9.672575;1.7812861
10:00:38:613;0.22984336;9.672575;1.7812861
10:00:38:613;0.22984336;9.672575;1.7812861
10:00:38:613;0.22984336;9.672575;1.7812861
10:00:38:613;0.22984336;9.672575;1.7812861
10:00:38:613;0.22984336;9.672575;1.7812861
10:00:38:613;0.22984336;9.672575;1.7812861
10:00:38:613;0.22984336;9.672575;1.7812861
10:00:38:613;0.22984336;9.672575;1.7812861
10:00:38:613;0.22984336;9.672575;1.7812861
10:00:38:613;0.22984336;9.672575;1.7812861
10:00:38:613;0.22984336;9.672575;1.7812861
10:00:38:613;0.22984336;9.672575;1.7812861
10:00:38:767;-0.15322891;10.745177;0.9959879
10:00:38:767;-0.15322891;10.745177;0.9959879
10:00:38:767;-0.15322891;10.745177;0.9959879
10:00:38:767;-0.15322891;10.745177;0.9959879
10:00:38:767;-0.15322891;10.745177;0.9959879
10:00:38:767;-0.15322891;10.745177;0.9959879
10:00:38:767;-0.15322891;10.745177;0.9959879
10:00:38:767;-0.15322891;10.745177;0.9959879
10:00:38:767;-0.15322891;10.745177;0.9959879
10:00:38:767;-0.15322891;10.745177;0.9959879
10:00:38:767;-0.15322891;10.745177;0.9959879
10:00:38:767;-0.15322891;10.745177;0.9959879
10:00:38:767;-0.15322891;10.745177;0.9959879
10:00:38:767;-0.15322891;10.745177;0.9959879
10:00:38:767;-0.15322891;10.745177;0.9959879
10:00:38:884;0.61291564;9.5385;2.1452048
10:00:38:884;0.61291564;9.5385;2.1452048
10:00:38:884;0.61291564;9.5385;2.1452048
10:00:38:884;0.61291564;9.5385;2.1452048
10:00:38:884;0.61291564;9.5385;2.1452048
10:00:38:884;0.61291564;9.5385;2.1452048
10:00:38:884;0.61291564;9.5385;2.1452048
10:00:38:884;0.61291564;9.5385;2.1452048
10:00:38:884;0.61291564;9.5385;2.1452048
10:00:38:884;0.61291564;9.5385;2.1452048
10:00:38:884;0.61291564;9.5385;2.1452048
10:00:38:884;0.61291564;9.5385;2.1452048
10:00:38:884;0.61291564;9.5385;2.1452048
10:00:38:884;0.61291564;9.5385;2.1452048
10:00:38:884;0.61291564;9.5385;2.1452048
10:00:39:002;0.7469909;8.791509;2.0111294
10:00:39:002;0.7469909;8.791509;2.0111294
10:00:39:002;0.7469909;8.791509;2.0111294
10:00:39:002;0.7469909;8.791509;2.0111294
10:00:39:002;0.7469909;8.791509;2.0111294
10:00:39:002;0.7469909;8.791509;2.0111294
10:00:39:002;0.7469909;8.791509;2.0111294
10:00:39:002;0.7469909;8.791509;2.0111294
10:00:39:002;0.7469909;8.791509;2.0111294
10:00:39:002;0.7469909;8.791509;2.0111294
10:00:39:002;0.7469909;8.791509;2.0111294
10:00:39:002;0.7469909;8.791509;2.0111294
10:00:39:002;0.7469909;8.791509;2.0111294
10:00:39:002;0.7469909;8.791509;2.0111294
10:00:39:002;0.7469909;8.791509;2.0111294
10:00:39:002;0.7469909;8.791509;2.0111294
10:00:39:002;0.7469909;8.791509;2.0111294
10:00:39:140;0.05746084;9.404425;1.6663644
10:00:39:140;0.05746084;9.404425;1.6663644
10:00:39:140;0.05746084;9.404425;1.6663644
10:00:39:140;0.05746084;9.404425;1.6663644
10:00:39:140;0.05746084;9.404425;1.6663644
10:00:39:140;0.05746084;9.404425;1.6663644
10:00:39:140;0.05746084;9.404425;1.6663644
10:00:39:140;0.05746084;9.404425;1.6663644
10:00:39:140;0.05746084;9.404425;1.6663644
10:00:39:140;0.05746084;9.404425;1.6663644
10:00:39:140;0.05746084;9.404425;1.6663644
10:00:39:140;0.05746084;9.404425;1.6663644
10:00:39:140;0.05746084;9.404425;1.6663644
10:00:39:140;0.05746084;9.404425;1.6663644
10:00:39:244;0.6703765;9.921572;1.3599066
10:00:39:244;0.6703765;9.921572;1.3599066
10:00:39:244;0.6703765;9.921572;1.3599066
10:00:39:244;0.6703765;9.921572;1.3599066
10:00:39:244;0.6703765;9.921572;1.3599066
10:00:39:244;0.6703765;9.921572;1.3599066
10:00:39:244;0.6703765;9.921572;1.3599066
10:00:39:244;0.6703765;9.921572;1.3599066
10:00:39:244;0.6703765;9.921572;1.3599066
10:00:39:244;0.6703765;9.921572;1.3599066
10:00:39:244;0.6703765;9.921572;1.3599066
10:00:39:244;0.6703765;9.921572;1.3599066
10:00:39:244;0.6703765;9.921572;1.3599066
10:00:39:244;0.6703765;9.921572;1.3599066
10:00:39:244;0.6703765;9.921572;1.3599066
10:00:39:362;0.7086837;10.994174;0.842759
10:00:39:362;0.7086837;10.994174;0.842759
10:00:39:362;0.7086837;10.994174;0.842759
10:00:39:362;0.7086837;10.994174;0.842759
10:00:39:362;0.7086837;10.994174;0.842759
10:00:39:362;0.7086837;10.994174;0.842759
10:00:39:362;0.7086837;10.994174;0.842759
10:00:39:362;0.7086837;10.994174;0.842759
10:00:39:362;0.7086837;10.994174;0.842759
10:00:39:362;0.7086837;10.994174;0.842759
10:00:39:362;0.7086837;10.994174;0.842759
10:00:39:362;0.7086837;10.994174;0.842759
10:00:39:362;0.7086837;10.994174;0.842759
10:00:39:465;0.19153613;10.879252;1.1109096
10:00:39:465;0.19153613;10.879252;1.1109096
10:00:39:465;0.19153613;10.879252;1.1109096
10:00:39:465;0.19153613;10.879252;1.1109096
10:00:39:465;0.19153613;10.879252;1.1109096
10:00:39:465;0.19153613;10.879252;1.1109096
10:00:39:465;0.19153613;10.879252;1.1109096
10:00:39:465;0.19153613;10.879252;1.1109096
10:00:39:465;0.19153613;10.879252;1.1109096
10:00:39:465;0.19153613;10.879252;1.1109096
10:00:39:465;0.19153613;10.879252;1.1109096
10:00:39:465;0.19153613;10.879252;1.1109096
10:00:39:465;0.19153613;10.879252;1.1109096
10:00:39:465;0.19153613;10.879252;1.1109096
10:00:39:465;0.19153613;10.879252;1.1109096
10:00:39:465;0.19153613;10.879252;1.1109096
10:00:39:592;0.24899697;10.093954;1.340753
10:00:39:592;0.24899697;10.093954;1.340753
10:00:39:592;0.24899697;10.093954;1.340753
10:00:39:592;0.24899697;10.093954;1.340753
10:00:39:592;0.24899697;10.093954;1.340753
10:00:39:592;0.24899697;10.093954;1.340753
10:00:39:592;0.24899697;10.093954;1.340753
10:00:39:592;0.24899697;10.093954;1.340753
10:00:39:592;0.24899697;10.093954;1.340753
10:00:39:592;0.24899697;10.093954;1.340753
10:00:39:592;0.24899697;10.093954;1.340753
10:00:39:592;0.24899697;10.093954;1.340753
10:00:39:592;0.24899697;10.093954;1.340753
10:00:39:592;0.24899697;10.093954;1.340753
10:00:39:592;0.24899697;10.093954;1.340753
10:00:39:706;0.49799395;10.6877165;1.6472107
10:00:39:706;0.49799395;10.6877165;1.6472107
10:00:39:706;0.49799395;10.6877165;1.6472107
10:00:39:706;0.49799395;10.6877165;1.6472107
10:00:39:706;0.49799395;10.6877165;1.6472107
10:00:39:706;0.49799395;10.6877165;1.6472107
10:00:39:706;0.49799395;10.6877165;1.6472107
10:00:39:706;0.49799395;10.6877165;1.6472107
10:00:39:706;0.49799395;10.6877165;1.6472107
10:00:39:706;0.49799395;10.6877165;1.6472107
10:00:39:706;0.49799395;10.6877165;1.6472107
10:00:39:706;0.49799395;10.6877165;1.6472107
10:00:39:706;0.49799395;10.6877165;1.6472107
10:00:39:807;0.05746084;10.496181;1.9536686
10:00:39:807;0.05746084;10.496181;1.9536686
10:00:39:807;0.05746084;10.496181;1.9536686
10:00:39:807;0.05746084;10.496181;1.9536686
10:00:39:807;0.05746084;10.496181;1.9536686
10:00:39:807;0.05746084;10.496181;1.9536686
10:00:39:807;0.05746084;10.496181;1.9536686
10:00:39:807;0.05746084;10.496181;1.9536686
10:00:39:807;0.05746084;10.496181;1.9536686
10:00:39:807;0.05746084;10.496181;1.9536686
10:00:39:807;0.05746084;10.496181;1.9536686
10:00:39:807;0.05746084;10.496181;1.9536686
10:00:39:807;0.05746084;10.496181;1.9536686
10:00:39:908;1.1683705;8.848969;2.6240451
10:00:39:908;1.1683705;8.848969;2.6240451
10:00:39:908;1.1683705;8.848969;2.6240451
10:00:39:908;1.1683705;8.848969;2.6240451
10:00:39:908;1.1683705;8.848969;2.6240451
10:00:39:908;1.1683705;8.848969;2.6240451
10:00:39:908;1.1683705;8.848969;2.6240451
10:00:39:908;1.1683705;8.848969;2.6240451
10:00:39:908;1.1683705;8.848969;2.6240451
10:00:39:908;1.1683705;8.848969;2.6240451
10:00:39:908;1.1683705;8.848969;2.6240451
10:00:39:908;1.1683705;8.848969;2.6240451
10:00:39:908;1.1683705;8.848969;2.6240451
10:00:39:908;1.1683705;8.848969;2.6240451
10:00:39:908;1.1683705;8.848969;2.6240451
10:00:40:026;0.15322891;9.576807;2.2218192
10:00:40:026;0.15322891;9.576807;2.2218192
10:00:40:026;0.15322891;9.576807;2.2218192
10:00:40:026;0.15322891;9.576807;2.2218192
10:00:40:026;0.15322891;9.576807;2.2218192
10:00:40:026;0.15322891;9.576807;2.2218192
10:00:40:026;0.15322891;9.576807;2.2218192
10:00:40:026;0.15322891;9.576807;2.2218192
10:00:40:026;0.15322891;9.576807;2.2218192
10:00:40:026;0.15322891;9.576807;2.2218192
10:00:40:026;0.15322891;9.576807;2.2218192
10:00:40:026;0.15322891;9.576807;2.2218192
10:00:40:026;0.15322891;9.576807;2.2218192
10:00:40:026;0.15322891;9.576807;2.2218192
10:00:40:026;0.15322891;9.576807;2.2218192
10:00:40:144;0.1340753;9.519346;2.087744
10:00:40:144;0.1340753;9.519346;2.087744
10:00:40:144;0.1340753;9.519346;2.087744
10:00:40:144;0.1340753;9.519346;2.087744
10:00:40:144;0.1340753;9.519346;2.087744
10:00:40:144;0.1340753;9.519346;2.087744
10:00:40:144;0.1340753;9.519346;2.087744
10:00:40:144;0.1340753;9.519346;2.087744
10:00:40:144;0.1340753;9.519346;2.087744
10:00:40:144;0.1340753;9.519346;2.087744
10:00:40:144;0.1340753;9.519346;2.087744
10:00:40:144;0.1340753;9.519346;2.087744
10:00:40:144;0.1340753;9.519346;2.087744
10:00:40:144;0.1340753;9.519346;2.087744
10:00:40:252;0.63206923;9.902418;2.1452048
10:00:40:252;0.63206923;9.902418;2.1452048
10:00:40:252;0.63206923;9.902418;2.1452048
10:00:40:252;0.63206923;9.902418;2.1452048
10:00:40:252;0.63206923;9.902418;2.1452048
10:00:40:252;0.63206923;9.902418;2.1452048
10:00:40:252;0.63206923;9.902418;2.1452048
10:00:40:252;0.63206923;9.902418;2.1452048
10:00:40:252;0.63206923;9.902418;2.1452048
10:00:40:252;0.63206923;9.902418;2.1452048
10:00:40:252;0.63206923;9.902418;2.1452048
10:00:40:252;0.63206923;9.902418;2.1452048
10:00:40:252;0.63206923;9.902418;2.1452048
10:00:40:252;0.63206923;9.902418;2.1452048
10:00:40:252;0.63206923;9.902418;2.1452048
10:00:40:252;0.63206923;9.902418;2.1452048
10:00:40:252;0.63206923;9.902418;2.1452048
10:00:40:387;0.22984336;11.070788;1.091756
10:00:40:387;0.22984336;11.070788;1.091756
10:00:40:387;0.22984336;11.070788;1.091756
10:00:40:387;0.22984336;11.070788;1.091756
10:00:40:387;0.22984336;11.070788;1.091756
10:00:40:387;0.22984336;11.070788;1.091756
10:00:40:387;0.22984336;11.070788;1.091756
10:00:40:387;0.22984336;11.070788;1.091756
10:00:40:387;0.22984336;11.070788;1.091756
10:00:40:387;0.22984336;11.070788;1.091756
10:00:40:387;0.22984336;11.070788;1.091756
10:00:40:387;0.22984336;11.070788;1.091756
10:00:40:387;0.22984336;11.070788;1.091756
10:00:40:489;0.34476504;8.00621;1.7238252
10:00:40:489;0.34476504;8.00621;1.7238252
10:00:40:489;0.34476504;8.00621;1.7238252
10:00:40:489;0.34476504;8.00621;1.7238252
10:00:40:489;0.34476504;8.00621;1.7238252
10:00:40:489;0.34476504;8.00621;1.7238252
10:00:40:489;0.34476504;8.00621;1.7238252
10:00:40:489;0.34476504;8.00621;1.7238252
10:00:40:489;0.34476504;8.00621;1.7238252
10:00:40:489;0.34476504;8.00621;1.7238252
10:00:40:489;0.34476504;8.00621;1.7238252
10:00:40:489;0.34476504;8.00621;1.7238252
10:00:40:489;0.34476504;8.00621;1.7238252
10:00:40:593;0.6895301;9.461885;0.9576807
10:00:40:593;0.6895301;9.461885;0.9576807
10:00:40:593;0.6895301;9.461885;0.9576807
10:00:40:593;0.6895301;9.461885;0.9576807
10:00:40:593;0.6895301;9.461885;0.9576807
10:00:40:593;0.6895301;9.461885;0.9576807
10:00:40:593;0.6895301;9.461885;0.9576807
10:00:40:593;0.6895301;9.461885;0.9576807
10:00:40:593;0.6895301;9.461885;0.9576807
10:00:40:593;0.6895301;9.461885;0.9576807
10:00:40:593;0.6895301;9.461885;0.9576807
10:00:40:593;0.6895301;9.461885;0.9576807
10:00:40:593;0.6895301;9.461885;0.9576807
10:00:40:695;0.30645782;10.821792;1.934515
10:00:40:695;0.30645782;10.821792;1.934515
10:00:40:695;0.30645782;10.821792;1.934515
10:00:40:695;0.30645782;10.821792;1.934515
10:00:40:695;0.30645782;10.821792;1.934515
10:00:40:695;0.30645782;10.821792;1.934515
10:00:40:695;0.30645782;10.821792;1.934515
10:00:40:695;0.30645782;10.821792;1.934515
10:00:40:695;0.30645782;10.821792;1.934515
10:00:40:695;0.30645782;10.821792;1.934515
10:00:40:695;0.30645782;10.821792;1.934515
10:00:40:695;0.30645782;10.821792;1.934515
10:00:40:695;0.30645782;10.821792;1.934515
10:00:40:695;0.30645782;10.821792;1.934515
10:00:40:695;0.30645782;10.821792;1.934515
10:00:40:695;0.30645782;10.821792;1.934515
10:00:40:813;0.17238252;8.408437;3.064578
10:00:40:813;0.17238252;8.408437;3.064578
10:00:40:813;0.17238252;8.408437;3.064578
10:00:40:813;0.17238252;8.408437;3.064578
10:00:40:813;0.17238252;8.408437;3.064578
10:00:40:813;0.17238252;8.408437;3.064578
10:00:40:813;0.17238252;8.408437;3.064578
10:00:40:813;0.17238252;8.408437;3.064578
10:00:40:813;0.17238252;8.408437;3.064578
10:00:40:813;0.17238252;8.408437;3.064578
10:00:40:813;0.17238252;8.408437;3.064578
10:00:40:813;0.17238252;8.408437;3.064578
10:00:40:813;0.17238252;8.408437;3.064578
10:00:40:813;0.17238252;8.408437;3.064578
10:00:40:813;0.17238252;8.408437;3.064578
10:00:40:932;0.4213795;11.281479;0.5363012
10:00:40:932;0.4213795;11.281479;0.5363012
10:00:40:932;0.4213795;11.281479;0.5363012
10:00:40:932;0.4213795;11.281479;0.5363012
10:00:40:932;0.4213795;11.281479;0.5363012
10:00:40:932;0.4213795;11.281479;0.5363012
10:00:40:932;0.4213795;11.281479;0.5363012
10:00:40:932;0.4213795;11.281479;0.5363012
10:00:40:932;0.4213795;11.281479;0.5363012
10:00:40:932;0.4213795;11.281479;0.5363012
10:00:40:932;0.4213795;11.281479;0.5363012
10:00:40:932;0.4213795;11.281479;0.5363012
10:00:40:932;0.4213795;11.281479;0.5363012
10:00:40:932;0.4213795;11.281479;0.5363012
10:00:40:932;0.4213795;11.281479;0.5363012
10:00:41:050;0.59376204;9.078813;2.815581
10:00:41:050;0.59376204;9.078813;2.815581
10:00:41:050;0.59376204;9.078813;2.815581
10:00:41:050;0.59376204;9.078813;2.815581
10:00:41:050;0.59376204;9.078813;2.815581
10:00:41:050;0.59376204;9.078813;2.815581
10:00:41:050;0.59376204;9.078813;2.815581
10:00:41:050;0.59376204;9.078813;2.815581
10:00:41:050;0.59376204;9.078813;2.815581
10:00:41:050;0.59376204;9.078813;2.815581
10:00:41:050;0.59376204;9.078813;2.815581
10:00:41:050;0.59376204;9.078813;2.815581
10:00:41:050;0.59376204;9.078813;2.815581
10:00:41:050;0.59376204;9.078813;2.815581
10:00:41:050;0.59376204;9.078813;2.815581
10:00:41:169;0.5554548;9.289502;1.3982137
10:00:41:169;0.5554548;9.289502;1.3982137
10:00:41:169;0.5554548;9.289502;1.3982137
10:00:41:169;0.5554548;9.289502;1.3982137
10:00:41:169;0.5554548;9.289502;1.3982137
10:00:41:169;0.5554548;9.289502;1.3982137
10:00:41:169;0.5554548;9.289502;1.3982137
10:00:41:169;0.5554548;9.289502;1.3982137
10:00:41:169;0.5554548;9.289502;1.3982137
10:00:41:169;0.5554548;9.289502;1.3982137
10:00:41:169;0.5554548;9.289502;1.3982137
10:00:41:169;0.5554548;9.289502;1.3982137
10:00:41:169;0.5554548;9.289502;1.3982137
10:00:41:169;0.5554548;9.289502;1.3982137
10:00:41:169;0.5554548;9.289502;1.3982137
10:00:41:289;0.36391866;10.553641;1.5705963
10:00:41:289;0.36391866;10.553641;1.5705963
10:00:41:289;0.36391866;10.553641;1.5705963
10:00:41:289;0.36391866;10.553641;1.5705963
10:00:41:289;0.36391866;10.553641;1.5705963
10:00:41:289;0.36391866;10.553641;1.5705963
10:00:41:289;0.36391866;10.553641;1.5705963
10:00:41:289;0.36391866;10.553641;1.5705963
10:00:41:289;0.36391866;10.553641;1.5705963
10:00:41:289;0.36391866;10.553641;1.5705963
10:00:41:289;0.36391866;10.553641;1.5705963
10:00:41:289;0.36391866;10.553641;1.5705963
10:00:41:289;0.36391866;10.553641;1.5705963
10:00:41:289;0.36391866;10.553641;1.5705963
10:00:41:289;0.36391866;10.553641;1.5705963
10:00:41:289;0.36391866;10.553641;1.5705963
10:00:41:409;-0.15322891;10.132261;1.3599066
10:00:41:409;-0.15322891;10.132261;1.3599066
10:00:41:409;-0.15322891;10.132261;1.3599066
10:00:41:409;-0.15322891;10.132261;1.3599066
10:00:41:409;-0.15322891;10.132261;1.3599066
10:00:41:409;-0.15322891;10.132261;1.3599066
10:00:41:409;-0.15322891;10.132261;1.3599066
10:00:41:409;-0.15322891;10.132261;1.3599066
10:00:41:409;-0.15322891;10.132261;1.3599066
10:00:41:409;-0.15322891;10.132261;1.3599066
10:00:41:409;-0.15322891;10.132261;1.3599066
10:00:41:409;-0.15322891;10.132261;1.3599066
10:00:41:409;-0.15322891;10.132261;1.3599066
10:00:41:409;-0.15322891;10.132261;1.3599066
10:00:41:409;-0.15322891;10.132261;1.3599066
10:00:41:529;0.82360536;9.634268;2.2601264
10:00:41:529;0.82360536;9.634268;2.2601264
10:00:41:529;0.82360536;9.634268;2.2601264
10:00:41:529;0.82360536;9.634268;2.2601264
10:00:41:529;0.82360536;9.634268;2.2601264
10:00:41:529;0.82360536;9.634268;2.2601264
10:00:41:529;0.82360536;9.634268;2.2601264
10:00:41:529;0.82360536;9.634268;2.2601264
10:00:41:529;0.82360536;9.634268;2.2601264
10:00:41:529;0.82360536;9.634268;2.2601264
10:00:41:529;0.82360536;9.634268;2.2601264
10:00:41:529;0.82360536;9.634268;2.2601264
10:00:41:529;0.82360536;9.634268;2.2601264
10:00:41:529;0.82360536;9.634268;2.2601264
10:00:41:529;0.82360536;9.634268;2.2601264
10:00:41:529;0.82360536;9.634268;2.2601264
10:00:41:649;0.5746084;9.481039;1.8004397
10:00:41:649;0.5746084;9.481039;1.8004397
10:00:41:649;0.5746084;9.481039;1.8004397
10:00:41:649;0.5746084;9.481039;1.8004397
10:00:41:649;0.5746084;9.481039;1.8004397
10:00:41:649;0.5746084;9.481039;1.8004397
10:00:41:649;0.5746084;9.481039;1.8004397
10:00:41:649;0.5746084;9.481039;1.8004397
10:00:41:649;0.5746084;9.481039;1.8004397
10:00:41:649;0.5746084;9.481039;1.8004397
10:00:41:649;0.5746084;9.481039;1.8004397
10:00:41:649;0.5746084;9.481039;1.8004397
10:00:41:649;0.5746084;9.481039;1.8004397
10:00:41:649;0.5746084;9.481039;1.8004397
10:00:41:649;0.5746084;9.481039;1.8004397
10:00:41:649;0.5746084;9.481039;1.8004397
10:00:41:649;0.5746084;9.481039;1.8004397
10:00:41:649;0.5746084;9.481039;1.8004397
10:00:41:649;0.5746084;9.481039;1.8004397
10:00:41:801;-0.21068975;8.197746;1.6089035
10:00:41:801;-0.21068975;8.197746;1.6089035
10:00:41:801;-0.21068975;8.197746;1.6089035
10:00:41:801;-0.21068975;8.197746;1.6089035
10:00:41:801;-0.21068975;8.197746;1.6089035
10:00:41:801;-0.21068975;8.197746;1.6089035
10:00:41:801;-0.21068975;8.197746;1.6089035
10:00:41:801;-0.21068975;8.197746;1.6089035
10:00:41:801;-0.21068975;8.197746;1.6089035
10:00:41:801;-0.21068975;8.197746;1.6089035
10:00:41:801;-0.21068975;8.197746;1.6089035
10:00:41:801;-0.21068975;8.197746;1.6089035
10:00:41:801;-0.21068975;8.197746;1.6089035
10:00:41:801;-0.21068975;8.197746;1.6089035
10:00:41:912;0.38307226;10.43872;1.7238252
10:00:41:912;0.38307226;10.43872;1.7238252
10:00:41:912;0.38307226;10.43872;1.7238252
10:00:41:912;0.38307226;10.43872;1.7238252
10:00:41:912;0.38307226;10.43872;1.7238252
10:00:41:912;0.38307226;10.43872;1.7238252
10:00:41:912;0.38307226;10.43872;1.7238252
10:00:41:912;0.38307226;10.43872;1.7238252
10:00:41:912;0.38307226;10.43872;1.7238252
10:00:41:912;0.38307226;10.43872;1.7238252
10:00:41:912;0.38307226;10.43872;1.7238252
10:00:41:912;0.38307226;10.43872;1.7238252
10:00:41:912;0.38307226;10.43872;1.7238252
10:00:41:912;0.38307226;10.43872;1.7238252
10:00:41:912;0.38307226;10.43872;1.7238252
10:00:41:912;0.38307226;10.43872;1.7238252
10:00:41:912;0.38307226;10.43872;1.7238252
10:00:41:912;0.38307226;10.43872;1.7238252
10:00:41:912;0.38307226;10.43872;1.7238252
10:00:41:912;0.38307226;10.43872;1.7238252
10:00:41:912;0.38307226;10.43872;1.7238252
10:00:42:074;1.0342951;10.132261;1.5514427
10:00:42:074;1.0342951;10.132261;1.5514427
10:00:42:074;1.0342951;10.132261;1.5514427
10:00:42:074;1.0342951;10.132261;1.5514427
10:00:42:074;1.0342951;10.132261;1.5514427
10:00:42:074;1.0342951;10.132261;1.5514427
10:00:42:074;1.0342951;10.132261;1.5514427
10:00:42:074;1.0342951;10.132261;1.5514427
10:00:42:074;1.0342951;10.132261;1.5514427
10:00:42:074;1.0342951;10.132261;1.5514427
10:00:42:074;1.0342951;10.132261;1.5514427
10:00:42:074;1.0342951;10.132261;1.5514427
10:00:42:074;1.0342951;10.132261;1.5514427
10:00:42:074;1.0342951;10.132261;1.5514427
10:00:42:074;1.0342951;10.132261;1.5514427
10:00:42:074;1.0342951;10.132261;1.5514427
10:00:42:199;1.1300632;10.189722;1.6663644
10:00:42:199;1.1300632;10.189722;1.6663644
10:00:42:199;1.1300632;10.189722;1.6663644
10:00:42:199;1.1300632;10.189722;1.6663644
10:00:42:199;1.1300632;10.189722;1.6663644
10:00:42:199;1.1300632;10.189722;1.6663644
10:00:42:199;1.1300632;10.189722;1.6663644
10:00:42:199;1.1300632;10.189722;1.6663644
10:00:42:199;1.1300632;10.189722;1.6663644
10:00:42:199;1.1300632;10.189722;1.6663644
10:00:42:199;1.1300632;10.189722;1.6663644
10:00:42:199;1.1300632;10.189722;1.6663644
10:00:42:199;1.1300632;10.189722;1.6663644
10:00:42:199;1.1300632;10.189722;1.6663644
10:00:42:199;1.1300632;10.189722;1.6663644
10:00:42:315;1.3024458;10.70687;1.0534488
10:00:42:315;1.3024458;10.70687;1.0534488
10:00:42:315;1.3024458;10.70687;1.0534488
10:00:42:315;1.3024458;10.70687;1.0534488
10:00:42:315;1.3024458;10.70687;1.0534488
10:00:42:315;1.3024458;10.70687;1.0534488
10:00:42:315;1.3024458;10.70687;1.0534488
10:00:42:315;1.3024458;10.70687;1.0534488
10:00:42:315;1.3024458;10.70687;1.0534488
10:00:42:315;1.3024458;10.70687;1.0534488
10:00:42:315;1.3024458;10.70687;1.0534488
10:00:42:315;1.3024458;10.70687;1.0534488
10:00:42:315;1.3024458;10.70687;1.0534488
10:00:42:315;1.3024458;10.70687;1.0534488
10:00:42:315;1.3024458;10.70687;1.0534488
10:00:42:431;0.40222588;9.11712;3.1411927
10:00:42:431;0.40222588;9.11712;3.1411927
10:00:42:431;0.40222588;9.11712;3.1411927
10:00:42:431;0.40222588;9.11712;3.1411927
10:00:42:431;0.40222588;9.11712;3.1411927
10:00:42:431;0.40222588;9.11712;3.1411927
10:00:42:431;0.40222588;9.11712;3.1411927
10:00:42:431;0.40222588;9.11712;3.1411927
10:00:42:431;0.40222588;9.11712;3.1411927
10:00:42:431;0.40222588;9.11712;3.1411927
10:00:42:431;0.40222588;9.11712;3.1411927
10:00:42:431;0.40222588;9.11712;3.1411927
10:00:42:431;0.40222588;9.11712;3.1411927
10:00:42:533;0.7086837;8.868123;2.4899697
10:00:42:533;0.7086837;8.868123;2.4899697
10:00:42:533;0.7086837;8.868123;2.4899697
10:00:42:533;0.7086837;8.868123;2.4899697
10:00:42:533;0.7086837;8.868123;2.4899697
10:00:42:533;0.7086837;8.868123;2.4899697
10:00:42:533;0.7086837;8.868123;2.4899697
10:00:42:533;0.7086837;8.868123;2.4899697
10:00:42:533;0.7086837;8.868123;2.4899697
10:00:42:533;0.7086837;8.868123;2.4899697
10:00:42:533;0.7086837;8.868123;2.4899697
10:00:42:533;0.7086837;8.868123;2.4899697
10:00:42:533;0.7086837;8.868123;2.4899697
10:00:42:533;0.7086837;8.868123;2.4899697
10:00:42:533;0.7086837;8.868123;2.4899697
10:00:42:649;0.49799395;10.323798;1.2449849
10:00:42:649;0.49799395;10.323798;1.2449849
10:00:42:649;0.49799395;10.323798;1.2449849
10:00:42:649;0.49799395;10.323798;1.2449849
10:00:42:649;0.49799395;10.323798;1.2449849
10:00:42:649;0.49799395;10.323798;1.2449849
10:00:42:649;0.49799395;10.323798;1.2449849
10:00:42:649;0.49799395;10.323798;1.2449849
10:00:42:649;0.49799395;10.323798;1.2449849
10:00:42:649;0.49799395;10.323798;1.2449849
10:00:42:649;0.49799395;10.323798;1.2449849
10:00:42:649;0.49799395;10.323798;1.2449849
10:00:42:649;0.49799395;10.323798;1.2449849
10:00:42:649;0.49799395;10.323798;1.2449849
10:00:42:649;0.49799395;10.323798;1.2449849
10:00:42:769;0.17238252;9.615114;2.528277
10:00:42:769;0.17238252;9.615114;2.528277
10:00:42:769;0.17238252;9.615114;2.528277
10:00:42:769;0.17238252;9.615114;2.528277
10:00:42:769;0.17238252;9.615114;2.528277
10:00:42:769;0.17238252;9.615114;2.528277
10:00:42:769;0.17238252;9.615114;2.528277
10:00:42:769;0.17238252;9.615114;2.528277
10:00:42:769;0.17238252;9.615114;2.528277
10:00:42:769;0.17238252;9.615114;2.528277
10:00:42:769;0.17238252;9.615114;2.528277
10:00:42:769;0.17238252;9.615114;2.528277
10:00:42:769;0.17238252;9.615114;2.528277
10:00:42:769;0.17238252;9.615114;2.528277
10:00:42:769;0.17238252;9.615114;2.528277
10:00:42:769;0.17238252;9.615114;2.528277
10:00:42:894;0.5363012;9.825804;1.532289
10:00:42:894;0.5363012;9.825804;1.532289
10:00:42:894;0.5363012;9.825804;1.532289
10:00:42:894;0.5363012;9.825804;1.532289
10:00:42:894;0.5363012;9.825804;1.532289
10:00:42:894;0.5363012;9.825804;1.532289
10:00:42:894;0.5363012;9.825804;1.532289
10:00:42:894;0.5363012;9.825804;1.532289
10:00:42:894;0.5363012;9.825804;1.532289
10:00:42:894;0.5363012;9.825804;1.532289
10:00:42:894;0.5363012;9.825804;1.532289
10:00:42:894;0.5363012;9.825804;1.532289
10:00:42:894;0.5363012;9.825804;1.532289
10:00:42:894;0.5363012;9.825804;1.532289
10:00:42:894;0.5363012;9.825804;1.532289
10:00:43:011;1.2258313;9.825804;0.8810662
10:00:43:011;1.2258313;9.825804;0.8810662
10:00:43:011;1.2258313;9.825804;0.8810662
10:00:43:011;1.2258313;9.825804;0.8810662
10:00:43:011;1.2258313;9.825804;0.8810662
10:00:43:011;1.2258313;9.825804;0.8810662
10:00:43:011;1.2258313;9.825804;0.8810662
10:00:43:011;1.2258313;9.825804;0.8810662
10:00:43:011;1.2258313;9.825804;0.8810662
10:00:43:011;1.2258313;9.825804;0.8810662
10:00:43:011;1.2258313;9.825804;0.8810662
10:00:43:011;1.2258313;9.825804;0.8810662
10:00:43:011;1.2258313;9.825804;0.8810662
10:00:43:113;0.32561144;9.730036;1.6089035
10:00:43:113;0.32561144;9.730036;1.6089035
10:00:43:113;0.32561144;9.730036;1.6089035
10:00:43:113;0.32561144;9.730036;1.6089035
10:00:43:113;0.32561144;9.730036;1.6089035
10:00:43:113;0.32561144;9.730036;1.6089035
10:00:43:113;0.32561144;9.730036;1.6089035
10:00:43:113;0.32561144;9.730036;1.6089035
10:00:43:113;0.32561144;9.730036;1.6089035
10:00:43:113;0.32561144;9.730036;1.6089035
10:00:43:113;0.32561144;9.730036;1.6089035
10:00:43:113;0.32561144;9.730036;1.6089035
10:00:43:113;0.32561144;9.730036;1.6089035
10:00:43:113;0.32561144;9.730036;1.6089035
10:00:43:113;0.32561144;9.730036;1.6089035
10:00:43:231;0.2873042;10.457873;1.8195933
10:00:43:231;0.2873042;10.457873;1.8195933
10:00:43:231;0.2873042;10.457873;1.8195933
10:00:43:231;0.2873042;10.457873;1.8195933
10:00:43:231;0.2873042;10.457873;1.8195933
10:00:43:231;0.2873042;10.457873;1.8195933
10:00:43:231;0.2873042;10.457873;1.8195933
10:00:43:231;0.2873042;10.457873;1.8195933
10:00:43:231;0.2873042;10.457873;1.8195933
10:00:43:231;0.2873042;10.457873;1.8195933
10:00:43:231;0.2873042;10.457873;1.8195933
10:00:43:231;0.2873042;10.457873;1.8195933
10:00:43:231;0.2873042;10.457873;1.8195933
10:00:43:231;0.2873042;10.457873;1.8195933
10:00:43:231;0.2873042;10.457873;1.8195933
10:00:43:349;0.11492168;9.998186;1.8579005
10:00:43:349;0.11492168;9.998186;1.8579005
10:00:43:349;0.11492168;9.998186;1.8579005
10:00:43:349;0.11492168;9.998186;1.8579005
10:00:43:349;0.11492168;9.998186;1.8579005
10:00:43:349;0.11492168;9.998186;1.8579005
10:00:43:349;0.11492168;9.998186;1.8579005
10:00:43:349;0.11492168;9.998186;1.8579005
10:00:43:349;0.11492168;9.998186;1.8579005
10:00:43:349;0.11492168;9.998186;1.8579005
10:00:43:349;0.11492168;9.998186;1.8579005
10:00:43:349;0.11492168;9.998186;1.8579005
10:00:43:349;0.11492168;9.998186;1.8579005
10:00:43:349;0.11492168;9.998186;1.8579005
10:00:43:349;0.11492168;9.998186;1.8579005
10:00:43:466;0.47884035;8.446744;1.7238252
10:00:43:466;0.47884035;8.446744;1.7238252
10:00:43:466;0.47884035;8.446744;1.7238252
10:00:43:466;0.47884035;8.446744;1.7238252
10:00:43:466;0.47884035;8.446744;1.7238252
10:00:43:466;0.47884035;8.446744;1.7238252
10:00:43:466;0.47884035;8.446744;1.7238252
10:00:43:466;0.47884035;8.446744;1.7238252
10:00:43:466;0.47884035;8.446744;1.7238252
10:00:43:466;0.47884035;8.446744;1.7238252
10:00:43:466;0.47884035;8.446744;1.7238252
10:00:43:466;0.47884035;8.446744;1.7238252
10:00:43:466;0.47884035;8.446744;1.7238252
10:00:43:466;0.47884035;8.446744;1.7238252
10:00:43:466;0.47884035;8.446744;1.7238252
10:00:43:585;0.5746084;9.80665;2.3750482
10:00:43:585;0.5746084;9.80665;2.3750482
10:00:43:585;0.5746084;9.80665;2.3750482
10:00:43:585;0.5746084;9.80665;2.3750482
10:00:43:585;0.5746084;9.80665;2.3750482
10:00:43:585;0.5746084;9.80665;2.3750482
10:00:43:585;0.5746084;9.80665;2.3750482
10:00:43:585;0.5746084;9.80665;2.3750482
10:00:43:585;0.5746084;9.80665;2.3750482
10:00:43:585;0.5746084;9.80665;2.3750482
10:00:43:585;0.5746084;9.80665;2.3750482
10:00:43:585;0.5746084;9.80665;2.3750482
10:00:43:585;0.5746084;9.80665;2.3750482
10:00:43:686;0.51714754;9.11712;2.1260512
10:00:43:686;0.51714754;9.11712;2.1260512
10:00:43:686;0.51714754;9.11712;2.1260512
10:00:43:686;0.51714754;9.11712;2.1260512
10:00:43:686;0.51714754;9.11712;2.1260512
10:00:43:686;0.51714754;9.11712;2.1260512
10:00:43:686;0.51714754;9.11712;2.1260512
10:00:43:686;0.51714754;9.11712;2.1260512
10:00:43:686;0.51714754;9.11712;2.1260512
10:00:43:686;0.51714754;9.11712;2.1260512
10:00:43:686;0.51714754;9.11712;2.1260512
10:00:43:686;0.51714754;9.11712;2.1260512
10:00:43:686;0.51714754;9.11712;2.1260512
10:00:43:789;0.9768343;10.01734;1.532289
10:00:43:789;0.9768343;10.01734;1.532289
10:00:43:789;0.9768343;10.01734;1.532289
10:00:43:789;0.9768343;10.01734;1.532289
10:00:43:789;0.9768343;10.01734;1.532289
10:00:43:789;0.9768343;10.01734;1.532289
10:00:43:789;0.9768343;10.01734;1.532289
10:00:43:789;0.9768343;10.01734;1.532289
10:00:43:789;0.9768343;10.01734;1.532289
10:00:43:789;0.9768343;10.01734;1.532289
10:00:43:789;0.9768343;10.01734;1.532289
10:00:43:789;0.9768343;10.01734;1.532289
10:00:43:789;0.9768343;10.01734;1.532289
10:00:43:789;0.9768343;10.01734;1.532289
10:00:43:789;0.9768343;10.01734;1.532289
10:00:43:906;0.59376204;9.423578;1.532289
10:00:43:906;0.59376204;9.423578;1.532289
10:00:43:906;0.59376204;9.423578;1.532289
10:00:43:906;0.59376204;9.423578;1.532289
10:00:43:906;0.59376204;9.423578;1.532289
10:00:43:906;0.59376204;9.423578;1.532289
10:00:43:906;0.59376204;9.423578;1.532289
10:00:43:906;0.59376204;9.423578;1.532289
10:00:43:906;0.59376204;9.423578;1.532289
10:00:43:906;0.59376204;9.423578;1.532289
10:00:43:906;0.59376204;9.423578;1.532289
10:00:43:906;0.59376204;9.423578;1.532289
10:00:43:906;0.59376204;9.423578;1.532289
10:00:43:906;0.59376204;9.423578;1.532289
10:00:44:009;0.45968673;9.097966;1.4173675
10:00:44:009;0.45968673;9.097966;1.4173675
10:00:44:009;0.45968673;9.097966;1.4173675
10:00:44:009;0.45968673;9.097966;1.4173675
10:00:44:009;0.45968673;9.097966;1.4173675
10:00:44:009;0.45968673;9.097966;1.4173675
10:00:44:009;0.45968673;9.097966;1.4173675
10:00:44:009;0.45968673;9.097966;1.4173675
10:00:44:009;0.45968673;9.097966;1.4173675
10:00:44:009;0.45968673;9.097966;1.4173675
10:00:44:009;0.45968673;9.097966;1.4173675
10:00:44:009;0.45968673;9.097966;1.4173675
10:00:44:009;0.45968673;9.097966;1.4173675
10:00:44:009;0.45968673;9.097966;1.4173675
10:00:44:009;0.45968673;9.097966;1.4173675
10:00:44:126;0.82360536;9.883265;1.8195933
10:00:44:126;0.82360536;9.883265;1.8195933
10:00:44:126;0.82360536;9.883265;1.8195933
10:00:44:126;0.82360536;9.883265;1.8195933
10:00:44:126;0.82360536;9.883265;1.8195933
10:00:44:126;0.82360536;9.883265;1.8195933
10:00:44:126;0.82360536;9.883265;1.8195933
10:00:44:126;0.82360536;9.883265;1.8195933
10:00:44:126;0.82360536;9.883265;1.8195933
10:00:44:126;0.82360536;9.883265;1.8195933
10:00:44:126;0.82360536;9.883265;1.8195933
10:00:44:126;0.82360536;9.883265;1.8195933
10:00:44:126;0.82360536;9.883265;1.8195933
10:00:44:232;0.5746084;10.400413;0.93852705
10:00:44:232;0.5746084;10.400413;0.93852705
10:00:44:232;0.5746084;10.400413;0.93852705
10:00:44:232;0.5746084;10.400413;0.93852705
10:00:44:232;0.5746084;10.400413;0.93852705
10:00:44:232;0.5746084;10.400413;0.93852705
10:00:44:232;0.5746084;10.400413;0.93852705
10:00:44:232;0.5746084;10.400413;0.93852705
10:00:44:232;0.5746084;10.400413;0.93852705
10:00:44:232;0.5746084;10.400413;0.93852705
10:00:44:232;0.5746084;10.400413;0.93852705
10:00:44:232;0.5746084;10.400413;0.93852705
10:00:44:232;0.5746084;10.400413;0.93852705
10:00:44:232;0.5746084;10.400413;0.93852705
10:00:44:232;0.5746084;10.400413;0.93852705
10:00:44:349;-0.19153613;10.0748005;1.8770541
10:00:44:349;-0.19153613;10.0748005;1.8770541
10:00:44:349;-0.19153613;10.0748005;1.8770541
10:00:44:349;-0.19153613;10.0748005;1.8770541
10:00:44:349;-0.19153613;10.0748005;1.8770541
10:00:44:349;-0.19153613;10.0748005;1.8770541
10:00:44:349;-0.19153613;10.0748005;1.8770541
10:00:44:349;-0.19153613;10.0748005;1.8770541
10:00:44:349;-0.19153613;10.0748005;1.8770541
10:00:44:349;-0.19153613;10.0748005;1.8770541
10:00:44:349;-0.19153613;10.0748005;1.8770541
10:00:44:349;-0.19153613;10.0748005;1.8770541
10:00:44:349;-0.19153613;10.0748005;1.8770541
10:00:44:349;-0.19153613;10.0748005;1.8770541
10:00:44:349;-0.19153613;10.0748005;1.8770541
10:00:44:467;0.63206923;9.404425;1.5705963
10:00:44:467;0.63206923;9.404425;1.5705963
10:00:44:467;0.63206923;9.404425;1.5705963
10:00:44:467;0.63206923;9.404425;1.5705963
10:00:44:467;0.63206923;9.404425;1.5705963
10:00:44:467;0.63206923;9.404425;1.5705963
10:00:44:467;0.63206923;9.404425;1.5705963
10:00:44:467;0.63206923;9.404425;1.5705963
10:00:44:467;0.63206923;9.404425;1.5705963
10:00:44:467;0.63206923;9.404425;1.5705963
10:00:44:467;0.63206923;9.404425;1.5705963
10:00:44:467;0.63206923;9.404425;1.5705963
10:00:44:467;0.63206923;9.404425;1.5705963
10:00:44:467;0.63206923;9.404425;1.5705963
10:00:44:467;0.63206923;9.404425;1.5705963
10:00:44:583;0.17238252;9.481039;1.0342951
10:00:44:583;0.17238252;9.481039;1.0342951
10:00:44:583;0.17238252;9.481039;1.0342951
10:00:44:583;0.17238252;9.481039;1.0342951
10:00:44:583;0.17238252;9.481039;1.0342951
10:00:44:583;0.17238252;9.481039;1.0342951
10:00:44:583;0.17238252;9.481039;1.0342951
10:00:44:583;0.17238252;9.481039;1.0342951
10:00:44:583;0.17238252;9.481039;1.0342951
10:00:44:583;0.17238252;9.481039;1.0342951
10:00:44:583;0.17238252;9.481039;1.0342951
10:00:44:583;0.17238252;9.481039;1.0342951
10:00:44:583;0.17238252;9.481039;1.0342951
10:00:44:583;0.17238252;9.481039;1.0342951
10:00:44:583;0.17238252;9.481039;1.0342951
10:00:44:703;0.24899697;10.01734;1.6663644
10:00:44:703;0.24899697;10.01734;1.6663644
10:00:44:703;0.24899697;10.01734;1.6663644
10:00:44:703;0.24899697;10.01734;1.6663644
10:00:44:703;0.24899697;10.01734;1.6663644
10:00:44:703;0.24899697;10.01734;1.6663644
10:00:44:703;0.24899697;10.01734;1.6663644
10:00:44:703;0.24899697;10.01734;1.6663644
10:00:44:703;0.24899697;10.01734;1.6663644
10:00:44:703;0.24899697;10.01734;1.6663644
10:00:44:703;0.24899697;10.01734;1.6663644
10:00:44:703;0.24899697;10.01734;1.6663644
10:00:44:703;0.24899697;10.01734;1.6663644
10:00:44:703;0.24899697;10.01734;1.6663644
10:00:44:808;-0.36391866;8.63828;2.087744
10:00:44:808;-0.36391866;8.63828;2.087744
10:00:44:808;-0.36391866;8.63828;2.087744
10:00:44:808;-0.36391866;8.63828;2.087744
10:00:44:808;-0.36391866;8.63828;2.087744
10:00:44:808;-0.36391866;8.63828;2.087744
10:00:44:808;-0.36391866;8.63828;2.087744
10:00:44:808;-0.36391866;8.63828;2.087744
10:00:44:808;-0.36391866;8.63828;2.087744
10:00:44:808;-0.36391866;8.63828;2.087744
10:00:44:808;-0.36391866;8.63828;2.087744
10:00:44:808;-0.36391866;8.63828;2.087744
10:00:44:808;-0.36391866;8.63828;2.087744
10:00:44:909;0.63206923;10.28549;1.4748282
10:00:44:909;0.63206923;10.28549;1.4748282
10:00:44:909;0.63206923;10.28549;1.4748282
10:00:44:909;0.63206923;10.28549;1.4748282
10:00:44:909;0.63206923;10.28549;1.4748282
10:00:44:909;0.63206923;10.28549;1.4748282
10:00:44:909;0.63206923;10.28549;1.4748282
10:00:44:909;0.63206923;10.28549;1.4748282
10:00:44:909;0.63206923;10.28549;1.4748282
10:00:44:909;0.63206923;10.28549;1.4748282
10:00:44:909;0.63206923;10.28549;1.4748282
10:00:44:909;0.63206923;10.28549;1.4748282
10:00:44:909;0.63206923;10.28549;1.4748282
10:00:44:909;0.63206923;10.28549;1.4748282
10:00:44:909;0.63206923;10.28549;1.4748282
10:00:45:028;0.32561144;9.193734;0.8619126
10:00:45:028;0.32561144;9.193734;0.8619126
10:00:45:028;0.32561144;9.193734;0.8619126
10:00:45:028;0.32561144;9.193734;0.8619126
10:00:45:028;0.32561144;9.193734;0.8619126
10:00:45:028;0.32561144;9.193734;0.8619126
10:00:45:028;0.32561144;9.193734;0.8619126
10:00:45:028;0.32561144;9.193734;0.8619126
10:00:45:028;0.32561144;9.193734;0.8619126
