Time_Accel;AccelX;AccelY;AccelZ
10:55:02:484;-0.2681506;10.208876;-0.7661445
10:55:02:484;-0.2681506;10.208876;-0.7661445
10:55:02:484;-0.2681506;10.208876;-0.7661445
10:55:02:484;-0.2681506;10.208876;-0.7661445
10:55:02:484;-0.2681506;10.208876;-0.7661445
10:55:02:484;-0.2681506;10.208876;-0.7661445
10:55:02:484;-0.2681506;10.208876;-0.7661445
10:55:02:484;-0.2681506;10.208876;-0.7661445
10:55:02:484;-0.2681506;10.208876;-0.7661445
10:55:02:484;-0.2681506;10.208876;-0.7661445
10:55:02:484;-0.2681506;10.208876;-0.7661445
10:55:02:484;-0.2681506;10.208876;-0.7661445
10:55:02:484;-0.2681506;10.208876;-0.7661445
10:55:02:484;-0.2681506;10.208876;-0.7661445
10:55:02:601;-0.7086837;10.515334;-0.2681506
10:55:02:601;-0.7086837;10.515334;-0.2681506
10:55:02:601;-0.7086837;10.515334;-0.2681506
10:55:02:601;-0.7086837;10.515334;-0.2681506
10:55:02:601;-0.7086837;10.515334;-0.2681506
10:55:02:601;-0.7086837;10.515334;-0.2681506
10:55:02:601;-0.7086837;10.515334;-0.2681506
10:55:02:601;-0.7086837;10.515334;-0.2681506
10:55:02:601;-0.7086837;10.515334;-0.2681506
10:55:02:601;-0.7086837;10.515334;-0.2681506
10:55:02:601;-0.7086837;10.515334;-0.2681506
10:55:02:601;-0.7086837;10.515334;-0.2681506
10:55:02:601;-0.7086837;10.515334;-0.2681506
10:55:02:601;-0.7086837;10.515334;-0.2681506
10:55:02:601;-0.7086837;10.515334;-0.2681506
10:55:02:601;-0.7086837;10.515334;-0.2681506
10:55:02:720;-0.095768064;9.940725;-0.5363012
10:55:02:720;-0.095768064;9.940725;-0.5363012
10:55:02:720;-0.095768064;9.940725;-0.5363012
10:55:02:720;-0.095768064;9.940725;-0.5363012
10:55:02:720;-0.095768064;9.940725;-0.5363012
10:55:02:720;-0.095768064;9.940725;-0.5363012
10:55:02:720;-0.095768064;9.940725;-0.5363012
10:55:02:720;-0.095768064;9.940725;-0.5363012
10:55:02:720;-0.095768064;9.940725;-0.5363012
10:55:02:720;-0.095768064;9.940725;-0.5363012
10:55:02:720;-0.095768064;9.940725;-0.5363012
10:55:02:720;-0.095768064;9.940725;-0.5363012
10:55:02:720;-0.095768064;9.940725;-0.5363012
10:55:02:720;-0.095768064;9.940725;-0.5363012
10:55:02:720;-0.095768064;9.940725;-0.5363012
10:55:02:836;-0.34476504;10.170568;0.11492168
10:55:02:836;-0.34476504;10.170568;0.11492168
10:55:02:836;-0.34476504;10.170568;0.11492168
10:55:02:836;-0.34476504;10.170568;0.11492168
10:55:02:836;-0.34476504;10.170568;0.11492168
10:55:02:836;-0.34476504;10.170568;0.11492168
10:55:02:836;-0.34476504;10.170568;0.11492168
10:55:02:836;-0.34476504;10.170568;0.11492168
10:55:02:836;-0.34476504;10.170568;0.11492168
10:55:02:836;-0.34476504;10.170568;0.11492168
10:55:02:836;-0.34476504;10.170568;0.11492168
10:55:02:836;-0.34476504;10.170568;0.11492168
10:55:02:836;-0.34476504;10.170568;0.11492168
10:55:02:836;-0.34476504;10.170568;0.11492168
10:55:02:836;-0.34476504;10.170568;0.11492168
10:55:02:954;-0.47884035;10.477027;-0.6703765
10:55:02:954;-0.47884035;10.477027;-0.6703765
10:55:02:954;-0.47884035;10.477027;-0.6703765
10:55:02:954;-0.47884035;10.477027;-0.6703765
10:55:02:954;-0.47884035;10.477027;-0.6703765
10:55:02:954;-0.47884035;10.477027;-0.6703765
10:55:02:954;-0.47884035;10.477027;-0.6703765
10:55:02:954;-0.47884035;10.477027;-0.6703765
10:55:02:954;-0.47884035;10.477027;-0.6703765
10:55:02:954;-0.47884035;10.477027;-0.6703765
10:55:02:954;-0.47884035;10.477027;-0.6703765
10:55:02:954;-0.47884035;10.477027;-0.6703765
10:55:02:954;-0.47884035;10.477027;-0.6703765
10:55:03:059;0.2873042;9.040505;-0.51714754
10:55:03:059;0.2873042;9.040505;-0.51714754
10:55:03:059;0.2873042;9.040505;-0.51714754
10:55:03:059;0.2873042;9.040505;-0.51714754
10:55:03:059;0.2873042;9.040505;-0.51714754
10:55:03:059;0.2873042;9.040505;-0.51714754
10:55:03:059;0.2873042;9.040505;-0.51714754
10:55:03:059;0.2873042;9.040505;-0.51714754
10:55:03:059;0.2873042;9.040505;-0.51714754
10:55:03:059;0.2873042;9.040505;-0.51714754
10:55:03:059;0.2873042;9.040505;-0.51714754
10:55:03:059;0.2873042;9.040505;-0.51714754
10:55:03:059;0.2873042;9.040505;-0.51714754
10:55:03:059;0.2873042;9.040505;-0.51714754
10:55:03:059;0.2873042;9.040505;-0.51714754
10:55:03:177;-0.5554548;10.955867;-0.34476504
10:55:03:177;-0.5554548;10.955867;-0.34476504
10:55:03:177;-0.5554548;10.955867;-0.34476504
10:55:03:177;-0.5554548;10.955867;-0.34476504
10:55:03:177;-0.5554548;10.955867;-0.34476504
10:55:03:177;-0.5554548;10.955867;-0.34476504
10:55:03:177;-0.5554548;10.955867;-0.34476504
10:55:03:177;-0.5554548;10.955867;-0.34476504
10:55:03:177;-0.5554548;10.955867;-0.34476504
10:55:03:177;-0.5554548;10.955867;-0.34476504
10:55:03:177;-0.5554548;10.955867;-0.34476504
10:55:03:177;-0.5554548;10.955867;-0.34476504
10:55:03:177;-0.5554548;10.955867;-0.34476504
10:55:03:177;-0.5554548;10.955867;-0.34476504
10:55:03:177;-0.5554548;10.955867;-0.34476504
10:55:03:177;-0.5554548;10.955867;-0.34476504
10:55:03:177;-0.5554548;10.955867;-0.34476504
10:55:03:311;-0.11492168;9.212888;-0.17238252
10:55:03:311;-0.11492168;9.212888;-0.17238252
10:55:03:311;-0.11492168;9.212888;-0.17238252
10:55:03:311;-0.11492168;9.212888;-0.17238252
10:55:03:311;-0.11492168;9.212888;-0.17238252
10:55:03:311;-0.11492168;9.212888;-0.17238252
10:55:03:311;-0.11492168;9.212888;-0.17238252
10:55:03:311;-0.11492168;9.212888;-0.17238252
10:55:03:311;-0.11492168;9.212888;-0.17238252
10:55:03:311;-0.11492168;9.212888;-0.17238252
10:55:03:311;-0.11492168;9.212888;-0.17238252
10:55:03:311;-0.11492168;9.212888;-0.17238252
10:55:03:406;-0.5554548;10.477027;0.19153613
10:55:03:406;-0.5554548;10.477027;0.19153613
10:55:03:406;-0.5554548;10.477027;0.19153613
10:55:03:406;-0.5554548;10.477027;0.19153613
10:55:03:406;-0.5554548;10.477027;0.19153613
10:55:03:406;-0.5554548;10.477027;0.19153613
10:55:03:406;-0.5554548;10.477027;0.19153613
10:55:03:406;-0.5554548;10.477027;0.19153613
10:55:03:406;-0.5554548;10.477027;0.19153613
10:55:03:406;-0.5554548;10.477027;0.19153613
10:55:03:406;-0.5554548;10.477027;0.19153613
10:55:03:406;-0.5554548;10.477027;0.19153613
10:55:03:406;-0.5554548;10.477027;0.19153613
10:55:03:406;-0.5554548;10.477027;0.19153613
10:55:03:509;-0.05746084;10.01734;0.51714754
10:55:03:509;-0.05746084;10.01734;0.51714754
10:55:03:509;-0.05746084;10.01734;0.51714754
10:55:03:509;-0.05746084;10.01734;0.51714754
10:55:03:509;-0.05746084;10.01734;0.51714754
10:55:03:509;-0.05746084;10.01734;0.51714754
10:55:03:509;-0.05746084;10.01734;0.51714754
10:55:03:509;-0.05746084;10.01734;0.51714754
10:55:03:509;-0.05746084;10.01734;0.51714754
10:55:03:509;-0.05746084;10.01734;0.51714754
10:55:03:509;-0.05746084;10.01734;0.51714754
10:55:03:509;-0.05746084;10.01734;0.51714754
10:55:03:509;-0.05746084;10.01734;0.51714754
10:55:03:509;-0.05746084;10.01734;0.51714754
10:55:03:620;0.019153614;9.710882;-0.038307227
10:55:03:620;0.019153614;9.710882;-0.038307227
10:55:03:620;0.019153614;9.710882;-0.038307227
10:55:03:620;0.019153614;9.710882;-0.038307227
10:55:03:620;0.019153614;9.710882;-0.038307227
10:55:03:620;0.019153614;9.710882;-0.038307227
10:55:03:620;0.019153614;9.710882;-0.038307227
10:55:03:620;0.019153614;9.710882;-0.038307227
10:55:03:620;0.019153614;9.710882;-0.038307227
10:55:03:620;0.019153614;9.710882;-0.038307227
10:55:03:620;0.019153614;9.710882;-0.038307227
10:55:03:620;0.019153614;9.710882;-0.038307227
10:55:03:620;0.019153614;9.710882;-0.038307227
10:55:03:620;0.019153614;9.710882;-0.038307227
10:55:03:727;-0.5746084;9.385271;-0.5746084
10:55:03:727;-0.5746084;9.385271;-0.5746084
10:55:03:727;-0.5746084;9.385271;-0.5746084
10:55:03:727;-0.5746084;9.385271;-0.5746084
10:55:03:727;-0.5746084;9.385271;-0.5746084
10:55:03:727;-0.5746084;9.385271;-0.5746084
10:55:03:727;-0.5746084;9.385271;-0.5746084
10:55:03:727;-0.5746084;9.385271;-0.5746084
10:55:03:727;-0.5746084;9.385271;-0.5746084
10:55:03:727;-0.5746084;9.385271;-0.5746084
10:55:03:727;-0.5746084;9.385271;-0.5746084
10:55:03:727;-0.5746084;9.385271;-0.5746084
10:55:03:727;-0.5746084;9.385271;-0.5746084
10:55:03:727;-0.5746084;9.385271;-0.5746084
10:55:03:727;-0.5746084;9.385271;-0.5746084
10:55:03:727;-0.5746084;9.385271;-0.5746084
10:55:03:727;-0.5746084;9.385271;-0.5746084
10:55:03:727;-0.5746084;9.385271;-0.5746084
10:55:03:872;-0.05746084;9.059659;-0.22984336
10:55:03:872;-0.05746084;9.059659;-0.22984336
10:55:03:872;-0.05746084;9.059659;-0.22984336
10:55:03:872;-0.05746084;9.059659;-0.22984336
10:55:03:872;-0.05746084;9.059659;-0.22984336
10:55:03:872;-0.05746084;9.059659;-0.22984336
10:55:03:872;-0.05746084;9.059659;-0.22984336
10:55:03:872;-0.05746084;9.059659;-0.22984336
10:55:03:872;-0.05746084;9.059659;-0.22984336
10:55:03:872;-0.05746084;9.059659;-0.22984336
10:55:03:872;-0.05746084;9.059659;-0.22984336
10:55:03:872;-0.05746084;9.059659;-0.22984336
10:55:03:872;-0.05746084;9.059659;-0.22984336
10:55:03:872;-0.05746084;9.059659;-0.22984336
10:55:03:872;-0.05746084;9.059659;-0.22984336
10:55:03:986;-0.51714754;10.764331;-0.47884035
10:55:03:986;-0.51714754;10.764331;-0.47884035
10:55:03:986;-0.51714754;10.764331;-0.47884035
10:55:03:986;-0.51714754;10.764331;-0.47884035
10:55:03:986;-0.51714754;10.764331;-0.47884035
10:55:03:986;-0.51714754;10.764331;-0.47884035
10:55:03:986;-0.51714754;10.764331;-0.47884035
10:55:03:986;-0.51714754;10.764331;-0.47884035
10:55:03:986;-0.51714754;10.764331;-0.47884035
10:55:03:986;-0.51714754;10.764331;-0.47884035
10:55:03:986;-0.51714754;10.764331;-0.47884035
10:55:03:986;-0.51714754;10.764331;-0.47884035
10:55:03:986;-0.51714754;10.764331;-0.47884035
10:55:03:986;-0.51714754;10.764331;-0.47884035
10:55:03:986;-0.51714754;10.764331;-0.47884035
10:55:04:105;-0.78529817;10.802638;-0.24899697
10:55:04:105;-0.78529817;10.802638;-0.24899697
10:55:04:105;-0.78529817;10.802638;-0.24899697
10:55:04:105;-0.78529817;10.802638;-0.24899697
10:55:04:105;-0.78529817;10.802638;-0.24899697
10:55:04:105;-0.78529817;10.802638;-0.24899697
10:55:04:105;-0.78529817;10.802638;-0.24899697
10:55:04:105;-0.78529817;10.802638;-0.24899697
10:55:04:105;-0.78529817;10.802638;-0.24899697
10:55:04:105;-0.78529817;10.802638;-0.24899697
10:55:04:105;-0.78529817;10.802638;-0.24899697
10:55:04:105;-0.78529817;10.802638;-0.24899697
10:55:04:105;-0.78529817;10.802638;-0.24899697
10:55:04:105;-0.78529817;10.802638;-0.24899697
10:55:04:218;-0.78529817;10.055647;-0.40222588
10:55:04:218;-0.78529817;10.055647;-0.40222588
10:55:04:218;-0.78529817;10.055647;-0.40222588
10:55:04:218;-0.78529817;10.055647;-0.40222588
10:55:04:218;-0.78529817;10.055647;-0.40222588
10:55:04:218;-0.78529817;10.055647;-0.40222588
10:55:04:218;-0.78529817;10.055647;-0.40222588
10:55:04:218;-0.78529817;10.055647;-0.40222588
10:55:04:218;-0.78529817;10.055647;-0.40222588
10:55:04:218;-0.78529817;10.055647;-0.40222588
10:55:04:218;-0.78529817;10.055647;-0.40222588
10:55:04:218;-0.78529817;10.055647;-0.40222588
10:55:04:218;-0.78529817;10.055647;-0.40222588
10:55:04:319;-0.38307226;10.208876;-0.82360536
10:55:04:319;-0.38307226;10.208876;-0.82360536
10:55:04:319;-0.38307226;10.208876;-0.82360536
10:55:04:319;-0.38307226;10.208876;-0.82360536
10:55:04:319;-0.38307226;10.208876;-0.82360536
10:55:04:319;-0.38307226;10.208876;-0.82360536
10:55:04:319;-0.38307226;10.208876;-0.82360536
10:55:04:319;-0.38307226;10.208876;-0.82360536
10:55:04:319;-0.38307226;10.208876;-0.82360536
10:55:04:319;-0.38307226;10.208876;-0.82360536
10:55:04:319;-0.38307226;10.208876;-0.82360536
10:55:04:319;-0.38307226;10.208876;-0.82360536
10:55:04:319;-0.38307226;10.208876;-0.82360536
10:55:04:319;-0.38307226;10.208876;-0.82360536
10:55:04:319;-0.38307226;10.208876;-0.82360536
10:55:04:431;-0.6703765;9.730036;0.17238252
10:55:04:431;-0.6703765;9.730036;0.17238252
10:55:04:431;-0.6703765;9.730036;0.17238252
10:55:04:431;-0.6703765;9.730036;0.17238252
10:55:04:431;-0.6703765;9.730036;0.17238252
10:55:04:431;-0.6703765;9.730036;0.17238252
10:55:04:431;-0.6703765;9.730036;0.17238252
10:55:04:431;-0.6703765;9.730036;0.17238252
10:55:04:431;-0.6703765;9.730036;0.17238252
10:55:04:431;-0.6703765;9.730036;0.17238252
10:55:04:431;-0.6703765;9.730036;0.17238252
10:55:04:431;-0.6703765;9.730036;0.17238252
10:55:04:431;-0.6703765;9.730036;0.17238252
10:55:04:534;-0.1340753;9.825804;-0.38307226
10:55:04:534;-0.1340753;9.825804;-0.38307226
10:55:04:534;-0.1340753;9.825804;-0.38307226
10:55:04:534;-0.1340753;9.825804;-0.38307226
10:55:04:534;-0.1340753;9.825804;-0.38307226
10:55:04:534;-0.1340753;9.825804;-0.38307226
10:55:04:534;-0.1340753;9.825804;-0.38307226
10:55:04:534;-0.1340753;9.825804;-0.38307226
10:55:04:534;-0.1340753;9.825804;-0.38307226
10:55:04:534;-0.1340753;9.825804;-0.38307226
10:55:04:534;-0.1340753;9.825804;-0.38307226
10:55:04:534;-0.1340753;9.825804;-0.38307226
10:55:04:534;-0.1340753;9.825804;-0.38307226
10:55:04:534;-0.1340753;9.825804;-0.38307226
10:55:04:534;-0.1340753;9.825804;-0.38307226
10:55:04:534;-0.1340753;9.825804;-0.38307226
10:55:04:663;-0.36391866;10.0748005;-1.0151415
10:55:04:663;-0.36391866;10.0748005;-1.0151415
10:55:04:663;-0.36391866;10.0748005;-1.0151415
10:55:04:663;-0.36391866;10.0748005;-1.0151415
10:55:04:663;-0.36391866;10.0748005;-1.0151415
10:55:04:663;-0.36391866;10.0748005;-1.0151415
10:55:04:663;-0.36391866;10.0748005;-1.0151415
10:55:04:663;-0.36391866;10.0748005;-1.0151415
10:55:04:663;-0.36391866;10.0748005;-1.0151415
10:55:04:663;-0.36391866;10.0748005;-1.0151415
10:55:04:663;-0.36391866;10.0748005;-1.0151415
10:55:04:663;-0.36391866;10.0748005;-1.0151415
10:55:04:663;-0.36391866;10.0748005;-1.0151415
10:55:04:663;-0.36391866;10.0748005;-1.0151415
10:55:04:769;-0.2873042;9.844957;-0.32561144
10:55:04:769;-0.2873042;9.844957;-0.32561144
10:55:04:769;-0.2873042;9.844957;-0.32561144
10:55:04:769;-0.2873042;9.844957;-0.32561144
10:55:04:769;-0.2873042;9.844957;-0.32561144
10:55:04:769;-0.2873042;9.844957;-0.32561144
10:55:04:769;-0.2873042;9.844957;-0.32561144
10:55:04:769;-0.2873042;9.844957;-0.32561144
10:55:04:769;-0.2873042;9.844957;-0.32561144
10:55:04:769;-0.2873042;9.844957;-0.32561144
10:55:04:769;-0.2873042;9.844957;-0.32561144
10:55:04:769;-0.2873042;9.844957;-0.32561144
10:55:04:769;-0.2873042;9.844957;-0.32561144
10:55:04:769;-0.2873042;9.844957;-0.32561144
10:55:04:769;-0.2873042;9.844957;-0.32561144
10:55:04:888;-0.19153613;10.055647;-0.7278373
10:55:04:888;-0.19153613;10.055647;-0.7278373
10:55:04:888;-0.19153613;10.055647;-0.7278373
10:55:04:888;-0.19153613;10.055647;-0.7278373
10:55:04:888;-0.19153613;10.055647;-0.7278373
10:55:04:888;-0.19153613;10.055647;-0.7278373
10:55:04:888;-0.19153613;10.055647;-0.7278373
10:55:04:888;-0.19153613;10.055647;-0.7278373
10:55:04:888;-0.19153613;10.055647;-0.7278373
10:55:04:888;-0.19153613;10.055647;-0.7278373
10:55:04:888;-0.19153613;10.055647;-0.7278373
10:55:04:888;-0.19153613;10.055647;-0.7278373
10:55:04:888;-0.19153613;10.055647;-0.7278373
10:55:04:888;-0.19153613;10.055647;-0.7278373
10:55:04:888;-0.19153613;10.055647;-0.7278373
10:55:05:006;-0.24899697;9.423578;-0.095768064
10:55:05:006;-0.24899697;9.423578;-0.095768064
10:55:05:006;-0.24899697;9.423578;-0.095768064
10:55:05:006;-0.24899697;9.423578;-0.095768064
10:55:05:006;-0.24899697;9.423578;-0.095768064
10:55:05:006;-0.24899697;9.423578;-0.095768064
10:55:05:006;-0.24899697;9.423578;-0.095768064
10:55:05:006;-0.24899697;9.423578;-0.095768064
10:55:05:006;-0.24899697;9.423578;-0.095768064
10:55:05:006;-0.24899697;9.423578;-0.095768064
10:55:05:006;-0.24899697;9.423578;-0.095768064
10:55:05:006;-0.24899697;9.423578;-0.095768064
10:55:05:006;-0.24899697;9.423578;-0.095768064
10:55:05:006;-0.24899697;9.423578;-0.095768064
10:55:05:006;-0.24899697;9.423578;-0.095768064
10:55:05:124;-0.51714754;9.672575;-0.842759
10:55:05:124;-0.51714754;9.672575;-0.842759
10:55:05:124;-0.51714754;9.672575;-0.842759
10:55:05:124;-0.51714754;9.672575;-0.842759
10:55:05:124;-0.51714754;9.672575;-0.842759
10:55:05:124;-0.51714754;9.672575;-0.842759
10:55:05:124;-0.51714754;9.672575;-0.842759
10:55:05:124;-0.51714754;9.672575;-0.842759
10:55:05:124;-0.51714754;9.672575;-0.842759
10:55:05:124;-0.51714754;9.672575;-0.842759
10:55:05:124;-0.51714754;9.672575;-0.842759
10:55:05:124;-0.51714754;9.672575;-0.842759
10:55:05:124;-0.51714754;9.672575;-0.842759
10:55:05:124;-0.51714754;9.672575;-0.842759
10:55:05:124;-0.51714754;9.672575;-0.842759
10:55:05:242;-0.076614454;9.825804;-0.78529817
10:55:05:242;-0.076614454;9.825804;-0.78529817
10:55:05:242;-0.076614454;9.825804;-0.78529817
10:55:05:242;-0.076614454;9.825804;-0.78529817
10:55:05:242;-0.076614454;9.825804;-0.78529817
10:55:05:242;-0.076614454;9.825804;-0.78529817
10:55:05:242;-0.076614454;9.825804;-0.78529817
10:55:05:242;-0.076614454;9.825804;-0.78529817
10:55:05:242;-0.076614454;9.825804;-0.78529817
10:55:05:242;-0.076614454;9.825804;-0.78529817
10:55:05:242;-0.076614454;9.825804;-0.78529817
10:55:05:242;-0.076614454;9.825804;-0.78529817
10:55:05:242;-0.076614454;9.825804;-0.78529817
10:55:05:242;-0.076614454;9.825804;-0.78529817
10:55:05:242;-0.076614454;9.825804;-0.78529817
10:55:05:353;-0.49799395;10.342952;-0.90021986
10:55:05:353;-0.49799395;10.342952;-0.90021986
10:55:05:353;-0.49799395;10.342952;-0.90021986
10:55:05:353;-0.49799395;10.342952;-0.90021986
10:55:05:353;-0.49799395;10.342952;-0.90021986
10:55:05:353;-0.49799395;10.342952;-0.90021986
10:55:05:353;-0.49799395;10.342952;-0.90021986
10:55:05:353;-0.49799395;10.342952;-0.90021986
10:55:05:353;-0.49799395;10.342952;-0.90021986
10:55:05:353;-0.49799395;10.342952;-0.90021986
10:55:05:353;-0.49799395;10.342952;-0.90021986
10:55:05:353;-0.49799395;10.342952;-0.90021986
10:55:05:353;-0.49799395;10.342952;-0.90021986
10:55:05:353;-0.49799395;10.342952;-0.90021986
10:55:05:353;-0.49799395;10.342952;-0.90021986
10:55:05:473;-0.24899697;10.342952;-0.842759
10:55:05:473;-0.24899697;10.342952;-0.842759
10:55:05:473;-0.24899697;10.342952;-0.842759
10:55:05:473;-0.24899697;10.342952;-0.842759
10:55:05:473;-0.24899697;10.342952;-0.842759
10:55:05:473;-0.24899697;10.342952;-0.842759
10:55:05:473;-0.24899697;10.342952;-0.842759
10:55:05:473;-0.24899697;10.342952;-0.842759
10:55:05:473;-0.24899697;10.342952;-0.842759
10:55:05:473;-0.24899697;10.342952;-0.842759
10:55:05:473;-0.24899697;10.342952;-0.842759
10:55:05:473;-0.24899697;10.342952;-0.842759
10:55:05:473;-0.24899697;10.342952;-0.842759
10:55:05:574;-0.4405331;9.653421;-0.59376204
10:55:05:574;-0.4405331;9.653421;-0.59376204
10:55:05:574;-0.4405331;9.653421;-0.59376204
10:55:05:574;-0.4405331;9.653421;-0.59376204
10:55:05:574;-0.4405331;9.653421;-0.59376204
10:55:05:574;-0.4405331;9.653421;-0.59376204
10:55:05:574;-0.4405331;9.653421;-0.59376204
10:55:05:574;-0.4405331;9.653421;-0.59376204
10:55:05:574;-0.4405331;9.653421;-0.59376204
10:55:05:574;-0.4405331;9.653421;-0.59376204
10:55:05:574;-0.4405331;9.653421;-0.59376204
10:55:05:574;-0.4405331;9.653421;-0.59376204
10:55:05:574;-0.4405331;9.653421;-0.59376204
10:55:05:574;-0.4405331;9.653421;-0.59376204
10:55:05:574;-0.4405331;9.653421;-0.59376204
10:55:05:691;-0.2681506;11.18571;-1.3024458
10:55:05:691;-0.2681506;11.18571;-1.3024458
10:55:05:691;-0.2681506;11.18571;-1.3024458
10:55:05:691;-0.2681506;11.18571;-1.3024458
10:55:05:691;-0.2681506;11.18571;-1.3024458
10:55:05:691;-0.2681506;11.18571;-1.3024458
10:55:05:691;-0.2681506;11.18571;-1.3024458
10:55:05:691;-0.2681506;11.18571;-1.3024458
10:55:05:691;-0.2681506;11.18571;-1.3024458
10:55:05:691;-0.2681506;11.18571;-1.3024458
10:55:05:691;-0.2681506;11.18571;-1.3024458
10:55:05:691;-0.2681506;11.18571;-1.3024458
10:55:05:691;-0.2681506;11.18571;-1.3024458
10:55:05:691;-0.2681506;11.18571;-1.3024458
10:55:05:691;-0.2681506;11.18571;-1.3024458
10:55:05:808;1.2641385;8.331821;-1.0534488
10:55:05:808;1.2641385;8.331821;-1.0534488
10:55:05:808;1.2641385;8.331821;-1.0534488
10:55:05:808;1.2641385;8.331821;-1.0534488
10:55:05:808;1.2641385;8.331821;-1.0534488
10:55:05:808;1.2641385;8.331821;-1.0534488
10:55:05:808;1.2641385;8.331821;-1.0534488
10:55:05:808;1.2641385;8.331821;-1.0534488
10:55:05:808;1.2641385;8.331821;-1.0534488
10:55:05:808;1.2641385;8.331821;-1.0534488
10:55:05:808;1.2641385;8.331821;-1.0534488
10:55:05:808;1.2641385;8.331821;-1.0534488
10:55:05:808;1.2641385;8.331821;-1.0534488
10:55:05:808;1.2641385;8.331821;-1.0534488
10:55:05:808;1.2641385;8.331821;-1.0534488
10:55:05:928;-0.7469909;10.860099;-0.6703765
10:55:05:928;-0.7469909;10.860099;-0.6703765
10:55:05:928;-0.7469909;10.860099;-0.6703765
10:55:05:928;-0.7469909;10.860099;-0.6703765
10:55:05:928;-0.7469909;10.860099;-0.6703765
10:55:05:928;-0.7469909;10.860099;-0.6703765
10:55:05:928;-0.7469909;10.860099;-0.6703765
10:55:05:928;-0.7469909;10.860099;-0.6703765
10:55:05:928;-0.7469909;10.860099;-0.6703765
10:55:05:928;-0.7469909;10.860099;-0.6703765
10:55:05:928;-0.7469909;10.860099;-0.6703765
10:55:05:928;-0.7469909;10.860099;-0.6703765
10:55:05:928;-0.7469909;10.860099;-0.6703765
10:55:06:029;0.15322891;10.936713;-1.1109096
10:55:06:029;0.15322891;10.936713;-1.1109096
10:55:06:029;0.15322891;10.936713;-1.1109096
10:55:06:029;0.15322891;10.936713;-1.1109096
10:55:06:029;0.15322891;10.936713;-1.1109096
10:55:06:029;0.15322891;10.936713;-1.1109096
10:55:06:029;0.15322891;10.936713;-1.1109096
10:55:06:029;0.15322891;10.936713;-1.1109096
10:55:06:029;0.15322891;10.936713;-1.1109096
10:55:06:029;0.15322891;10.936713;-1.1109096
10:55:06:029;0.15322891;10.936713;-1.1109096
10:55:06:029;0.15322891;10.936713;-1.1109096
10:55:06:029;0.15322891;10.936713;-1.1109096
10:55:06:029;0.15322891;10.936713;-1.1109096
10:55:06:029;0.15322891;10.936713;-1.1109096
10:55:06:147;-1.6280571;12.660539;-1.3599066
10:55:06:147;-1.6280571;12.660539;-1.3599066
10:55:06:147;-1.6280571;12.660539;-1.3599066
10:55:06:147;-1.6280571;12.660539;-1.3599066
10:55:06:147;-1.6280571;12.660539;-1.3599066
10:55:06:147;-1.6280571;12.660539;-1.3599066
10:55:06:147;-1.6280571;12.660539;-1.3599066
10:55:06:147;-1.6280571;12.660539;-1.3599066
10:55:06:147;-1.6280571;12.660539;-1.3599066
10:55:06:147;-1.6280571;12.660539;-1.3599066
10:55:06:147;-1.6280571;12.660539;-1.3599066
10:55:06:147;-1.6280571;12.660539;-1.3599066
10:55:06:147;-1.6280571;12.660539;-1.3599066
10:55:06:147;-1.6280571;12.660539;-1.3599066
10:55:06:147;-1.6280571;12.660539;-1.3599066
10:55:06:264;-0.93852705;10.821792;-0.34476504
10:55:06:264;-0.93852705;10.821792;-0.34476504
10:55:06:264;-0.93852705;10.821792;-0.34476504
10:55:06:264;-0.93852705;10.821792;-0.34476504
10:55:06:264;-0.93852705;10.821792;-0.34476504
10:55:06:264;-0.93852705;10.821792;-0.34476504
10:55:06:264;-0.93852705;10.821792;-0.34476504
10:55:06:264;-0.93852705;10.821792;-0.34476504
10:55:06:264;-0.93852705;10.821792;-0.34476504
10:55:06:264;-0.93852705;10.821792;-0.34476504
10:55:06:264;-0.93852705;10.821792;-0.34476504
10:55:06:264;-0.93852705;10.821792;-0.34476504
10:55:06:264;-0.93852705;10.821792;-0.34476504
10:55:06:264;-0.93852705;10.821792;-0.34476504
10:55:06:371;-0.93852705;11.070788;-0.51714754
10:55:06:371;-0.93852705;11.070788;-0.51714754
10:55:06:371;-0.93852705;11.070788;-0.51714754
10:55:06:371;-0.93852705;11.070788;-0.51714754
10:55:06:371;-0.93852705;11.070788;-0.51714754
10:55:06:371;-0.93852705;11.070788;-0.51714754
10:55:06:371;-0.93852705;11.070788;-0.51714754
10:55:06:371;-0.93852705;11.070788;-0.51714754
10:55:06:371;-0.93852705;11.070788;-0.51714754
10:55:06:371;-0.93852705;11.070788;-0.51714754
10:55:06:371;-0.93852705;11.070788;-0.51714754
10:55:06:371;-0.93852705;11.070788;-0.51714754
10:55:06:371;-0.93852705;11.070788;-0.51714754
10:55:06:371;-0.93852705;11.070788;-0.51714754
10:55:06:477;-0.8810662;10.5919485;-0.7278373
10:55:06:477;-0.8810662;10.5919485;-0.7278373
10:55:06:477;-0.8810662;10.5919485;-0.7278373
10:55:06:477;-0.8810662;10.5919485;-0.7278373
10:55:06:477;-0.8810662;10.5919485;-0.7278373
10:55:06:477;-0.8810662;10.5919485;-0.7278373
10:55:06:477;-0.8810662;10.5919485;-0.7278373
10:55:06:477;-0.8810662;10.5919485;-0.7278373
10:55:06:477;-0.8810662;10.5919485;-0.7278373
10:55:06:477;-0.8810662;10.5919485;-0.7278373
10:55:06:477;-0.8810662;10.5919485;-0.7278373
10:55:06:477;-0.8810662;10.5919485;-0.7278373
10:55:06:477;-0.8810662;10.5919485;-0.7278373
10:55:06:477;-0.8810662;10.5919485;-0.7278373
10:55:06:477;-0.8810662;10.5919485;-0.7278373
10:55:06:596;-0.34476504;9.634268;0.36391866
10:55:06:596;-0.34476504;9.634268;0.36391866
10:55:06:596;-0.34476504;9.634268;0.36391866
10:55:06:596;-0.34476504;9.634268;0.36391866
10:55:06:596;-0.34476504;9.634268;0.36391866
10:55:06:596;-0.34476504;9.634268;0.36391866
10:55:06:596;-0.34476504;9.634268;0.36391866
10:55:06:596;-0.34476504;9.634268;0.36391866
10:55:06:596;-0.34476504;9.634268;0.36391866
10:55:06:596;-0.34476504;9.634268;0.36391866
10:55:06:596;-0.34476504;9.634268;0.36391866
10:55:06:596;-0.34476504;9.634268;0.36391866
10:55:06:596;-0.34476504;9.634268;0.36391866
10:55:06:699;-0.4405331;10.362105;-0.22984336
10:55:06:699;-0.4405331;10.362105;-0.22984336
10:55:06:699;-0.4405331;10.362105;-0.22984336
10:55:06:699;-0.4405331;10.362105;-0.22984336
10:55:06:699;-0.4405331;10.362105;-0.22984336
10:55:06:699;-0.4405331;10.362105;-0.22984336
10:55:06:699;-0.4405331;10.362105;-0.22984336
10:55:06:699;-0.4405331;10.362105;-0.22984336
10:55:06:699;-0.4405331;10.362105;-0.22984336
10:55:06:699;-0.4405331;10.362105;-0.22984336
10:55:06:699;-0.4405331;10.362105;-0.22984336
10:55:06:699;-0.4405331;10.362105;-0.22984336
10:55:06:699;-0.4405331;10.362105;-0.22984336
10:55:06:699;-0.4405331;10.362105;-0.22984336
10:55:06:699;-0.4405331;10.362105;-0.22984336
10:55:06:814;-0.21068975;10.362105;-0.38307226
10:55:06:814;-0.21068975;10.362105;-0.38307226
10:55:06:814;-0.21068975;10.362105;-0.38307226
10:55:06:814;-0.21068975;10.362105;-0.38307226
10:55:06:814;-0.21068975;10.362105;-0.38307226
10:55:06:814;-0.21068975;10.362105;-0.38307226
10:55:06:814;-0.21068975;10.362105;-0.38307226
10:55:06:814;-0.21068975;10.362105;-0.38307226
10:55:06:814;-0.21068975;10.362105;-0.38307226
10:55:06:814;-0.21068975;10.362105;-0.38307226
10:55:06:814;-0.21068975;10.362105;-0.38307226
10:55:06:814;-0.21068975;10.362105;-0.38307226
10:55:06:814;-0.21068975;10.362105;-0.38307226
10:55:06:814;-0.21068975;10.362105;-0.38307226
10:55:06:814;-0.21068975;10.362105;-0.38307226
10:55:06:931;0.36391866;10.266336;-0.34476504
10:55:06:931;0.36391866;10.266336;-0.34476504
10:55:06:931;0.36391866;10.266336;-0.34476504
10:55:06:931;0.36391866;10.266336;-0.34476504
10:55:06:931;0.36391866;10.266336;-0.34476504
10:55:06:931;0.36391866;10.266336;-0.34476504
10:55:06:931;0.36391866;10.266336;-0.34476504
10:55:06:931;0.36391866;10.266336;-0.34476504
10:55:06:931;0.36391866;10.266336;-0.34476504
10:55:06:931;0.36391866;10.266336;-0.34476504
10:55:06:931;0.36391866;10.266336;-0.34476504
10:55:06:931;0.36391866;10.266336;-0.34476504
10:55:06:931;0.36391866;10.266336;-0.34476504
10:55:07:033;-0.095768064;9.864111;-0.2873042
10:55:07:033;-0.095768064;9.864111;-0.2873042
10:55:07:033;-0.095768064;9.864111;-0.2873042
10:55:07:033;-0.095768064;9.864111;-0.2873042
10:55:07:033;-0.095768064;9.864111;-0.2873042
10:55:07:033;-0.095768064;9.864111;-0.2873042
10:55:07:033;-0.095768064;9.864111;-0.2873042
10:55:07:033;-0.095768064;9.864111;-0.2873042
10:55:07:033;-0.095768064;9.864111;-0.2873042
10:55:07:033;-0.095768064;9.864111;-0.2873042
10:55:07:033;-0.095768064;9.864111;-0.2873042
10:55:07:033;-0.095768064;9.864111;-0.2873042
10:55:07:033;-0.095768064;9.864111;-0.2873042
10:55:07:137;-0.38307226;9.500193;0.36391866
10:55:07:137;-0.38307226;9.500193;0.36391866
10:55:07:137;-0.38307226;9.500193;0.36391866
10:55:07:137;-0.38307226;9.500193;0.36391866
10:55:07:137;-0.38307226;9.500193;0.36391866
10:55:07:137;-0.38307226;9.500193;0.36391866
10:55:07:137;-0.38307226;9.500193;0.36391866
10:55:07:137;-0.38307226;9.500193;0.36391866
10:55:07:137;-0.38307226;9.500193;0.36391866
10:55:07:137;-0.38307226;9.500193;0.36391866
10:55:07:137;-0.38307226;9.500193;0.36391866
10:55:07:137;-0.38307226;9.500193;0.36391866
10:55:07:137;-0.38307226;9.500193;0.36391866
10:55:07:137;-0.38307226;9.500193;0.36391866
10:55:07:137;-0.38307226;9.500193;0.36391866
10:55:07:255;0.22984336;10.01734;-0.32561144
10:55:07:255;0.22984336;10.01734;-0.32561144
10:55:07:255;0.22984336;10.01734;-0.32561144
10:55:07:255;0.22984336;10.01734;-0.32561144
10:55:07:255;0.22984336;10.01734;-0.32561144
10:55:07:255;0.22984336;10.01734;-0.32561144
10:55:07:255;0.22984336;10.01734;-0.32561144
10:55:07:255;0.22984336;10.01734;-0.32561144
10:55:07:255;0.22984336;10.01734;-0.32561144
10:55:07:255;0.22984336;10.01734;-0.32561144
10:55:07:255;0.22984336;10.01734;-0.32561144
10:55:07:255;0.22984336;10.01734;-0.32561144
10:55:07:255;0.22984336;10.01734;-0.32561144
10:55:07:255;0.22984336;10.01734;-0.32561144
10:55:07:255;0.22984336;10.01734;-0.32561144
10:55:07:374;-0.24899697;9.615114;0.36391866
10:55:07:374;-0.24899697;9.615114;0.36391866
10:55:07:374;-0.24899697;9.615114;0.36391866
10:55:07:374;-0.24899697;9.615114;0.36391866
10:55:07:374;-0.24899697;9.615114;0.36391866
10:55:07:374;-0.24899697;9.615114;0.36391866
10:55:07:374;-0.24899697;9.615114;0.36391866
10:55:07:374;-0.24899697;9.615114;0.36391866
10:55:07:374;-0.24899697;9.615114;0.36391866
10:55:07:374;-0.24899697;9.615114;0.36391866
10:55:07:374;-0.24899697;9.615114;0.36391866
10:55:07:374;-0.24899697;9.615114;0.36391866
10:55:07:374;-0.24899697;9.615114;0.36391866
10:55:07:374;-0.24899697;9.615114;0.36391866
10:55:07:479;-0.076614454;9.308656;0.51714754
10:55:07:479;-0.076614454;9.308656;0.51714754
10:55:07:479;-0.076614454;9.308656;0.51714754
10:55:07:479;-0.076614454;9.308656;0.51714754
10:55:07:479;-0.076614454;9.308656;0.51714754
10:55:07:479;-0.076614454;9.308656;0.51714754
10:55:07:479;-0.076614454;9.308656;0.51714754
10:55:07:479;-0.076614454;9.308656;0.51714754
10:55:07:479;-0.076614454;9.308656;0.51714754
10:55:07:479;-0.076614454;9.308656;0.51714754
10:55:07:479;-0.076614454;9.308656;0.51714754
10:55:07:479;-0.076614454;9.308656;0.51714754
10:55:07:479;-0.076614454;9.308656;0.51714754
10:55:07:479;-0.076614454;9.308656;0.51714754
10:55:07:479;-0.076614454;9.308656;0.51714754
10:55:07:479;-0.076614454;9.308656;0.51714754
10:55:07:603;-0.2873042;10.170568;0.49799395
10:55:07:603;-0.2873042;10.170568;0.49799395
10:55:07:603;-0.2873042;10.170568;0.49799395
10:55:07:603;-0.2873042;10.170568;0.49799395
10:55:07:603;-0.2873042;10.170568;0.49799395
10:55:07:603;-0.2873042;10.170568;0.49799395
10:55:07:603;-0.2873042;10.170568;0.49799395
10:55:07:603;-0.2873042;10.170568;0.49799395
10:55:07:603;-0.2873042;10.170568;0.49799395
10:55:07:603;-0.2873042;10.170568;0.49799395
10:55:07:603;-0.2873042;10.170568;0.49799395
10:55:07:603;-0.2873042;10.170568;0.49799395
10:55:07:603;-0.2873042;10.170568;0.49799395
10:55:07:707;0.61291564;10.515334;0.45968673
10:55:07:707;0.61291564;10.515334;0.45968673
10:55:07:707;0.61291564;10.515334;0.45968673
10:55:07:707;0.61291564;10.515334;0.45968673
10:55:07:707;0.61291564;10.515334;0.45968673
10:55:07:707;0.61291564;10.515334;0.45968673
10:55:07:707;0.61291564;10.515334;0.45968673
10:55:07:707;0.61291564;10.515334;0.45968673
10:55:07:707;0.61291564;10.515334;0.45968673
10:55:07:707;0.61291564;10.515334;0.45968673
10:55:07:707;0.61291564;10.515334;0.45968673
10:55:07:707;0.61291564;10.515334;0.45968673
10:55:07:707;0.61291564;10.515334;0.45968673
10:55:07:707;0.61291564;10.515334;0.45968673
10:55:07:707;0.61291564;10.515334;0.45968673
10:55:07:825;-1.0342951;10.093954;0.1340753
10:55:07:825;-1.0342951;10.093954;0.1340753
10:55:07:825;-1.0342951;10.093954;0.1340753
10:55:07:825;-1.0342951;10.093954;0.1340753
10:55:07:825;-1.0342951;10.093954;0.1340753
10:55:07:825;-1.0342951;10.093954;0.1340753
10:55:07:825;-1.0342951;10.093954;0.1340753
10:55:07:825;-1.0342951;10.093954;0.1340753
10:55:07:825;-1.0342951;10.093954;0.1340753
10:55:07:825;-1.0342951;10.093954;0.1340753
10:55:07:825;-1.0342951;10.093954;0.1340753
10:55:07:825;-1.0342951;10.093954;0.1340753
10:55:07:825;-1.0342951;10.093954;0.1340753
10:55:07:926;-0.1340753;9.385271;0.076614454
10:55:07:926;-0.1340753;9.385271;0.076614454
10:55:07:926;-0.1340753;9.385271;0.076614454
10:55:07:926;-0.1340753;9.385271;0.076614454
10:55:07:926;-0.1340753;9.385271;0.076614454
10:55:07:926;-0.1340753;9.385271;0.076614454
10:55:07:926;-0.1340753;9.385271;0.076614454
10:55:07:926;-0.1340753;9.385271;0.076614454
10:55:07:926;-0.1340753;9.385271;0.076614454
10:55:07:926;-0.1340753;9.385271;0.076614454
10:55:07:926;-0.1340753;9.385271;0.076614454
10:55:07:926;-0.1340753;9.385271;0.076614454
10:55:07:926;-0.1340753;9.385271;0.076614454
10:55:07:926;-0.1340753;9.385271;0.076614454
10:55:07:926;-0.1340753;9.385271;0.076614454
10:55:08:043;0.2873042;8.159439;0.9576807
10:55:08:043;0.2873042;8.159439;0.9576807
10:55:08:043;0.2873042;8.159439;0.9576807
10:55:08:043;0.2873042;8.159439;0.9576807
10:55:08:043;0.2873042;8.159439;0.9576807
10:55:08:043;0.2873042;8.159439;0.9576807
10:55:08:043;0.2873042;8.159439;0.9576807
10:55:08:043;0.2873042;8.159439;0.9576807
10:55:08:043;0.2873042;8.159439;0.9576807
10:55:08:043;0.2873042;8.159439;0.9576807
10:55:08:043;0.2873042;8.159439;0.9576807
10:55:08:043;0.2873042;8.159439;0.9576807
10:55:08:043;0.2873042;8.159439;0.9576807
10:55:08:043;0.2873042;8.159439;0.9576807
10:55:08:043;0.2873042;8.159439;0.9576807
10:55:08:161;-0.7086837;10.840945;0.47884035
10:55:08:161;-0.7086837;10.840945;0.47884035
10:55:08:161;-0.7086837;10.840945;0.47884035
10:55:08:161;-0.7086837;10.840945;0.47884035
10:55:08:161;-0.7086837;10.840945;0.47884035
10:55:08:161;-0.7086837;10.840945;0.47884035
10:55:08:161;-0.7086837;10.840945;0.47884035
10:55:08:161;-0.7086837;10.840945;0.47884035
10:55:08:161;-0.7086837;10.840945;0.47884035
10:55:08:161;-0.7086837;10.840945;0.47884035
10:55:08:161;-0.7086837;10.840945;0.47884035
10:55:08:161;-0.7086837;10.840945;0.47884035
10:55:08:161;-0.7086837;10.840945;0.47884035
10:55:08:161;-0.7086837;10.840945;0.47884035
10:55:08:267;-0.32561144;10.496181;0.40222588
10:55:08:267;-0.32561144;10.496181;0.40222588
10:55:08:267;-0.32561144;10.496181;0.40222588
10:55:08:267;-0.32561144;10.496181;0.40222588
10:55:08:267;-0.32561144;10.496181;0.40222588
10:55:08:267;-0.32561144;10.496181;0.40222588
10:55:08:267;-0.32561144;10.496181;0.40222588
10:55:08:267;-0.32561144;10.496181;0.40222588
10:55:08:267;-0.32561144;10.496181;0.40222588
10:55:08:267;-0.32561144;10.496181;0.40222588
10:55:08:267;-0.32561144;10.496181;0.40222588
10:55:08:267;-0.32561144;10.496181;0.40222588
10:55:08:267;-0.32561144;10.496181;0.40222588
10:55:08:370;-0.30645782;10.97502;0.17238252
10:55:08:370;-0.30645782;10.97502;0.17238252
10:55:08:370;-0.30645782;10.97502;0.17238252
10:55:08:370;-0.30645782;10.97502;0.17238252
10:55:08:370;-0.30645782;10.97502;0.17238252
10:55:08:370;-0.30645782;10.97502;0.17238252
10:55:08:370;-0.30645782;10.97502;0.17238252
10:55:08:370;-0.30645782;10.97502;0.17238252
10:55:08:370;-0.30645782;10.97502;0.17238252
10:55:08:370;-0.30645782;10.97502;0.17238252
10:55:08:370;-0.30645782;10.97502;0.17238252
10:55:08:370;-0.30645782;10.97502;0.17238252
10:55:08:370;-0.30645782;10.97502;0.17238252
10:55:08:370;-0.30645782;10.97502;0.17238252
10:55:08:478;-0.5554548;11.051635;-0.49799395
10:55:08:478;-0.5554548;11.051635;-0.49799395
10:55:08:478;-0.5554548;11.051635;-0.49799395
10:55:08:478;-0.5554548;11.051635;-0.49799395
10:55:08:478;-0.5554548;11.051635;-0.49799395
10:55:08:478;-0.5554548;11.051635;-0.49799395
10:55:08:478;-0.5554548;11.051635;-0.49799395
10:55:08:478;-0.5554548;11.051635;-0.49799395
10:55:08:478;-0.5554548;11.051635;-0.49799395
10:55:08:478;-0.5554548;11.051635;-0.49799395
10:55:08:478;-0.5554548;11.051635;-0.49799395
10:55:08:478;-0.5554548;11.051635;-0.49799395
10:55:08:478;-0.5554548;11.051635;-0.49799395
10:55:08:478;-0.5554548;11.051635;-0.49799395
10:55:08:478;-0.5554548;11.051635;-0.49799395
10:55:08:595;-0.40222588;10.515334;0.49799395
10:55:08:595;-0.40222588;10.515334;0.49799395
10:55:08:595;-0.40222588;10.515334;0.49799395
10:55:08:595;-0.40222588;10.515334;0.49799395
10:55:08:595;-0.40222588;10.515334;0.49799395
10:55:08:595;-0.40222588;10.515334;0.49799395
10:55:08:595;-0.40222588;10.515334;0.49799395
10:55:08:595;-0.40222588;10.515334;0.49799395
10:55:08:595;-0.40222588;10.515334;0.49799395
10:55:08:595;-0.40222588;10.515334;0.49799395
10:55:08:595;-0.40222588;10.515334;0.49799395
10:55:08:595;-0.40222588;10.515334;0.49799395
10:55:08:595;-0.40222588;10.515334;0.49799395
10:55:08:595;-0.40222588;10.515334;0.49799395
10:55:08:595;-0.40222588;10.515334;0.49799395
10:55:08:714;0.17238252;10.113108;1.2641385
10:55:08:714;0.17238252;10.113108;1.2641385
10:55:08:714;0.17238252;10.113108;1.2641385
10:55:08:714;0.17238252;10.113108;1.2641385
10:55:08:714;0.17238252;10.113108;1.2641385
10:55:08:714;0.17238252;10.113108;1.2641385
10:55:08:714;0.17238252;10.113108;1.2641385
10:55:08:714;0.17238252;10.113108;1.2641385
10:55:08:714;0.17238252;10.113108;1.2641385
10:55:08:714;0.17238252;10.113108;1.2641385
10:55:08:714;0.17238252;10.113108;1.2641385
10:55:08:714;0.17238252;10.113108;1.2641385
10:55:08:714;0.17238252;10.113108;1.2641385
10:55:08:816;-0.59376204;10.534488;0.6703765
10:55:08:816;-0.59376204;10.534488;0.6703765
10:55:08:816;-0.59376204;10.534488;0.6703765
10:55:08:816;-0.59376204;10.534488;0.6703765
10:55:08:816;-0.59376204;10.534488;0.6703765
10:55:08:816;-0.59376204;10.534488;0.6703765
10:55:08:816;-0.59376204;10.534488;0.6703765
10:55:08:816;-0.59376204;10.534488;0.6703765
10:55:08:816;-0.59376204;10.534488;0.6703765
10:55:08:816;-0.59376204;10.534488;0.6703765
10:55:08:816;-0.59376204;10.534488;0.6703765
10:55:08:816;-0.59376204;10.534488;0.6703765
10:55:08:816;-0.59376204;10.534488;0.6703765
10:55:08:816;-0.59376204;10.534488;0.6703765
10:55:08:816;-0.59376204;10.534488;0.6703765
10:55:08:934;-0.47884035;9.710882;0.91937345
10:55:08:934;-0.47884035;9.710882;0.91937345
10:55:08:934;-0.47884035;9.710882;0.91937345
10:55:08:934;-0.47884035;9.710882;0.91937345
10:55:08:934;-0.47884035;9.710882;0.91937345
10:55:08:934;-0.47884035;9.710882;0.91937345
10:55:08:934;-0.47884035;9.710882;0.91937345
10:55:08:934;-0.47884035;9.710882;0.91937345
10:55:08:934;-0.47884035;9.710882;0.91937345
10:55:08:934;-0.47884035;9.710882;0.91937345
10:55:08:934;-0.47884035;9.710882;0.91937345
10:55:08:934;-0.47884035;9.710882;0.91937345
10:55:08:934;-0.47884035;9.710882;0.91937345
10:55:08:934;-0.47884035;9.710882;0.91937345
10:55:08:934;-0.47884035;9.710882;0.91937345
10:55:08:934;-0.47884035;9.710882;0.91937345
10:55:08:934;-0.47884035;9.710882;0.91937345
10:55:08:934;-0.47884035;9.710882;0.91937345
10:55:08:934;-0.47884035;9.710882;0.91937345
10:55:09:085;-0.22984336;9.844957;1.340753
10:55:09:085;-0.22984336;9.844957;1.340753
10:55:09:085;-0.22984336;9.844957;1.340753
10:55:09:085;-0.22984336;9.844957;1.340753
10:55:09:085;-0.22984336;9.844957;1.340753
10:55:09:085;-0.22984336;9.844957;1.340753
10:55:09:085;-0.22984336;9.844957;1.340753
10:55:09:085;-0.22984336;9.844957;1.340753
10:55:09:085;-0.22984336;9.844957;1.340753
10:55:09:085;-0.22984336;9.844957;1.340753
10:55:09:085;-0.22984336;9.844957;1.340753
10:55:09:085;-0.22984336;9.844957;1.340753
10:55:09:085;-0.22984336;9.844957;1.340753
10:55:09:186;-0.2873042;9.653421;0.9768343
10:55:09:186;-0.2873042;9.653421;0.9768343
10:55:09:186;-0.2873042;9.653421;0.9768343
10:55:09:186;-0.2873042;9.653421;0.9768343
10:55:09:186;-0.2873042;9.653421;0.9768343
10:55:09:186;-0.2873042;9.653421;0.9768343
10:55:09:186;-0.2873042;9.653421;0.9768343
10:55:09:186;-0.2873042;9.653421;0.9768343
10:55:09:186;-0.2873042;9.653421;0.9768343
10:55:09:186;-0.2873042;9.653421;0.9768343
10:55:09:186;-0.2873042;9.653421;0.9768343
10:55:09:186;-0.2873042;9.653421;0.9768343
10:55:09:186;-0.2873042;9.653421;0.9768343
10:55:09:186;-0.2873042;9.653421;0.9768343
10:55:09:186;-0.2873042;9.653421;0.9768343
10:55:09:186;-0.2873042;9.653421;0.9768343
10:55:09:312;-0.80445176;10.28549;1.0342951
10:55:09:312;-0.80445176;10.28549;1.0342951
10:55:09:312;-0.80445176;10.28549;1.0342951
10:55:09:312;-0.80445176;10.28549;1.0342951
10:55:09:312;-0.80445176;10.28549;1.0342951
10:55:09:312;-0.80445176;10.28549;1.0342951
10:55:09:312;-0.80445176;10.28549;1.0342951
10:55:09:312;-0.80445176;10.28549;1.0342951
10:55:09:312;-0.80445176;10.28549;1.0342951
10:55:09:312;-0.80445176;10.28549;1.0342951
10:55:09:312;-0.80445176;10.28549;1.0342951
10:55:09:312;-0.80445176;10.28549;1.0342951
10:55:09:312;-0.80445176;10.28549;1.0342951
10:55:09:312;-0.80445176;10.28549;1.0342951
10:55:09:312;-0.80445176;10.28549;1.0342951
10:55:09:312;-0.80445176;10.28549;1.0342951
10:55:09:434;-0.21068975;10.553641;1.283292
10:55:09:434;-0.21068975;10.553641;1.283292
10:55:09:434;-0.21068975;10.553641;1.283292
10:55:09:434;-0.21068975;10.553641;1.283292
10:55:09:434;-0.21068975;10.553641;1.283292
10:55:09:434;-0.21068975;10.553641;1.283292
10:55:09:434;-0.21068975;10.553641;1.283292
10:55:09:434;-0.21068975;10.553641;1.283292
10:55:09:434;-0.21068975;10.553641;1.283292
10:55:09:434;-0.21068975;10.553641;1.283292
10:55:09:434;-0.21068975;10.553641;1.283292
10:55:09:434;-0.21068975;10.553641;1.283292
10:55:09:434;-0.21068975;10.553641;1.283292
10:55:09:537;-0.17238252;9.998186;1.3024458
10:55:09:537;-0.17238252;9.998186;1.3024458
10:55:09:537;-0.17238252;9.998186;1.3024458
10:55:09:537;-0.17238252;9.998186;1.3024458
10:55:09:537;-0.17238252;9.998186;1.3024458
10:55:09:537;-0.17238252;9.998186;1.3024458
10:55:09:537;-0.17238252;9.998186;1.3024458
10:55:09:537;-0.17238252;9.998186;1.3024458
10:55:09:537;-0.17238252;9.998186;1.3024458
10:55:09:537;-0.17238252;9.998186;1.3024458
10:55:09:537;-0.17238252;9.998186;1.3024458
10:55:09:537;-0.17238252;9.998186;1.3024458
10:55:09:537;-0.17238252;9.998186;1.3024458
10:55:09:638;-0.076614454;9.883265;1.0726024
10:55:09:638;-0.076614454;9.883265;1.0726024
10:55:09:638;-0.076614454;9.883265;1.0726024
10:55:09:638;-0.076614454;9.883265;1.0726024
10:55:09:638;-0.076614454;9.883265;1.0726024
10:55:09:638;-0.076614454;9.883265;1.0726024
10:55:09:638;-0.076614454;9.883265;1.0726024
10:55:09:638;-0.076614454;9.883265;1.0726024
10:55:09:638;-0.076614454;9.883265;1.0726024
10:55:09:638;-0.076614454;9.883265;1.0726024
10:55:09:638;-0.076614454;9.883265;1.0726024
10:55:09:638;-0.076614454;9.883265;1.0726024
10:55:09:638;-0.076614454;9.883265;1.0726024
10:55:09:638;-0.076614454;9.883265;1.0726024
10:55:09:638;-0.076614454;9.883265;1.0726024
10:55:09:754;-0.019153614;10.113108;0.2681506
10:55:09:754;-0.019153614;10.113108;0.2681506
10:55:09:754;-0.019153614;10.113108;0.2681506
10:55:09:754;-0.019153614;10.113108;0.2681506
10:55:09:754;-0.019153614;10.113108;0.2681506
10:55:09:754;-0.019153614;10.113108;0.2681506
10:55:09:754;-0.019153614;10.113108;0.2681506
10:55:09:754;-0.019153614;10.113108;0.2681506
10:55:09:754;-0.019153614;10.113108;0.2681506
10:55:09:754;-0.019153614;10.113108;0.2681506
10:55:09:754;-0.019153614;10.113108;0.2681506
10:55:09:754;-0.019153614;10.113108;0.2681506
10:55:09:754;-0.019153614;10.113108;0.2681506
10:55:09:754;-0.019153614;10.113108;0.2681506
10:55:09:754;-0.019153614;10.113108;0.2681506
10:55:09:869;-0.2873042;10.534488;0.32561144
10:55:09:869;-0.2873042;10.534488;0.32561144
10:55:09:869;-0.2873042;10.534488;0.32561144
10:55:09:869;-0.2873042;10.534488;0.32561144
10:55:09:869;-0.2873042;10.534488;0.32561144
10:55:09:869;-0.2873042;10.534488;0.32561144
10:55:09:869;-0.2873042;10.534488;0.32561144
10:55:09:869;-0.2873042;10.534488;0.32561144
10:55:09:869;-0.2873042;10.534488;0.32561144
10:55:09:869;-0.2873042;10.534488;0.32561144
10:55:09:869;-0.2873042;10.534488;0.32561144
10:55:09:869;-0.2873042;10.534488;0.32561144
10:55:09:869;-0.2873042;10.534488;0.32561144
10:55:09:869;-0.2873042;10.534488;0.32561144
10:55:09:980;-0.63206923;10.860099;0.038307227
10:55:09:980;-0.63206923;10.860099;0.038307227
10:55:09:980;-0.63206923;10.860099;0.038307227
10:55:09:980;-0.63206923;10.860099;0.038307227
10:55:09:980;-0.63206923;10.860099;0.038307227
10:55:09:980;-0.63206923;10.860099;0.038307227
10:55:09:980;-0.63206923;10.860099;0.038307227
10:55:09:980;-0.63206923;10.860099;0.038307227
10:55:09:980;-0.63206923;10.860099;0.038307227
10:55:09:980;-0.63206923;10.860099;0.038307227
10:55:09:980;-0.63206923;10.860099;0.038307227
10:55:09:980;-0.63206923;10.860099;0.038307227
10:55:09:980;-0.63206923;10.860099;0.038307227
10:55:09:980;-0.63206923;10.860099;0.038307227
10:55:09:980;-0.63206923;10.860099;0.038307227
10:55:09:980;-0.63206923;10.860099;0.038307227
10:55:09:980;-0.63206923;10.860099;0.038307227
10:55:09:980;-0.63206923;10.860099;0.038307227
10:55:10:122;-0.40222588;10.419566;0.2681506
10:55:10:122;-0.40222588;10.419566;0.2681506
10:55:10:122;-0.40222588;10.419566;0.2681506
10:55:10:122;-0.40222588;10.419566;0.2681506
10:55:10:122;-0.40222588;10.419566;0.2681506
10:55:10:122;-0.40222588;10.419566;0.2681506
10:55:10:122;-0.40222588;10.419566;0.2681506
10:55:10:122;-0.40222588;10.419566;0.2681506
10:55:10:122;-0.40222588;10.419566;0.2681506
10:55:10:122;-0.40222588;10.419566;0.2681506
10:55:10:122;-0.40222588;10.419566;0.2681506
10:55:10:122;-0.40222588;10.419566;0.2681506
10:55:10:122;-0.40222588;10.419566;0.2681506
10:55:10:122;-0.40222588;10.419566;0.2681506
10:55:10:122;-0.40222588;10.419566;0.2681506
10:55:10:239;0.5363012;9.32781;0.47884035
10:55:10:239;0.5363012;9.32781;0.47884035
10:55:10:239;0.5363012;9.32781;0.47884035
10:55:10:239;0.5363012;9.32781;0.47884035
10:55:10:239;0.5363012;9.32781;0.47884035
10:55:10:239;0.5363012;9.32781;0.47884035
10:55:10:239;0.5363012;9.32781;0.47884035
10:55:10:239;0.5363012;9.32781;0.47884035
10:55:10:239;0.5363012;9.32781;0.47884035
10:55:10:239;0.5363012;9.32781;0.47884035
10:55:10:239;0.5363012;9.32781;0.47884035
10:55:10:239;0.5363012;9.32781;0.47884035
10:55:10:239;0.5363012;9.32781;0.47884035
10:55:10:239;0.5363012;9.32781;0.47884035
10:55:10:344;-0.59376204;9.768343;0.6895301
10:55:10:344;-0.59376204;9.768343;0.6895301
10:55:10:344;-0.59376204;9.768343;0.6895301
10:55:10:344;-0.59376204;9.768343;0.6895301
10:55:10:344;-0.59376204;9.768343;0.6895301
10:55:10:344;-0.59376204;9.768343;0.6895301
10:55:10:344;-0.59376204;9.768343;0.6895301
10:55:10:344;-0.59376204;9.768343;0.6895301
10:55:10:344;-0.59376204;9.768343;0.6895301
10:55:10:344;-0.59376204;9.768343;0.6895301
10:55:10:344;-0.59376204;9.768343;0.6895301
10:55:10:344;-0.59376204;9.768343;0.6895301
10:55:10:344;-0.59376204;9.768343;0.6895301
10:55:10:344;-0.59376204;9.768343;0.6895301
10:55:10:344;-0.59376204;9.768343;0.6895301
10:55:10:344;-0.59376204;9.768343;0.6895301
10:55:10:471;0.30645782;9.557653;-0.15322891
10:55:10:471;0.30645782;9.557653;-0.15322891
10:55:10:471;0.30645782;9.557653;-0.15322891
10:55:10:471;0.30645782;9.557653;-0.15322891
10:55:10:471;0.30645782;9.557653;-0.15322891
10:55:10:471;0.30645782;9.557653;-0.15322891
10:55:10:471;0.30645782;9.557653;-0.15322891
10:55:10:471;0.30645782;9.557653;-0.15322891
10:55:10:471;0.30645782;9.557653;-0.15322891
10:55:10:471;0.30645782;9.557653;-0.15322891
10:55:10:471;0.30645782;9.557653;-0.15322891
10:55:10:471;0.30645782;9.557653;-0.15322891
10:55:10:471;0.30645782;9.557653;-0.15322891
10:55:10:471;0.30645782;9.557653;-0.15322891
10:55:10:584;-0.59376204;10.6877165;0.11492168
10:55:10:584;-0.59376204;10.6877165;0.11492168
10:55:10:584;-0.59376204;10.6877165;0.11492168
10:55:10:584;-0.59376204;10.6877165;0.11492168
10:55:10:584;-0.59376204;10.6877165;0.11492168
10:55:10:584;-0.59376204;10.6877165;0.11492168
10:55:10:584;-0.59376204;10.6877165;0.11492168
10:55:10:584;-0.59376204;10.6877165;0.11492168
10:55:10:584;-0.59376204;10.6877165;0.11492168
10:55:10:584;-0.59376204;10.6877165;0.11492168
10:55:10:584;-0.59376204;10.6877165;0.11492168
10:55:10:584;-0.59376204;10.6877165;0.11492168
10:55:10:584;-0.59376204;10.6877165;0.11492168
10:55:10:584;-0.59376204;10.6877165;0.11492168
10:55:10:584;-0.59376204;10.6877165;0.11492168
10:55:10:584;-0.59376204;10.6877165;0.11492168
10:55:10:704;-0.5554548;10.093954;-0.30645782
10:55:10:704;-0.5554548;10.093954;-0.30645782
10:55:10:704;-0.5554548;10.093954;-0.30645782
10:55:10:704;-0.5554548;10.093954;-0.30645782
10:55:10:704;-0.5554548;10.093954;-0.30645782
10:55:10:704;-0.5554548;10.093954;-0.30645782
10:55:10:704;-0.5554548;10.093954;-0.30645782
10:55:10:704;-0.5554548;10.093954;-0.30645782
10:55:10:704;-0.5554548;10.093954;-0.30645782
10:55:10:704;-0.5554548;10.093954;-0.30645782
10:55:10:704;-0.5554548;10.093954;-0.30645782
10:55:10:704;-0.5554548;10.093954;-0.30645782
10:55:10:704;-0.5554548;10.093954;-0.30645782
10:55:10:704;-0.5554548;10.093954;-0.30645782
10:55:10:819;-1.5514427;11.300632;-0.80445176
10:55:10:819;-1.5514427;11.300632;-0.80445176
10:55:10:819;-1.5514427;11.300632;-0.80445176
10:55:10:819;-1.5514427;11.300632;-0.80445176
10:55:10:819;-1.5514427;11.300632;-0.80445176
10:55:10:819;-1.5514427;11.300632;-0.80445176
10:55:10:819;-1.5514427;11.300632;-0.80445176
10:55:10:819;-1.5514427;11.300632;-0.80445176
10:55:10:819;-1.5514427;11.300632;-0.80445176
10:55:10:819;-1.5514427;11.300632;-0.80445176
10:55:10:819;-1.5514427;11.300632;-0.80445176
10:55:10:819;-1.5514427;11.300632;-0.80445176
10:55:10:819;-1.5514427;11.300632;-0.80445176
10:55:10:819;-1.5514427;11.300632;-0.80445176
10:55:10:819;-1.5514427;11.300632;-0.80445176
10:55:10:936;0.47884035;8.829816;0.1340753
10:55:10:936;0.47884035;8.829816;0.1340753
10:55:10:936;0.47884035;8.829816;0.1340753
10:55:10:936;0.47884035;8.829816;0.1340753
10:55:10:936;0.47884035;8.829816;0.1340753
10:55:10:936;0.47884035;8.829816;0.1340753
10:55:10:936;0.47884035;8.829816;0.1340753
10:55:10:936;0.47884035;8.829816;0.1340753
10:55:10:936;0.47884035;8.829816;0.1340753
10:55:10:936;0.47884035;8.829816;0.1340753
10:55:10:936;0.47884035;8.829816;0.1340753
10:55:10:936;0.47884035;8.829816;0.1340753
10:55:10:936;0.47884035;8.829816;0.1340753
10:55:11:037;-1.532289;13.618219;-2.0494366
10:55:11:037;-1.532289;13.618219;-2.0494366
10:55:11:037;-1.532289;13.618219;-2.0494366
10:55:11:037;-1.532289;13.618219;-2.0494366
10:55:11:037;-1.532289;13.618219;-2.0494366
10:55:11:037;-1.532289;13.618219;-2.0494366
10:55:11:037;-1.532289;13.618219;-2.0494366
10:55:11:037;-1.532289;13.618219;-2.0494366
10:55:11:037;-1.532289;13.618219;-2.0494366
10:55:11:037;-1.532289;13.618219;-2.0494366
10:55:11:037;-1.532289;13.618219;-2.0494366
10:55:11:037;-1.532289;13.618219;-2.0494366
10:55:11:037;-1.532289;13.618219;-2.0494366
10:55:11:037;-1.532289;13.618219;-2.0494366
10:55:11:037;-1.532289;13.618219;-2.0494366
10:55:11:156;-0.17238252;12.430696;-1.340753
10:55:11:156;-0.17238252;12.430696;-1.340753
10:55:11:156;-0.17238252;12.430696;-1.340753
10:55:11:156;-0.17238252;12.430696;-1.340753
10:55:11:156;-0.17238252;12.430696;-1.340753
10:55:11:156;-0.17238252;12.430696;-1.340753
10:55:11:156;-0.17238252;12.430696;-1.340753
10:55:11:156;-0.17238252;12.430696;-1.340753
10:55:11:156;-0.17238252;12.430696;-1.340753
10:55:11:156;-0.17238252;12.430696;-1.340753
10:55:11:156;-0.17238252;12.430696;-1.340753
10:55:11:156;-0.17238252;12.430696;-1.340753
10:55:11:156;-0.17238252;12.430696;-1.340753
10:55:11:156;-0.17238252;12.430696;-1.340753
10:55:11:156;-0.17238252;12.430696;-1.340753
10:55:11:272;-0.21068975;11.702858;-0.842759
10:55:11:272;-0.21068975;11.702858;-0.842759
10:55:11:272;-0.21068975;11.702858;-0.842759
10:55:11:272;-0.21068975;11.702858;-0.842759
10:55:11:272;-0.21068975;11.702858;-0.842759
10:55:11:272;-0.21068975;11.702858;-0.842759
10:55:11:272;-0.21068975;11.702858;-0.842759
10:55:11:272;-0.21068975;11.702858;-0.842759
10:55:11:272;-0.21068975;11.702858;-0.842759
10:55:11:272;-0.21068975;11.702858;-0.842759
10:55:11:272;-0.21068975;11.702858;-0.842759
10:55:11:272;-0.21068975;11.702858;-0.842759
10:55:11:272;-0.21068975;11.702858;-0.842759
10:55:11:272;-0.21068975;11.702858;-0.842759
10:55:11:379;-0.40222588;10.726024;-0.4405331
10:55:11:379;-0.40222588;10.726024;-0.4405331
10:55:11:379;-0.40222588;10.726024;-0.4405331
10:55:11:379;-0.40222588;10.726024;-0.4405331
10:55:11:379;-0.40222588;10.726024;-0.4405331
10:55:11:379;-0.40222588;10.726024;-0.4405331
10:55:11:379;-0.40222588;10.726024;-0.4405331
10:55:11:379;-0.40222588;10.726024;-0.4405331
10:55:11:379;-0.40222588;10.726024;-0.4405331
10:55:11:379;-0.40222588;10.726024;-0.4405331
10:55:11:379;-0.40222588;10.726024;-0.4405331
10:55:11:379;-0.40222588;10.726024;-0.4405331
10:55:11:379;-0.40222588;10.726024;-0.4405331
10:55:11:484;-0.32561144;9.749189;-0.15322891
10:55:11:484;-0.32561144;9.749189;-0.15322891
10:55:11:484;-0.32561144;9.749189;-0.15322891
10:55:11:484;-0.32561144;9.749189;-0.15322891
10:55:11:484;-0.32561144;9.749189;-0.15322891
10:55:11:484;-0.32561144;9.749189;-0.15322891
10:55:11:484;-0.32561144;9.749189;-0.15322891
10:55:11:484;-0.32561144;9.749189;-0.15322891
10:55:11:484;-0.32561144;9.749189;-0.15322891
10:55:11:484;-0.32561144;9.749189;-0.15322891
10:55:11:484;-0.32561144;9.749189;-0.15322891
10:55:11:484;-0.32561144;9.749189;-0.15322891
10:55:11:484;-0.32561144;9.749189;-0.15322891
10:55:11:484;-0.32561144;9.749189;-0.15322891
10:55:11:484;-0.32561144;9.749189;-0.15322891
10:55:11:484;-0.32561144;9.749189;-0.15322891
10:55:11:602;-0.5363012;10.151415;0.17238252
10:55:11:602;-0.5363012;10.151415;0.17238252
10:55:11:602;-0.5363012;10.151415;0.17238252
10:55:11:602;-0.5363012;10.151415;0.17238252
10:55:11:602;-0.5363012;10.151415;0.17238252
10:55:11:602;-0.5363012;10.151415;0.17238252
10:55:11:602;-0.5363012;10.151415;0.17238252
10:55:11:602;-0.5363012;10.151415;0.17238252
10:55:11:602;-0.5363012;10.151415;0.17238252
10:55:11:602;-0.5363012;10.151415;0.17238252
10:55:11:602;-0.5363012;10.151415;0.17238252
10:55:11:602;-0.5363012;10.151415;0.17238252
10:55:11:602;-0.5363012;10.151415;0.17238252
10:55:11:602;-0.5363012;10.151415;0.17238252
10:55:11:602;-0.5363012;10.151415;0.17238252
10:55:11:719;-0.11492168;9.500193;0.47884035
10:55:11:719;-0.11492168;9.500193;0.47884035
10:55:11:719;-0.11492168;9.500193;0.47884035
10:55:11:719;-0.11492168;9.500193;0.47884035
10:55:11:719;-0.11492168;9.500193;0.47884035
10:55:11:719;-0.11492168;9.500193;0.47884035
10:55:11:719;-0.11492168;9.500193;0.47884035
10:55:11:719;-0.11492168;9.500193;0.47884035
10:55:11:719;-0.11492168;9.500193;0.47884035
10:55:11:719;-0.11492168;9.500193;0.47884035
10:55:11:719;-0.11492168;9.500193;0.47884035
10:55:11:719;-0.11492168;9.500193;0.47884035
10:55:11:719;-0.11492168;9.500193;0.47884035
10:55:11:719;-0.11492168;9.500193;0.47884035
10:55:11:719;-0.11492168;9.500193;0.47884035
10:55:11:841;-0.6895301;9.844957;0.59376204
10:55:11:841;-0.6895301;9.844957;0.59376204
10:55:11:841;-0.6895301;9.844957;0.59376204
10:55:11:841;-0.6895301;9.844957;0.59376204
10:55:11:841;-0.6895301;9.844957;0.59376204
10:55:11:841;-0.6895301;9.844957;0.59376204
10:55:11:841;-0.6895301;9.844957;0.59376204
10:55:11:841;-0.6895301;9.844957;0.59376204
10:55:11:841;-0.6895301;9.844957;0.59376204
10:55:11:841;-0.6895301;9.844957;0.59376204
10:55:11:841;-0.6895301;9.844957;0.59376204
10:55:11:841;-0.6895301;9.844957;0.59376204
10:55:11:841;-0.6895301;9.844957;0.59376204
10:55:11:841;-0.6895301;9.844957;0.59376204
10:55:11:841;-0.6895301;9.844957;0.59376204
10:55:11:958;-0.15322891;10.151415;-0.019153614
10:55:11:958;-0.15322891;10.151415;-0.019153614
10:55:11:958;-0.15322891;10.151415;-0.019153614
10:55:11:958;-0.15322891;10.151415;-0.019153614
10:55:11:958;-0.15322891;10.151415;-0.019153614
10:55:11:958;-0.15322891;10.151415;-0.019153614
10:55:11:958;-0.15322891;10.151415;-0.019153614
10:55:11:958;-0.15322891;10.151415;-0.019153614
10:55:11:958;-0.15322891;10.151415;-0.019153614
10:55:11:958;-0.15322891;10.151415;-0.019153614
10:55:11:958;-0.15322891;10.151415;-0.019153614
10:55:11:958;-0.15322891;10.151415;-0.019153614
10:55:11:958;-0.15322891;10.151415;-0.019153614
10:55:12:061;-0.36391866;9.749189;0.17238252
10:55:12:061;-0.36391866;9.749189;0.17238252
10:55:12:061;-0.36391866;9.749189;0.17238252
10:55:12:061;-0.36391866;9.749189;0.17238252
10:55:12:061;-0.36391866;9.749189;0.17238252
10:55:12:061;-0.36391866;9.749189;0.17238252
10:55:12:061;-0.36391866;9.749189;0.17238252
10:55:12:061;-0.36391866;9.749189;0.17238252
10:55:12:061;-0.36391866;9.749189;0.17238252
10:55:12:061;-0.36391866;9.749189;0.17238252
10:55:12:061;-0.36391866;9.749189;0.17238252
10:55:12:061;-0.36391866;9.749189;0.17238252
10:55:12:061;-0.36391866;9.749189;0.17238252
10:55:12:061;-0.36391866;9.749189;0.17238252
10:55:12:061;-0.36391866;9.749189;0.17238252
10:55:12:061;-0.36391866;9.749189;0.17238252
10:55:12:181;-0.5746084;9.883265;0.24899697
10:55:12:181;-0.5746084;9.883265;0.24899697
10:55:12:181;-0.5746084;9.883265;0.24899697
10:55:12:181;-0.5746084;9.883265;0.24899697
10:55:12:181;-0.5746084;9.883265;0.24899697
10:55:12:181;-0.5746084;9.883265;0.24899697
10:55:12:181;-0.5746084;9.883265;0.24899697
10:55:12:181;-0.5746084;9.883265;0.24899697
10:55:12:181;-0.5746084;9.883265;0.24899697
10:55:12:181;-0.5746084;9.883265;0.24899697
10:55:12:181;-0.5746084;9.883265;0.24899697
10:55:12:181;-0.5746084;9.883265;0.24899697
10:55:12:181;-0.5746084;9.883265;0.24899697
10:55:12:181;-0.5746084;9.883265;0.24899697
10:55:12:181;-0.5746084;9.883265;0.24899697
10:55:12:297;-0.36391866;10.419566;0.40222588
10:55:12:297;-0.36391866;10.419566;0.40222588
10:55:12:297;-0.36391866;10.419566;0.40222588
10:55:12:297;-0.36391866;10.419566;0.40222588
10:55:12:297;-0.36391866;10.419566;0.40222588
10:55:12:297;-0.36391866;10.419566;0.40222588
10:55:12:297;-0.36391866;10.419566;0.40222588
10:55:12:297;-0.36391866;10.419566;0.40222588
10:55:12:297;-0.36391866;10.419566;0.40222588
10:55:12:297;-0.36391866;10.419566;0.40222588
10:55:12:297;-0.36391866;10.419566;0.40222588
10:55:12:297;-0.36391866;10.419566;0.40222588
10:55:12:297;-0.36391866;10.419566;0.40222588
10:55:12:297;-0.36391866;10.419566;0.40222588
10:55:12:414;-0.45968673;10.553641;0.49799395
10:55:12:414;-0.45968673;10.553641;0.49799395
10:55:12:414;-0.45968673;10.553641;0.49799395
10:55:12:414;-0.45968673;10.553641;0.49799395
10:55:12:414;-0.45968673;10.553641;0.49799395
10:55:12:414;-0.45968673;10.553641;0.49799395
10:55:12:414;-0.45968673;10.553641;0.49799395
10:55:12:414;-0.45968673;10.553641;0.49799395
10:55:12:414;-0.45968673;10.553641;0.49799395
10:55:12:414;-0.45968673;10.553641;0.49799395
10:55:12:414;-0.45968673;10.553641;0.49799395
10:55:12:414;-0.45968673;10.553641;0.49799395
10:55:12:414;-0.45968673;10.553641;0.49799395
10:55:12:414;-0.45968673;10.553641;0.49799395
10:55:12:519;0.32561144;7.603985;-1.3024458
10:55:12:519;0.32561144;7.603985;-1.3024458
10:55:12:519;0.32561144;7.603985;-1.3024458
10:55:12:519;0.32561144;7.603985;-1.3024458
10:55:12:519;0.32561144;7.603985;-1.3024458
10:55:12:519;0.32561144;7.603985;-1.3024458
10:55:12:519;0.32561144;7.603985;-1.3024458
10:55:12:519;0.32561144;7.603985;-1.3024458
10:55:12:519;0.32561144;7.603985;-1.3024458
10:55:12:519;0.32561144;7.603985;-1.3024458
10:55:12:519;0.32561144;7.603985;-1.3024458
10:55:12:519;0.32561144;7.603985;-1.3024458
10:55:12:519;0.32561144;7.603985;-1.3024458
10:55:12:519;0.32561144;7.603985;-1.3024458
10:55:12:519;0.32561144;7.603985;-1.3024458
10:55:12:636;-0.34476504;8.025364;-0.4213795
10:55:12:636;-0.34476504;8.025364;-0.4213795
10:55:12:636;-0.34476504;8.025364;-0.4213795
10:55:12:636;-0.34476504;8.025364;-0.4213795
10:55:12:636;-0.34476504;8.025364;-0.4213795
10:55:12:636;-0.34476504;8.025364;-0.4213795
10:55:12:636;-0.34476504;8.025364;-0.4213795
10:55:12:636;-0.34476504;8.025364;-0.4213795
10:55:12:636;-0.34476504;8.025364;-0.4213795
10:55:12:636;-0.34476504;8.025364;-0.4213795
10:55:12:636;-0.34476504;8.025364;-0.4213795
10:55:12:636;-0.34476504;8.025364;-0.4213795
10:55:12:636;-0.34476504;8.025364;-0.4213795
10:55:12:737;0.32561144;8.293514;0.45968673
10:55:12:737;0.32561144;8.293514;0.45968673
10:55:12:737;0.32561144;8.293514;0.45968673
10:55:12:737;0.32561144;8.293514;0.45968673
10:55:12:737;0.32561144;8.293514;0.45968673
10:55:12:737;0.32561144;8.293514;0.45968673
10:55:12:737;0.32561144;8.293514;0.45968673
10:55:12:737;0.32561144;8.293514;0.45968673
10:55:12:737;0.32561144;8.293514;0.45968673
10:55:12:737;0.32561144;8.293514;0.45968673
10:55:12:737;0.32561144;8.293514;0.45968673
10:55:12:737;0.32561144;8.293514;0.45968673
10:55:12:737;0.32561144;8.293514;0.45968673
10:55:12:737;0.32561144;8.293514;0.45968673
10:55:12:737;0.32561144;8.293514;0.45968673
10:55:12:855;-0.90021986;8.599973;2.2218192
10:55:12:855;-0.90021986;8.599973;2.2218192
10:55:12:855;-0.90021986;8.599973;2.2218192
10:55:12:855;-0.90021986;8.599973;2.2218192
10:55:12:855;-0.90021986;8.599973;2.2218192
10:55:12:855;-0.90021986;8.599973;2.2218192
10:55:12:855;-0.90021986;8.599973;2.2218192
10:55:12:855;-0.90021986;8.599973;2.2218192
10:55:12:855;-0.90021986;8.599973;2.2218192
10:55:12:855;-0.90021986;8.599973;2.2218192
10:55:12:855;-0.90021986;8.599973;2.2218192
10:55:12:855;-0.90021986;8.599973;2.2218192
10:55:12:855;-0.90021986;8.599973;2.2218192
10:55:12:855;-0.90021986;8.599973;2.2218192
10:55:12:855;-0.90021986;8.599973;2.2218192
10:55:12:975;-0.7086837;12.469003;-0.90021986
10:55:12:975;-0.7086837;12.469003;-0.90021986
10:55:12:975;-0.7086837;12.469003;-0.90021986
10:55:12:975;-0.7086837;12.469003;-0.90021986
10:55:12:975;-0.7086837;12.469003;-0.90021986
10:55:12:975;-0.7086837;12.469003;-0.90021986
10:55:12:975;-0.7086837;12.469003;-0.90021986
10:55:12:975;-0.7086837;12.469003;-0.90021986
10:55:12:975;-0.7086837;12.469003;-0.90021986
10:55:12:975;-0.7086837;12.469003;-0.90021986
10:55:12:975;-0.7086837;12.469003;-0.90021986
10:55:12:975;-0.7086837;12.469003;-0.90021986
10:55:12:975;-0.7086837;12.469003;-0.90021986
10:55:12:975;-0.7086837;12.469003;-0.90021986
10:55:12:975;-0.7086837;12.469003;-0.90021986
10:55:12:975;-0.7086837;12.469003;-0.90021986
10:55:13:094;-0.05746084;9.653421;0.2873042
10:55:13:094;-0.05746084;9.653421;0.2873042
10:55:13:094;-0.05746084;9.653421;0.2873042
10:55:13:094;-0.05746084;9.653421;0.2873042
10:55:13:094;-0.05746084;9.653421;0.2873042
10:55:13:094;-0.05746084;9.653421;0.2873042
10:55:13:094;-0.05746084;9.653421;0.2873042
10:55:13:094;-0.05746084;9.653421;0.2873042
10:55:13:094;-0.05746084;9.653421;0.2873042
10:55:13:094;-0.05746084;9.653421;0.2873042
10:55:13:094;-0.05746084;9.653421;0.2873042
10:55:13:094;-0.05746084;9.653421;0.2873042
10:55:13:094;-0.05746084;9.653421;0.2873042
10:55:13:198;-0.4213795;9.864111;0.05746084
10:55:13:198;-0.4213795;9.864111;0.05746084
10:55:13:198;-0.4213795;9.864111;0.05746084
10:55:13:198;-0.4213795;9.864111;0.05746084
10:55:13:198;-0.4213795;9.864111;0.05746084
10:55:13:198;-0.4213795;9.864111;0.05746084
10:55:13:198;-0.4213795;9.864111;0.05746084
10:55:13:198;-0.4213795;9.864111;0.05746084
10:55:13:198;-0.4213795;9.864111;0.05746084
10:55:13:198;-0.4213795;9.864111;0.05746084
10:55:13:198;-0.4213795;9.864111;0.05746084
10:55:13:198;-0.4213795;9.864111;0.05746084
10:55:13:198;-0.4213795;9.864111;0.05746084
10:55:13:198;-0.4213795;9.864111;0.05746084
10:55:13:198;-0.4213795;9.864111;0.05746084
10:55:13:314;-0.38307226;9.883265;0.1340753
10:55:13:314;-0.38307226;9.883265;0.1340753
10:55:13:314;-0.38307226;9.883265;0.1340753
10:55:13:314;-0.38307226;9.883265;0.1340753
10:55:13:314;-0.38307226;9.883265;0.1340753
10:55:13:314;-0.38307226;9.883265;0.1340753
10:55:13:314;-0.38307226;9.883265;0.1340753
10:55:13:314;-0.38307226;9.883265;0.1340753
10:55:13:314;-0.38307226;9.883265;0.1340753
10:55:13:314;-0.38307226;9.883265;0.1340753
10:55:13:314;-0.38307226;9.883265;0.1340753
10:55:13:314;-0.38307226;9.883265;0.1340753
10:55:13:314;-0.38307226;9.883265;0.1340753
10:55:13:314;-0.38307226;9.883265;0.1340753
10:55:13:314;-0.38307226;9.883265;0.1340753
10:55:13:435;-0.19153613;9.423578;0.34476504
10:55:13:435;-0.19153613;9.423578;0.34476504
10:55:13:435;-0.19153613;9.423578;0.34476504
10:55:13:435;-0.19153613;9.423578;0.34476504
10:55:13:435;-0.19153613;9.423578;0.34476504
10:55:13:435;-0.19153613;9.423578;0.34476504
10:55:13:435;-0.19153613;9.423578;0.34476504
10:55:13:435;-0.19153613;9.423578;0.34476504
10:55:13:435;-0.19153613;9.423578;0.34476504
10:55:13:435;-0.19153613;9.423578;0.34476504
10:55:13:435;-0.19153613;9.423578;0.34476504
10:55:13:435;-0.19153613;9.423578;0.34476504
10:55:13:435;-0.19153613;9.423578;0.34476504
10:55:13:435;-0.19153613;9.423578;0.34476504
10:55:13:542;-0.51714754;9.921572;-0.05746084
10:55:13:542;-0.51714754;9.921572;-0.05746084
10:55:13:542;-0.51714754;9.921572;-0.05746084
10:55:13:542;-0.51714754;9.921572;-0.05746084
10:55:13:542;-0.51714754;9.921572;-0.05746084
10:55:13:542;-0.51714754;9.921572;-0.05746084
10:55:13:542;-0.51714754;9.921572;-0.05746084
10:55:13:542;-0.51714754;9.921572;-0.05746084
10:55:13:542;-0.51714754;9.921572;-0.05746084
10:55:13:542;-0.51714754;9.921572;-0.05746084
10:55:13:542;-0.51714754;9.921572;-0.05746084
10:55:13:542;-0.51714754;9.921572;-0.05746084
10:55:13:542;-0.51714754;9.921572;-0.05746084
10:55:13:644;0.076614454;9.825804;0.15322891
10:55:13:644;0.076614454;9.825804;0.15322891
10:55:13:644;0.076614454;9.825804;0.15322891
10:55:13:644;0.076614454;9.825804;0.15322891
10:55:13:644;0.076614454;9.825804;0.15322891
10:55:13:644;0.076614454;9.825804;0.15322891
10:55:13:644;0.076614454;9.825804;0.15322891
10:55:13:644;0.076614454;9.825804;0.15322891
10:55:13:644;0.076614454;9.825804;0.15322891
10:55:13:644;0.076614454;9.825804;0.15322891
10:55:13:644;0.076614454;9.825804;0.15322891
10:55:13:644;0.076614454;9.825804;0.15322891
10:55:13:644;0.076614454;9.825804;0.15322891
10:55:13:644;0.076614454;9.825804;0.15322891
10:55:13:644;0.076614454;9.825804;0.15322891
10:55:13:762;-0.21068975;10.113108;0.4405331
10:55:13:762;-0.21068975;10.113108;0.4405331
10:55:13:762;-0.21068975;10.113108;0.4405331
10:55:13:762;-0.21068975;10.113108;0.4405331
10:55:13:762;-0.21068975;10.113108;0.4405331
10:55:13:762;-0.21068975;10.113108;0.4405331
10:55:13:762;-0.21068975;10.113108;0.4405331
10:55:13:762;-0.21068975;10.113108;0.4405331
10:55:13:762;-0.21068975;10.113108;0.4405331
10:55:13:762;-0.21068975;10.113108;0.4405331
10:55:13:762;-0.21068975;10.113108;0.4405331
10:55:13:762;-0.21068975;10.113108;0.4405331
10:55:13:762;-0.21068975;10.113108;0.4405331
10:55:13:864;-0.038307227;9.653421;0.05746084
10:55:13:864;-0.038307227;9.653421;0.05746084
10:55:13:864;-0.038307227;9.653421;0.05746084
10:55:13:864;-0.038307227;9.653421;0.05746084
10:55:13:864;-0.038307227;9.653421;0.05746084
10:55:13:864;-0.038307227;9.653421;0.05746084
10:55:13:864;-0.038307227;9.653421;0.05746084
10:55:13:864;-0.038307227;9.653421;0.05746084
10:55:13:864;-0.038307227;9.653421;0.05746084
10:55:13:864;-0.038307227;9.653421;0.05746084
10:55:13:864;-0.038307227;9.653421;0.05746084
10:55:13:864;-0.038307227;9.653421;0.05746084
10:55:13:864;-0.038307227;9.653421;0.05746084
10:55:13:864;-0.038307227;9.653421;0.05746084
10:55:13:864;-0.038307227;9.653421;0.05746084
10:55:13:983;-0.6895301;9.308656;0.05746084
10:55:13:983;-0.6895301;9.308656;0.05746084
10:55:13:983;-0.6895301;9.308656;0.05746084
10:55:13:983;-0.6895301;9.308656;0.05746084
10:55:13:983;-0.6895301;9.308656;0.05746084
10:55:13:983;-0.6895301;9.308656;0.05746084
10:55:13:983;-0.6895301;9.308656;0.05746084
10:55:13:983;-0.6895301;9.308656;0.05746084
10:55:13:983;-0.6895301;9.308656;0.05746084
10:55:13:983;-0.6895301;9.308656;0.05746084
10:55:13:983;-0.6895301;9.308656;0.05746084
10:55:13:983;-0.6895301;9.308656;0.05746084
10:55:13:983;-0.6895301;9.308656;0.05746084
10:55:13:983;-0.6895301;9.308656;0.05746084
10:55:13:983;-0.6895301;9.308656;0.05746084
10:55:13:983;-0.6895301;9.308656;0.05746084
10:55:14:102;-1.1875241;11.032481;-0.17238252
10:55:14:102;-1.1875241;11.032481;-0.17238252
10:55:14:102;-1.1875241;11.032481;-0.17238252
10:55:14:102;-1.1875241;11.032481;-0.17238252
10:55:14:102;-1.1875241;11.032481;-0.17238252
10:55:14:102;-1.1875241;11.032481;-0.17238252
10:55:14:102;-1.1875241;11.032481;-0.17238252
10:55:14:102;-1.1875241;11.032481;-0.17238252
10:55:14:102;-1.1875241;11.032481;-0.17238252
10:55:14:102;-1.1875241;11.032481;-0.17238252
10:55:14:102;-1.1875241;11.032481;-0.17238252
10:55:14:102;-1.1875241;11.032481;-0.17238252
10:55:14:102;-1.1875241;11.032481;-0.17238252
10:55:14:102;-1.1875241;11.032481;-0.17238252
10:55:14:102;-1.1875241;11.032481;-0.17238252
10:55:14:222;-0.47884035;9.902418;0.36391866
10:55:14:222;-0.47884035;9.902418;0.36391866
10:55:14:222;-0.47884035;9.902418;0.36391866
10:55:14:222;-0.47884035;9.902418;0.36391866
10:55:14:222;-0.47884035;9.902418;0.36391866
10:55:14:222;-0.47884035;9.902418;0.36391866
10:55:14:222;-0.47884035;9.902418;0.36391866
10:55:14:222;-0.47884035;9.902418;0.36391866
10:55:14:222;-0.47884035;9.902418;0.36391866
10:55:14:222;-0.47884035;9.902418;0.36391866
10:55:14:222;-0.47884035;9.902418;0.36391866
10:55:14:222;-0.47884035;9.902418;0.36391866
10:55:14:222;-0.47884035;9.902418;0.36391866
10:55:14:222;-0.47884035;9.902418;0.36391866
10:55:14:222;-0.47884035;9.902418;0.36391866
10:55:14:222;-0.47884035;9.902418;0.36391866
10:55:14:222;-0.47884035;9.902418;0.36391866
10:55:14:222;-0.47884035;9.902418;0.36391866
10:55:14:222;-0.47884035;9.902418;0.36391866
10:55:14:222;-0.47884035;9.902418;0.36391866
10:55:14:382;-1.0534488;9.80665;0.11492168
10:55:14:382;-1.0534488;9.80665;0.11492168
10:55:14:382;-1.0534488;9.80665;0.11492168
10:55:14:382;-1.0534488;9.80665;0.11492168
10:55:14:382;-1.0534488;9.80665;0.11492168
10:55:14:382;-1.0534488;9.80665;0.11492168
10:55:14:382;-1.0534488;9.80665;0.11492168
10:55:14:382;-1.0534488;9.80665;0.11492168
10:55:14:382;-1.0534488;9.80665;0.11492168
10:55:14:382;-1.0534488;9.80665;0.11492168
10:55:14:382;-1.0534488;9.80665;0.11492168
10:55:14:382;-1.0534488;9.80665;0.11492168
10:55:14:382;-1.0534488;9.80665;0.11492168
10:55:14:382;-1.0534488;9.80665;0.11492168
10:55:14:491;-0.4405331;10.247183;0.21068975
10:55:14:491;-0.4405331;10.247183;0.21068975
10:55:14:491;-0.4405331;10.247183;0.21068975
10:55:14:491;-0.4405331;10.247183;0.21068975
10:55:14:491;-0.4405331;10.247183;0.21068975
10:55:14:491;-0.4405331;10.247183;0.21068975
10:55:14:491;-0.4405331;10.247183;0.21068975
10:55:14:491;-0.4405331;10.247183;0.21068975
10:55:14:491;-0.4405331;10.247183;0.21068975
10:55:14:491;-0.4405331;10.247183;0.21068975
10:55:14:491;-0.4405331;10.247183;0.21068975
10:55:14:491;-0.4405331;10.247183;0.21068975
10:55:14:491;-0.4405331;10.247183;0.21068975
10:55:14:491;-0.4405331;10.247183;0.21068975
10:55:14:491;-0.4405331;10.247183;0.21068975
10:55:14:491;-0.4405331;10.247183;0.21068975
10:55:14:610;-0.82360536;11.051635;-0.17238252
10:55:14:610;-0.82360536;11.051635;-0.17238252
10:55:14:610;-0.82360536;11.051635;-0.17238252
10:55:14:610;-0.82360536;11.051635;-0.17238252
10:55:14:610;-0.82360536;11.051635;-0.17238252
10:55:14:610;-0.82360536;11.051635;-0.17238252
10:55:14:610;-0.82360536;11.051635;-0.17238252
10:55:14:610;-0.82360536;11.051635;-0.17238252
10:55:14:610;-0.82360536;11.051635;-0.17238252
10:55:14:610;-0.82360536;11.051635;-0.17238252
10:55:14:610;-0.82360536;11.051635;-0.17238252
10:55:14:610;-0.82360536;11.051635;-0.17238252
10:55:14:610;-0.82360536;11.051635;-0.17238252
10:55:14:711;-0.34476504;10.266336;0.24899697
10:55:14:711;-0.34476504;10.266336;0.24899697
10:55:14:711;-0.34476504;10.266336;0.24899697
10:55:14:711;-0.34476504;10.266336;0.24899697
10:55:14:711;-0.34476504;10.266336;0.24899697
10:55:14:711;-0.34476504;10.266336;0.24899697
10:55:14:711;-0.34476504;10.266336;0.24899697
10:55:14:711;-0.34476504;10.266336;0.24899697
10:55:14:711;-0.34476504;10.266336;0.24899697
10:55:14:711;-0.34476504;10.266336;0.24899697
10:55:14:711;-0.34476504;10.266336;0.24899697
10:55:14:711;-0.34476504;10.266336;0.24899697
10:55:14:711;-0.34476504;10.266336;0.24899697
10:55:14:711;-0.34476504;10.266336;0.24899697
10:55:14:711;-0.34476504;10.266336;0.24899697
10:55:14:829;-1.1492168;11.492168;-0.2873042
10:55:14:829;-1.1492168;11.492168;-0.2873042
10:55:14:829;-1.1492168;11.492168;-0.2873042
10:55:14:829;-1.1492168;11.492168;-0.2873042
10:55:14:829;-1.1492168;11.492168;-0.2873042
10:55:14:829;-1.1492168;11.492168;-0.2873042
10:55:14:829;-1.1492168;11.492168;-0.2873042
10:55:14:829;-1.1492168;11.492168;-0.2873042
10:55:14:829;-1.1492168;11.492168;-0.2873042
10:55:14:829;-1.1492168;11.492168;-0.2873042
10:55:14:829;-1.1492168;11.492168;-0.2873042
10:55:14:829;-1.1492168;11.492168;-0.2873042
10:55:14:829;-1.1492168;11.492168;-0.2873042
10:55:14:829;-1.1492168;11.492168;-0.2873042
10:55:14:829;-1.1492168;11.492168;-0.2873042
10:55:14:948;-0.61291564;10.151415;0.24899697
10:55:14:948;-0.61291564;10.151415;0.24899697
10:55:14:948;-0.61291564;10.151415;0.24899697
10:55:14:948;-0.61291564;10.151415;0.24899697
10:55:14:948;-0.61291564;10.151415;0.24899697
10:55:14:948;-0.61291564;10.151415;0.24899697
10:55:14:948;-0.61291564;10.151415;0.24899697
10:55:14:948;-0.61291564;10.151415;0.24899697
10:55:14:948;-0.61291564;10.151415;0.24899697
10:55:14:948;-0.61291564;10.151415;0.24899697
10:55:14:948;-0.61291564;10.151415;0.24899697
10:55:14:948;-0.61291564;10.151415;0.24899697
10:55:14:948;-0.61291564;10.151415;0.24899697
10:55:15:049;-0.63206923;9.519346;1.2449849
10:55:15:049;-0.63206923;9.519346;1.2449849
10:55:15:049;-0.63206923;9.519346;1.2449849
10:55:15:049;-0.63206923;9.519346;1.2449849
10:55:15:049;-0.63206923;9.519346;1.2449849
10:55:15:049;-0.63206923;9.519346;1.2449849
10:55:15:049;-0.63206923;9.519346;1.2449849
10:55:15:049;-0.63206923;9.519346;1.2449849
10:55:15:049;-0.63206923;9.519346;1.2449849
10:55:15:049;-0.63206923;9.519346;1.2449849
10:55:15:049;-0.63206923;9.519346;1.2449849
10:55:15:049;-0.63206923;9.519346;1.2449849
10:55:15:049;-0.63206923;9.519346;1.2449849
10:55:15:049;-0.63206923;9.519346;1.2449849
10:55:15:164;-0.19153613;9.634268;0.8619126
10:55:15:164;-0.19153613;9.634268;0.8619126
10:55:15:164;-0.19153613;9.634268;0.8619126
10:55:15:164;-0.19153613;9.634268;0.8619126
10:55:15:164;-0.19153613;9.634268;0.8619126
10:55:15:164;-0.19153613;9.634268;0.8619126
10:55:15:164;-0.19153613;9.634268;0.8619126
10:55:15:164;-0.19153613;9.634268;0.8619126
10:55:15:164;-0.19153613;9.634268;0.8619126
10:55:15:164;-0.19153613;9.634268;0.8619126
10:55:15:164;-0.19153613;9.634268;0.8619126
10:55:15:164;-0.19153613;9.634268;0.8619126
10:55:15:164;-0.19153613;9.634268;0.8619126
10:55:15:164;-0.19153613;9.634268;0.8619126
10:55:15:269;0.095768064;9.864111;0.7469909
10:55:15:269;0.095768064;9.864111;0.7469909
10:55:15:269;0.095768064;9.864111;0.7469909
10:55:15:269;0.095768064;9.864111;0.7469909
10:55:15:269;0.095768064;9.864111;0.7469909
10:55:15:269;0.095768064;9.864111;0.7469909
10:55:15:269;0.095768064;9.864111;0.7469909
10:55:15:269;0.095768064;9.864111;0.7469909
10:55:15:269;0.095768064;9.864111;0.7469909
10:55:15:269;0.095768064;9.864111;0.7469909
10:55:15:269;0.095768064;9.864111;0.7469909
10:55:15:269;0.095768064;9.864111;0.7469909
10:55:15:269;0.095768064;9.864111;0.7469909
10:55:15:375;0.05746084;9.80665;0.9576807
10:55:15:375;0.05746084;9.80665;0.9576807
10:55:15:375;0.05746084;9.80665;0.9576807
10:55:15:375;0.05746084;9.80665;0.9576807
10:55:15:375;0.05746084;9.80665;0.9576807
10:55:15:375;0.05746084;9.80665;0.9576807
10:55:15:375;0.05746084;9.80665;0.9576807
10:55:15:375;0.05746084;9.80665;0.9576807
10:55:15:375;0.05746084;9.80665;0.9576807
10:55:15:375;0.05746084;9.80665;0.9576807
10:55:15:375;0.05746084;9.80665;0.9576807
10:55:15:375;0.05746084;9.80665;0.9576807
10:55:15:375;0.05746084;9.80665;0.9576807
10:55:15:375;0.05746084;9.80665;0.9576807
10:55:15:482;-0.36391866;9.80665;0.7086837
10:55:15:482;-0.36391866;9.80665;0.7086837
10:55:15:482;-0.36391866;9.80665;0.7086837
10:55:15:482;-0.36391866;9.80665;0.7086837
10:55:15:482;-0.36391866;9.80665;0.7086837
10:55:15:482;-0.36391866;9.80665;0.7086837
10:55:15:482;-0.36391866;9.80665;0.7086837
10:55:15:482;-0.36391866;9.80665;0.7086837
10:55:15:482;-0.36391866;9.80665;0.7086837
10:55:15:482;-0.36391866;9.80665;0.7086837
10:55:15:482;-0.36391866;9.80665;0.7086837
10:55:15:482;-0.36391866;9.80665;0.7086837
10:55:15:482;-0.36391866;9.80665;0.7086837
10:55:15:482;-0.36391866;9.80665;0.7086837
10:55:15:482;-0.36391866;9.80665;0.7086837
10:55:15:597;-0.4405331;9.825804;1.340753
10:55:15:597;-0.4405331;9.825804;1.340753
10:55:15:597;-0.4405331;9.825804;1.340753
10:55:15:597;-0.4405331;9.825804;1.340753
10:55:15:597;-0.4405331;9.825804;1.340753
10:55:15:597;-0.4405331;9.825804;1.340753
10:55:15:597;-0.4405331;9.825804;1.340753
10:55:15:597;-0.4405331;9.825804;1.340753
10:55:15:597;-0.4405331;9.825804;1.340753
10:55:15:597;-0.4405331;9.825804;1.340753
10:55:15:597;-0.4405331;9.825804;1.340753
10:55:15:597;-0.4405331;9.825804;1.340753
10:55:15:597;-0.4405331;9.825804;1.340753
10:55:15:597;-0.4405331;9.825804;1.340753
10:55:15:597;-0.4405331;9.825804;1.340753
10:55:15:597;-0.4405331;9.825804;1.340753
10:55:15:723;-0.59376204;11.032481;1.3599066
10:55:15:723;-0.59376204;11.032481;1.3599066
10:55:15:723;-0.59376204;11.032481;1.3599066
10:55:15:723;-0.59376204;11.032481;1.3599066
10:55:15:723;-0.59376204;11.032481;1.3599066
10:55:15:723;-0.59376204;11.032481;1.3599066
10:55:15:723;-0.59376204;11.032481;1.3599066
10:55:15:723;-0.59376204;11.032481;1.3599066
10:55:15:723;-0.59376204;11.032481;1.3599066
10:55:15:723;-0.59376204;11.032481;1.3599066
10:55:15:723;-0.59376204;11.032481;1.3599066
10:55:15:723;-0.59376204;11.032481;1.3599066
10:55:15:723;-0.59376204;11.032481;1.3599066
10:55:15:723;-0.59376204;11.032481;1.3599066
10:55:15:723;-0.59376204;11.032481;1.3599066
10:55:15:723;-0.59376204;11.032481;1.3599066
10:55:15:723;-0.59376204;11.032481;1.3599066
10:55:15:723;-0.59376204;11.032481;1.3599066
10:55:15:860;-0.45968673;9.615114;1.5705963
10:55:15:860;-0.45968673;9.615114;1.5705963
10:55:15:860;-0.45968673;9.615114;1.5705963
10:55:15:860;-0.45968673;9.615114;1.5705963
10:55:15:860;-0.45968673;9.615114;1.5705963
10:55:15:860;-0.45968673;9.615114;1.5705963
10:55:15:860;-0.45968673;9.615114;1.5705963
10:55:15:860;-0.45968673;9.615114;1.5705963
10:55:15:860;-0.45968673;9.615114;1.5705963
10:55:15:860;-0.45968673;9.615114;1.5705963
10:55:15:860;-0.45968673;9.615114;1.5705963
10:55:15:860;-0.45968673;9.615114;1.5705963
10:55:15:860;-0.45968673;9.615114;1.5705963
10:55:15:860;-0.45968673;9.615114;1.5705963
10:55:15:974;-0.17238252;9.442732;1.685518
10:55:15:974;-0.17238252;9.442732;1.685518
10:55:15:974;-0.17238252;9.442732;1.685518
10:55:15:974;-0.17238252;9.442732;1.685518
10:55:15:974;-0.17238252;9.442732;1.685518
10:55:15:974;-0.17238252;9.442732;1.685518
10:55:15:974;-0.17238252;9.442732;1.685518
10:55:15:974;-0.17238252;9.442732;1.685518
10:55:15:974;-0.17238252;9.442732;1.685518
10:55:15:974;-0.17238252;9.442732;1.685518
10:55:15:974;-0.17238252;9.442732;1.685518
10:55:15:974;-0.17238252;9.442732;1.685518
10:55:15:974;-0.17238252;9.442732;1.685518
10:55:15:974;-0.17238252;9.442732;1.685518
10:55:15:974;-0.17238252;9.442732;1.685518
10:55:16:089;-0.80445176;11.147403;1.0534488
10:55:16:089;-0.80445176;11.147403;1.0534488
10:55:16:089;-0.80445176;11.147403;1.0534488
10:55:16:089;-0.80445176;11.147403;1.0534488
10:55:16:089;-0.80445176;11.147403;1.0534488
10:55:16:089;-0.80445176;11.147403;1.0534488
10:55:16:089;-0.80445176;11.147403;1.0534488
10:55:16:089;-0.80445176;11.147403;1.0534488
10:55:16:089;-0.80445176;11.147403;1.0534488
10:55:16:089;-0.80445176;11.147403;1.0534488
10:55:16:089;-0.80445176;11.147403;1.0534488
10:55:16:089;-0.80445176;11.147403;1.0534488
10:55:16:089;-0.80445176;11.147403;1.0534488
10:55:16:089;-0.80445176;11.147403;1.0534488
10:55:16:089;-0.80445176;11.147403;1.0534488
10:55:16:208;-0.7469909;10.323798;1.2449849
10:55:16:208;-0.7469909;10.323798;1.2449849
10:55:16:208;-0.7469909;10.323798;1.2449849
10:55:16:208;-0.7469909;10.323798;1.2449849
10:55:16:208;-0.7469909;10.323798;1.2449849
10:55:16:208;-0.7469909;10.323798;1.2449849
10:55:16:208;-0.7469909;10.323798;1.2449849
10:55:16:208;-0.7469909;10.323798;1.2449849
10:55:16:208;-0.7469909;10.323798;1.2449849
10:55:16:208;-0.7469909;10.323798;1.2449849
10:55:16:208;-0.7469909;10.323798;1.2449849
10:55:16:208;-0.7469909;10.323798;1.2449849
10:55:16:208;-0.7469909;10.323798;1.2449849
10:55:16:208;-0.7469909;10.323798;1.2449849
10:55:16:208;-0.7469909;10.323798;1.2449849
10:55:16:324;-0.32561144;9.32781;2.1643584
10:55:16:324;-0.32561144;9.32781;2.1643584
10:55:16:324;-0.32561144;9.32781;2.1643584
10:55:16:324;-0.32561144;9.32781;2.1643584
10:55:16:324;-0.32561144;9.32781;2.1643584
10:55:16:324;-0.32561144;9.32781;2.1643584
10:55:16:324;-0.32561144;9.32781;2.1643584
10:55:16:324;-0.32561144;9.32781;2.1643584
10:55:16:324;-0.32561144;9.32781;2.1643584
10:55:16:324;-0.32561144;9.32781;2.1643584
10:55:16:324;-0.32561144;9.32781;2.1643584
10:55:16:324;-0.32561144;9.32781;2.1643584
10:55:16:324;-0.32561144;9.32781;2.1643584
10:55:16:324;-0.32561144;9.32781;2.1643584
10:55:16:431;-0.47884035;10.0748005;1.4939818
10:55:16:431;-0.47884035;10.0748005;1.4939818
10:55:16:431;-0.47884035;10.0748005;1.4939818
10:55:16:431;-0.47884035;10.0748005;1.4939818
10:55:16:431;-0.47884035;10.0748005;1.4939818
10:55:16:431;-0.47884035;10.0748005;1.4939818
10:55:16:431;-0.47884035;10.0748005;1.4939818
10:55:16:431;-0.47884035;10.0748005;1.4939818
10:55:16:431;-0.47884035;10.0748005;1.4939818
10:55:16:431;-0.47884035;10.0748005;1.4939818
10:55:16:431;-0.47884035;10.0748005;1.4939818
10:55:16:431;-0.47884035;10.0748005;1.4939818
10:55:16:431;-0.47884035;10.0748005;1.4939818
10:55:16:431;-0.47884035;10.0748005;1.4939818
10:55:16:431;-0.47884035;10.0748005;1.4939818
10:55:16:548;-0.49799395;10.055647;1.340753
10:55:16:548;-0.49799395;10.055647;1.340753
10:55:16:548;-0.49799395;10.055647;1.340753
10:55:16:548;-0.49799395;10.055647;1.340753
10:55:16:548;-0.49799395;10.055647;1.340753
10:55:16:548;-0.49799395;10.055647;1.340753
10:55:16:548;-0.49799395;10.055647;1.340753
10:55:16:548;-0.49799395;10.055647;1.340753
10:55:16:548;-0.49799395;10.055647;1.340753
10:55:16:548;-0.49799395;10.055647;1.340753
10:55:16:548;-0.49799395;10.055647;1.340753
10:55:16:548;-0.49799395;10.055647;1.340753
10:55:16:548;-0.49799395;10.055647;1.340753
10:55:16:652;-0.24899697;9.557653;1.8770541
10:55:16:652;-0.24899697;9.557653;1.8770541
10:55:16:652;-0.24899697;9.557653;1.8770541
10:55:16:652;-0.24899697;9.557653;1.8770541
10:55:16:652;-0.24899697;9.557653;1.8770541
10:55:16:652;-0.24899697;9.557653;1.8770541
10:55:16:652;-0.24899697;9.557653;1.8770541
10:55:16:652;-0.24899697;9.557653;1.8770541
10:55:16:652;-0.24899697;9.557653;1.8770541
10:55:16:652;-0.24899697;9.557653;1.8770541
10:55:16:652;-0.24899697;9.557653;1.8770541
10:55:16:652;-0.24899697;9.557653;1.8770541
10:55:16:652;-0.24899697;9.557653;1.8770541
10:55:16:652;-0.24899697;9.557653;1.8770541
10:55:16:764;-0.2681506;9.749189;1.5131354
10:55:16:764;-0.2681506;9.749189;1.5131354
10:55:16:764;-0.2681506;9.749189;1.5131354
10:55:16:764;-0.2681506;9.749189;1.5131354
10:55:16:764;-0.2681506;9.749189;1.5131354
10:55:16:764;-0.2681506;9.749189;1.5131354
10:55:16:764;-0.2681506;9.749189;1.5131354
10:55:16:764;-0.2681506;9.749189;1.5131354
10:55:16:764;-0.2681506;9.749189;1.5131354
10:55:16:764;-0.2681506;9.749189;1.5131354
10:55:16:764;-0.2681506;9.749189;1.5131354
10:55:16:764;-0.2681506;9.749189;1.5131354
10:55:16:764;-0.2681506;9.749189;1.5131354
10:55:16:764;-0.2681506;9.749189;1.5131354
10:55:16:764;-0.2681506;9.749189;1.5131354
10:55:16:876;-0.2873042;10.342952;1.4556746
10:55:16:876;-0.2873042;10.342952;1.4556746
10:55:16:876;-0.2873042;10.342952;1.4556746
10:55:16:876;-0.2873042;10.342952;1.4556746
10:55:16:876;-0.2873042;10.342952;1.4556746
10:55:16:876;-0.2873042;10.342952;1.4556746
10:55:16:876;-0.2873042;10.342952;1.4556746
10:55:16:876;-0.2873042;10.342952;1.4556746
10:55:16:876;-0.2873042;10.342952;1.4556746
10:55:16:876;-0.2873042;10.342952;1.4556746
10:55:16:876;-0.2873042;10.342952;1.4556746
10:55:16:876;-0.2873042;10.342952;1.4556746
10:55:16:876;-0.2873042;10.342952;1.4556746
10:55:16:977;-0.30645782;10.228029;0.82360536
10:55:16:977;-0.30645782;10.228029;0.82360536
10:55:16:977;-0.30645782;10.228029;0.82360536
10:55:16:977;-0.30645782;10.228029;0.82360536
10:55:16:977;-0.30645782;10.228029;0.82360536
10:55:16:977;-0.30645782;10.228029;0.82360536
10:55:16:977;-0.30645782;10.228029;0.82360536
10:55:16:977;-0.30645782;10.228029;0.82360536
10:55:16:977;-0.30645782;10.228029;0.82360536
10:55:16:977;-0.30645782;10.228029;0.82360536
10:55:16:977;-0.30645782;10.228029;0.82360536
10:55:16:977;-0.30645782;10.228029;0.82360536
10:55:16:977;-0.30645782;10.228029;0.82360536
10:55:16:977;-0.30645782;10.228029;0.82360536
10:55:16:977;-0.30645782;10.228029;0.82360536
10:55:17:094;-0.61291564;9.634268;1.4939818
10:55:17:094;-0.61291564;9.634268;1.4939818
10:55:17:094;-0.61291564;9.634268;1.4939818
10:55:17:094;-0.61291564;9.634268;1.4939818
10:55:17:094;-0.61291564;9.634268;1.4939818
10:55:17:094;-0.61291564;9.634268;1.4939818
10:55:17:094;-0.61291564;9.634268;1.4939818
10:55:17:094;-0.61291564;9.634268;1.4939818
10:55:17:094;-0.61291564;9.634268;1.4939818
10:55:17:094;-0.61291564;9.634268;1.4939818
10:55:17:094;-0.61291564;9.634268;1.4939818
10:55:17:094;-0.61291564;9.634268;1.4939818
10:55:17:094;-0.61291564;9.634268;1.4939818
10:55:17:094;-0.61291564;9.634268;1.4939818
10:55:17:207;-0.2873042;9.3661175;1.4556746
10:55:17:207;-0.2873042;9.3661175;1.4556746
10:55:17:207;-0.2873042;9.3661175;1.4556746
10:55:17:207;-0.2873042;9.3661175;1.4556746
10:55:17:207;-0.2873042;9.3661175;1.4556746
10:55:17:207;-0.2873042;9.3661175;1.4556746
10:55:17:207;-0.2873042;9.3661175;1.4556746
10:55:17:207;-0.2873042;9.3661175;1.4556746
10:55:17:207;-0.2873042;9.3661175;1.4556746
10:55:17:207;-0.2873042;9.3661175;1.4556746
10:55:17:207;-0.2873042;9.3661175;1.4556746
10:55:17:207;-0.2873042;9.3661175;1.4556746
10:55:17:207;-0.2873042;9.3661175;1.4556746
10:55:17:311;-0.11492168;10.189722;1.0726024
10:55:17:311;-0.11492168;10.189722;1.0726024
10:55:17:311;-0.11492168;10.189722;1.0726024
10:55:17:311;-0.11492168;10.189722;1.0726024
10:55:17:311;-0.11492168;10.189722;1.0726024
10:55:17:311;-0.11492168;10.189722;1.0726024
10:55:17:311;-0.11492168;10.189722;1.0726024
10:55:17:311;-0.11492168;10.189722;1.0726024
10:55:17:311;-0.11492168;10.189722;1.0726024
10:55:17:311;-0.11492168;10.189722;1.0726024
10:55:17:311;-0.11492168;10.189722;1.0726024
10:55:17:311;-0.11492168;10.189722;1.0726024
10:55:17:311;-0.11492168;10.189722;1.0726024
10:55:17:311;-0.11492168;10.189722;1.0726024
10:55:17:311;-0.11492168;10.189722;1.0726024
10:55:17:311;-0.11492168;10.189722;1.0726024
10:55:17:431;-0.32561144;9.825804;1.3982137
10:55:17:431;-0.32561144;9.825804;1.3982137
10:55:17:431;-0.32561144;9.825804;1.3982137
10:55:17:431;-0.32561144;9.825804;1.3982137
10:55:17:431;-0.32561144;9.825804;1.3982137
10:55:17:431;-0.32561144;9.825804;1.3982137
10:55:17:431;-0.32561144;9.825804;1.3982137
10:55:17:431;-0.32561144;9.825804;1.3982137
10:55:17:431;-0.32561144;9.825804;1.3982137
10:55:17:431;-0.32561144;9.825804;1.3982137
10:55:17:431;-0.32561144;9.825804;1.3982137
10:55:17:431;-0.32561144;9.825804;1.3982137
10:55:17:431;-0.32561144;9.825804;1.3982137
10:55:17:431;-0.32561144;9.825804;1.3982137
10:55:17:543;-0.38307226;9.80665;1.3024458
10:55:17:543;-0.38307226;9.80665;1.3024458
10:55:17:543;-0.38307226;9.80665;1.3024458
10:55:17:543;-0.38307226;9.80665;1.3024458
10:55:17:543;-0.38307226;9.80665;1.3024458
10:55:17:543;-0.38307226;9.80665;1.3024458
10:55:17:543;-0.38307226;9.80665;1.3024458
10:55:17:543;-0.38307226;9.80665;1.3024458
10:55:17:543;-0.38307226;9.80665;1.3024458
10:55:17:543;-0.38307226;9.80665;1.3024458
10:55:17:543;-0.38307226;9.80665;1.3024458
10:55:17:543;-0.38307226;9.80665;1.3024458
10:55:17:543;-0.38307226;9.80665;1.3024458
10:55:17:543;-0.38307226;9.80665;1.3024458
10:55:17:543;-0.38307226;9.80665;1.3024458
10:55:17:662;-0.47884035;10.266336;1.283292
10:55:17:662;-0.47884035;10.266336;1.283292
10:55:17:662;-0.47884035;10.266336;1.283292
10:55:17:662;-0.47884035;10.266336;1.283292
10:55:17:662;-0.47884035;10.266336;1.283292
10:55:17:662;-0.47884035;10.266336;1.283292
10:55:17:662;-0.47884035;10.266336;1.283292
10:55:17:662;-0.47884035;10.266336;1.283292
10:55:17:662;-0.47884035;10.266336;1.283292
10:55:17:662;-0.47884035;10.266336;1.283292
10:55:17:662;-0.47884035;10.266336;1.283292
10:55:17:662;-0.47884035;10.266336;1.283292
10:55:17:662;-0.47884035;10.266336;1.283292
10:55:17:662;-0.47884035;10.266336;1.283292
10:55:17:662;-0.47884035;10.266336;1.283292
10:55:17:780;-0.47884035;10.0748005;0.9959879
10:55:17:780;-0.47884035;10.0748005;0.9959879
10:55:17:780;-0.47884035;10.0748005;0.9959879
10:55:17:780;-0.47884035;10.0748005;0.9959879
10:55:17:780;-0.47884035;10.0748005;0.9959879
10:55:17:780;-0.47884035;10.0748005;0.9959879
10:55:17:780;-0.47884035;10.0748005;0.9959879
10:55:17:780;-0.47884035;10.0748005;0.9959879
10:55:17:780;-0.47884035;10.0748005;0.9959879
10:55:17:780;-0.47884035;10.0748005;0.9959879
10:55:17:780;-0.47884035;10.0748005;0.9959879
10:55:17:780;-0.47884035;10.0748005;0.9959879
10:55:17:780;-0.47884035;10.0748005;0.9959879
10:55:17:780;-0.47884035;10.0748005;0.9959879
10:55:17:883;-0.63206923;9.9790325;1.1683705
10:55:17:883;-0.63206923;9.9790325;1.1683705
10:55:17:883;-0.63206923;9.9790325;1.1683705
10:55:17:883;-0.63206923;9.9790325;1.1683705
10:55:17:883;-0.63206923;9.9790325;1.1683705
10:55:17:883;-0.63206923;9.9790325;1.1683705
10:55:17:883;-0.63206923;9.9790325;1.1683705
10:55:17:883;-0.63206923;9.9790325;1.1683705
10:55:17:883;-0.63206923;9.9790325;1.1683705
10:55:17:883;-0.63206923;9.9790325;1.1683705
10:55:17:883;-0.63206923;9.9790325;1.1683705
10:55:17:883;-0.63206923;9.9790325;1.1683705
10:55:17:883;-0.63206923;9.9790325;1.1683705
10:55:17:883;-0.63206923;9.9790325;1.1683705
10:55:17:883;-0.63206923;9.9790325;1.1683705
10:55:18:004;-0.34476504;9.883265;1.2258313
10:55:18:004;-0.34476504;9.883265;1.2258313
10:55:18:004;-0.34476504;9.883265;1.2258313
10:55:18:004;-0.34476504;9.883265;1.2258313
10:55:18:004;-0.34476504;9.883265;1.2258313
10:55:18:004;-0.34476504;9.883265;1.2258313
10:55:18:004;-0.34476504;9.883265;1.2258313
10:55:18:004;-0.34476504;9.883265;1.2258313
10:55:18:004;-0.34476504;9.883265;1.2258313
10:55:18:004;-0.34476504;9.883265;1.2258313
10:55:18:004;-0.34476504;9.883265;1.2258313
10:55:18:004;-0.34476504;9.883265;1.2258313
10:55:18:004;-0.34476504;9.883265;1.2258313
10:55:18:004;-0.34476504;9.883265;1.2258313
10:55:18:004;-0.34476504;9.883265;1.2258313
10:55:18:118;-0.21068975;10.457873;1.283292
10:55:18:118;-0.21068975;10.457873;1.283292
10:55:18:118;-0.21068975;10.457873;1.283292
10:55:18:118;-0.21068975;10.457873;1.283292
10:55:18:118;-0.21068975;10.457873;1.283292
10:55:18:118;-0.21068975;10.457873;1.283292
10:55:18:118;-0.21068975;10.457873;1.283292
10:55:18:118;-0.21068975;10.457873;1.283292
10:55:18:118;-0.21068975;10.457873;1.283292
10:55:18:118;-0.21068975;10.457873;1.283292
10:55:18:118;-0.21068975;10.457873;1.283292
10:55:18:118;-0.21068975;10.457873;1.283292
10:55:18:118;-0.21068975;10.457873;1.283292
10:55:18:118;-0.21068975;10.457873;1.283292
10:55:18:118;-0.21068975;10.457873;1.283292
10:55:18:237;-0.61291564;10.055647;1.6472107
10:55:18:237;-0.61291564;10.055647;1.6472107
10:55:18:237;-0.61291564;10.055647;1.6472107
10:55:18:237;-0.61291564;10.055647;1.6472107
10:55:18:237;-0.61291564;10.055647;1.6472107
10:55:18:237;-0.61291564;10.055647;1.6472107
10:55:18:237;-0.61291564;10.055647;1.6472107
10:55:18:237;-0.61291564;10.055647;1.6472107
10:55:18:237;-0.61291564;10.055647;1.6472107
10:55:18:237;-0.61291564;10.055647;1.6472107
10:55:18:237;-0.61291564;10.055647;1.6472107
10:55:18:237;-0.61291564;10.055647;1.6472107
10:55:18:237;-0.61291564;10.055647;1.6472107
10:55:18:237;-0.61291564;10.055647;1.6472107
10:55:18:237;-0.61291564;10.055647;1.6472107
10:55:18:352;-0.40222588;9.710882;1.3024458
10:55:18:352;-0.40222588;9.710882;1.3024458
10:55:18:352;-0.40222588;9.710882;1.3024458
10:55:18:352;-0.40222588;9.710882;1.3024458
10:55:18:352;-0.40222588;9.710882;1.3024458
10:55:18:352;-0.40222588;9.710882;1.3024458
10:55:18:352;-0.40222588;9.710882;1.3024458
10:55:18:352;-0.40222588;9.710882;1.3024458
10:55:18:352;-0.40222588;9.710882;1.3024458
10:55:18:352;-0.40222588;9.710882;1.3024458
10:55:18:352;-0.40222588;9.710882;1.3024458
10:55:18:352;-0.40222588;9.710882;1.3024458
10:55:18:352;-0.40222588;9.710882;1.3024458
10:55:18:352;-0.40222588;9.710882;1.3024458
10:55:18:461;-0.59376204;10.036493;0.91937345
10:55:18:461;-0.59376204;10.036493;0.91937345
10:55:18:461;-0.59376204;10.036493;0.91937345
10:55:18:461;-0.59376204;10.036493;0.91937345
10:55:18:461;-0.59376204;10.036493;0.91937345
10:55:18:461;-0.59376204;10.036493;0.91937345
10:55:18:461;-0.59376204;10.036493;0.91937345
10:55:18:461;-0.59376204;10.036493;0.91937345
10:55:18:461;-0.59376204;10.036493;0.91937345
10:55:18:461;-0.59376204;10.036493;0.91937345
10:55:18:461;-0.59376204;10.036493;0.91937345
10:55:18:461;-0.59376204;10.036493;0.91937345
10:55:18:461;-0.59376204;10.036493;0.91937345
10:55:18:461;-0.59376204;10.036493;0.91937345
10:55:18:461;-0.59376204;10.036493;0.91937345
10:55:18:579;-0.22984336;9.691729;1.6663644
10:55:18:579;-0.22984336;9.691729;1.6663644
10:55:18:579;-0.22984336;9.691729;1.6663644
10:55:18:579;-0.22984336;9.691729;1.6663644
10:55:18:579;-0.22984336;9.691729;1.6663644
10:55:18:579;-0.22984336;9.691729;1.6663644
10:55:18:579;-0.22984336;9.691729;1.6663644
10:55:18:579;-0.22984336;9.691729;1.6663644
10:55:18:579;-0.22984336;9.691729;1.6663644
10:55:18:579;-0.22984336;9.691729;1.6663644
10:55:18:579;-0.22984336;9.691729;1.6663644
10:55:18:579;-0.22984336;9.691729;1.6663644
10:55:18:579;-0.22984336;9.691729;1.6663644
10:55:18:579;-0.22984336;9.691729;1.6663644
10:55:18:691;-0.34476504;9.998186;1.1683705
10:55:18:691;-0.34476504;9.998186;1.1683705
10:55:18:691;-0.34476504;9.998186;1.1683705
10:55:18:691;-0.34476504;9.998186;1.1683705
10:55:18:691;-0.34476504;9.998186;1.1683705
10:55:18:691;-0.34476504;9.998186;1.1683705
10:55:18:691;-0.34476504;9.998186;1.1683705
10:55:18:691;-0.34476504;9.998186;1.1683705
10:55:18:691;-0.34476504;9.998186;1.1683705
10:55:18:691;-0.34476504;9.998186;1.1683705
10:55:18:691;-0.34476504;9.998186;1.1683705
10:55:18:691;-0.34476504;9.998186;1.1683705
10:55:18:691;-0.34476504;9.998186;1.1683705
10:55:18:691;-0.34476504;9.998186;1.1683705
10:55:18:801;-0.78529817;10.093954;0.9576807
10:55:18:801;-0.78529817;10.093954;0.9576807
10:55:18:801;-0.78529817;10.093954;0.9576807
10:55:18:801;-0.78529817;10.093954;0.9576807
10:55:18:801;-0.78529817;10.093954;0.9576807
10:55:18:801;-0.78529817;10.093954;0.9576807
10:55:18:801;-0.78529817;10.093954;0.9576807
10:55:18:801;-0.78529817;10.093954;0.9576807
10:55:18:801;-0.78529817;10.093954;0.9576807
10:55:18:801;-0.78529817;10.093954;0.9576807
10:55:18:801;-0.78529817;10.093954;0.9576807
10:55:18:801;-0.78529817;10.093954;0.9576807
10:55:18:801;-0.78529817;10.093954;0.9576807
10:55:18:801;-0.78529817;10.093954;0.9576807
10:55:18:801;-0.78529817;10.093954;0.9576807
10:55:18:918;-0.38307226;9.710882;1.4556746
10:55:18:918;-0.38307226;9.710882;1.4556746
10:55:18:918;-0.38307226;9.710882;1.4556746
10:55:18:918;-0.38307226;9.710882;1.4556746
10:55:18:918;-0.38307226;9.710882;1.4556746
10:55:18:918;-0.38307226;9.710882;1.4556746
10:55:18:918;-0.38307226;9.710882;1.4556746
10:55:18:918;-0.38307226;9.710882;1.4556746
10:55:18:918;-0.38307226;9.710882;1.4556746
10:55:18:918;-0.38307226;9.710882;1.4556746
10:55:18:918;-0.38307226;9.710882;1.4556746
10:55:18:918;-0.38307226;9.710882;1.4556746
10:55:18:918;-0.38307226;9.710882;1.4556746
10:55:18:918;-0.38307226;9.710882;1.4556746
10:55:18:918;-0.38307226;9.710882;1.4556746
10:55:18:918;-0.38307226;9.710882;1.4556746
10:55:18:918;-0.38307226;9.710882;1.4556746
10:55:19:047;-0.5746084;10.228029;0.9959879
10:55:19:047;-0.5746084;10.228029;0.9959879
10:55:19:047;-0.5746084;10.228029;0.9959879
10:55:19:047;-0.5746084;10.228029;0.9959879
10:55:19:047;-0.5746084;10.228029;0.9959879
10:55:19:047;-0.5746084;10.228029;0.9959879
10:55:19:047;-0.5746084;10.228029;0.9959879
10:55:19:047;-0.5746084;10.228029;0.9959879
10:55:19:047;-0.5746084;10.228029;0.9959879
10:55:19:047;-0.5746084;10.228029;0.9959879
10:55:19:047;-0.5746084;10.228029;0.9959879
10:55:19:047;-0.5746084;10.228029;0.9959879
10:55:19:047;-0.5746084;10.228029;0.9959879
10:55:19:153;-0.6512229;10.783484;0.9959879
10:55:19:153;-0.6512229;10.783484;0.9959879
10:55:19:153;-0.6512229;10.783484;0.9959879
10:55:19:153;-0.6512229;10.783484;0.9959879
10:55:19:153;-0.6512229;10.783484;0.9959879
10:55:19:153;-0.6512229;10.783484;0.9959879
10:55:19:153;-0.6512229;10.783484;0.9959879
10:55:19:153;-0.6512229;10.783484;0.9959879
10:55:19:153;-0.6512229;10.783484;0.9959879
10:55:19:153;-0.6512229;10.783484;0.9959879
10:55:19:153;-0.6512229;10.783484;0.9959879
10:55:19:153;-0.6512229;10.783484;0.9959879
10:55:19:153;-0.6512229;10.783484;0.9959879
10:55:19:153;-0.6512229;10.783484;0.9959879
10:55:19:260;-0.21068975;10.113108;1.2066777
10:55:19:260;-0.21068975;10.113108;1.2066777
10:55:19:260;-0.21068975;10.113108;1.2066777
10:55:19:260;-0.21068975;10.113108;1.2066777
10:55:19:260;-0.21068975;10.113108;1.2066777
10:55:19:260;-0.21068975;10.113108;1.2066777
10:55:19:260;-0.21068975;10.113108;1.2066777
10:55:19:260;-0.21068975;10.113108;1.2066777
10:55:19:260;-0.21068975;10.113108;1.2066777
10:55:19:260;-0.21068975;10.113108;1.2066777
10:55:19:260;-0.21068975;10.113108;1.2066777
10:55:19:260;-0.21068975;10.113108;1.2066777
10:55:19:260;-0.21068975;10.113108;1.2066777
10:55:19:361;-0.59376204;9.921572;1.4939818
10:55:19:361;-0.59376204;9.921572;1.4939818
10:55:19:361;-0.59376204;9.921572;1.4939818
10:55:19:361;-0.59376204;9.921572;1.4939818
10:55:19:361;-0.59376204;9.921572;1.4939818
10:55:19:361;-0.59376204;9.921572;1.4939818
10:55:19:361;-0.59376204;9.921572;1.4939818
10:55:19:361;-0.59376204;9.921572;1.4939818
10:55:19:361;-0.59376204;9.921572;1.4939818
10:55:19:361;-0.59376204;9.921572;1.4939818
10:55:19:361;-0.59376204;9.921572;1.4939818
10:55:19:361;-0.59376204;9.921572;1.4939818
10:55:19:361;-0.59376204;9.921572;1.4939818
10:55:19:361;-0.59376204;9.921572;1.4939818
10:55:19:474;-0.59376204;10.036493;1.1875241
10:55:19:474;-0.59376204;10.036493;1.1875241
10:55:19:474;-0.59376204;10.036493;1.1875241
10:55:19:474;-0.59376204;10.036493;1.1875241
10:55:19:474;-0.59376204;10.036493;1.1875241
10:55:19:474;-0.59376204;10.036493;1.1875241
10:55:19:474;-0.59376204;10.036493;1.1875241
10:55:19:474;-0.59376204;10.036493;1.1875241
10:55:19:474;-0.59376204;10.036493;1.1875241
10:55:19:474;-0.59376204;10.036493;1.1875241
10:55:19:474;-0.59376204;10.036493;1.1875241
10:55:19:474;-0.59376204;10.036493;1.1875241
10:55:19:474;-0.59376204;10.036493;1.1875241
10:55:19:474;-0.59376204;10.036493;1.1875241
10:55:19:474;-0.59376204;10.036493;1.1875241
10:55:19:474;-0.59376204;10.036493;1.1875241
10:55:19:474;-0.59376204;10.036493;1.1875241
10:55:19:474;-0.59376204;10.036493;1.1875241
10:55:19:474;-0.59376204;10.036493;1.1875241
10:55:19:474;-0.59376204;10.036493;1.1875241
10:55:19:474;-0.59376204;10.036493;1.1875241
10:55:19:636;-0.51714754;9.864111;1.283292
10:55:19:636;-0.51714754;9.864111;1.283292
10:55:19:636;-0.51714754;9.864111;1.283292
10:55:19:636;-0.51714754;9.864111;1.283292
10:55:19:636;-0.51714754;9.864111;1.283292
10:55:19:636;-0.51714754;9.864111;1.283292
10:55:19:636;-0.51714754;9.864111;1.283292
10:55:19:636;-0.51714754;9.864111;1.283292
10:55:19:636;-0.51714754;9.864111;1.283292
10:55:19:636;-0.51714754;9.864111;1.283292
10:55:19:636;-0.51714754;9.864111;1.283292
10:55:19:636;-0.51714754;9.864111;1.283292
10:55:19:636;-0.51714754;9.864111;1.283292
10:55:19:636;-0.51714754;9.864111;1.283292
10:55:19:748;-0.82360536;10.28549;1.1683705
10:55:19:748;-0.82360536;10.28549;1.1683705
10:55:19:748;-0.82360536;10.28549;1.1683705
10:55:19:748;-0.82360536;10.28549;1.1683705
10:55:19:748;-0.82360536;10.28549;1.1683705
10:55:19:748;-0.82360536;10.28549;1.1683705
10:55:19:748;-0.82360536;10.28549;1.1683705
10:55:19:748;-0.82360536;10.28549;1.1683705
10:55:19:748;-0.82360536;10.28549;1.1683705
10:55:19:748;-0.82360536;10.28549;1.1683705
10:55:19:748;-0.82360536;10.28549;1.1683705
10:55:19:748;-0.82360536;10.28549;1.1683705
10:55:19:748;-0.82360536;10.28549;1.1683705
10:55:19:748;-0.82360536;10.28549;1.1683705
10:55:19:748;-0.82360536;10.28549;1.1683705
10:55:19:867;-0.5363012;9.672575;1.1875241
10:55:19:867;-0.5363012;9.672575;1.1875241
10:55:19:867;-0.5363012;9.672575;1.1875241
10:55:19:867;-0.5363012;9.672575;1.1875241
10:55:19:867;-0.5363012;9.672575;1.1875241
10:55:19:867;-0.5363012;9.672575;1.1875241
10:55:19:867;-0.5363012;9.672575;1.1875241
10:55:19:867;-0.5363012;9.672575;1.1875241
10:55:19:867;-0.5363012;9.672575;1.1875241
10:55:19:867;-0.5363012;9.672575;1.1875241
10:55:19:867;-0.5363012;9.672575;1.1875241
10:55:19:867;-0.5363012;9.672575;1.1875241
10:55:19:867;-0.5363012;9.672575;1.1875241
10:55:19:968;-0.5746084;9.998186;1.1875241
10:55:19:968;-0.5746084;9.998186;1.1875241
10:55:19:968;-0.5746084;9.998186;1.1875241
10:55:19:968;-0.5746084;9.998186;1.1875241
10:55:19:968;-0.5746084;9.998186;1.1875241
10:55:19:968;-0.5746084;9.998186;1.1875241
10:55:19:968;-0.5746084;9.998186;1.1875241
10:55:19:968;-0.5746084;9.998186;1.1875241
10:55:19:968;-0.5746084;9.998186;1.1875241
10:55:19:968;-0.5746084;9.998186;1.1875241
10:55:19:968;-0.5746084;9.998186;1.1875241
10:55:19:968;-0.5746084;9.998186;1.1875241
10:55:19:968;-0.5746084;9.998186;1.1875241
10:55:19:968;-0.5746084;9.998186;1.1875241
10:55:19:968;-0.5746084;9.998186;1.1875241
10:55:20:085;-0.4405331;9.844957;1.0534488
10:55:20:085;-0.4405331;9.844957;1.0534488
10:55:20:085;-0.4405331;9.844957;1.0534488
10:55:20:085;-0.4405331;9.844957;1.0534488
10:55:20:085;-0.4405331;9.844957;1.0534488
10:55:20:085;-0.4405331;9.844957;1.0534488
10:55:20:085;-0.4405331;9.844957;1.0534488
10:55:20:085;-0.4405331;9.844957;1.0534488
10:55:20:085;-0.4405331;9.844957;1.0534488
10:55:20:085;-0.4405331;9.844957;1.0534488
10:55:20:085;-0.4405331;9.844957;1.0534488
10:55:20:085;-0.4405331;9.844957;1.0534488
10:55:20:085;-0.4405331;9.844957;1.0534488
10:55:20:085;-0.4405331;9.844957;1.0534488
10:55:20:085;-0.4405331;9.844957;1.0534488
10:55:20:085;-0.4405331;9.844957;1.0534488
10:55:20:204;-0.34476504;10.247183;0.90021986
10:55:20:204;-0.34476504;10.247183;0.90021986
10:55:20:204;-0.34476504;10.247183;0.90021986
10:55:20:204;-0.34476504;10.247183;0.90021986
10:55:20:204;-0.34476504;10.247183;0.90021986
10:55:20:204;-0.34476504;10.247183;0.90021986
10:55:20:204;-0.34476504;10.247183;0.90021986
10:55:20:204;-0.34476504;10.247183;0.90021986
10:55:20:204;-0.34476504;10.247183;0.90021986
10:55:20:204;-0.34476504;10.247183;0.90021986
10:55:20:204;-0.34476504;10.247183;0.90021986
10:55:20:204;-0.34476504;10.247183;0.90021986
10:55:20:204;-0.34476504;10.247183;0.90021986
10:55:20:204;-0.34476504;10.247183;0.90021986
10:55:20:319;-0.45968673;10.266336;1.0726024
10:55:20:319;-0.45968673;10.266336;1.0726024
10:55:20:319;-0.45968673;10.266336;1.0726024
10:55:20:319;-0.45968673;10.266336;1.0726024
10:55:20:319;-0.45968673;10.266336;1.0726024
10:55:20:319;-0.45968673;10.266336;1.0726024
10:55:20:319;-0.45968673;10.266336;1.0726024
10:55:20:319;-0.45968673;10.266336;1.0726024
10:55:20:319;-0.45968673;10.266336;1.0726024
10:55:20:319;-0.45968673;10.266336;1.0726024
10:55:20:319;-0.45968673;10.266336;1.0726024
10:55:20:319;-0.45968673;10.266336;1.0726024
10:55:20:319;-0.45968673;10.266336;1.0726024
10:55:20:319;-0.45968673;10.266336;1.0726024
10:55:20:426;-0.34476504;9.864111;1.0151415
10:55:20:426;-0.34476504;9.864111;1.0151415
10:55:20:426;-0.34476504;9.864111;1.0151415
10:55:20:426;-0.34476504;9.864111;1.0151415
10:55:20:426;-0.34476504;9.864111;1.0151415
10:55:20:426;-0.34476504;9.864111;1.0151415
10:55:20:426;-0.34476504;9.864111;1.0151415
10:55:20:426;-0.34476504;9.864111;1.0151415
10:55:20:426;-0.34476504;9.864111;1.0151415
10:55:20:426;-0.34476504;9.864111;1.0151415
10:55:20:426;-0.34476504;9.864111;1.0151415
10:55:20:426;-0.34476504;9.864111;1.0151415
10:55:20:426;-0.34476504;9.864111;1.0151415
10:55:20:426;-0.34476504;9.864111;1.0151415
10:55:20:538;-0.36391866;9.825804;0.91937345
10:55:20:538;-0.36391866;9.825804;0.91937345
10:55:20:538;-0.36391866;9.825804;0.91937345
10:55:20:538;-0.36391866;9.825804;0.91937345
10:55:20:538;-0.36391866;9.825804;0.91937345
10:55:20:538;-0.36391866;9.825804;0.91937345
10:55:20:538;-0.36391866;9.825804;0.91937345
10:55:20:538;-0.36391866;9.825804;0.91937345
10:55:20:538;-0.36391866;9.825804;0.91937345
10:55:20:538;-0.36391866;9.825804;0.91937345
10:55:20:538;-0.36391866;9.825804;0.91937345
10:55:20:538;-0.36391866;9.825804;0.91937345
10:55:20:538;-0.36391866;9.825804;0.91937345
10:55:20:538;-0.36391866;9.825804;0.91937345
10:55:20:538;-0.36391866;9.825804;0.91937345
10:55:20:656;-0.36391866;10.0748005;1.0342951
10:55:20:656;-0.36391866;10.0748005;1.0342951
10:55:20:656;-0.36391866;10.0748005;1.0342951
10:55:20:656;-0.36391866;10.0748005;1.0342951
10:55:20:656;-0.36391866;10.0748005;1.0342951
10:55:20:656;-0.36391866;10.0748005;1.0342951
10:55:20:656;-0.36391866;10.0748005;1.0342951
10:55:20:656;-0.36391866;10.0748005;1.0342951
10:55:20:656;-0.36391866;10.0748005;1.0342951
10:55:20:656;-0.36391866;10.0748005;1.0342951
10:55:20:656;-0.36391866;10.0748005;1.0342951
10:55:20:656;-0.36391866;10.0748005;1.0342951
10:55:20:656;-0.36391866;10.0748005;1.0342951
10:55:20:757;-0.38307226;9.787497;0.78529817
10:55:20:757;-0.38307226;9.787497;0.78529817
10:55:20:757;-0.38307226;9.787497;0.78529817
10:55:20:757;-0.38307226;9.787497;0.78529817
10:55:20:757;-0.38307226;9.787497;0.78529817
10:55:20:757;-0.38307226;9.787497;0.78529817
10:55:20:757;-0.38307226;9.787497;0.78529817
10:55:20:757;-0.38307226;9.787497;0.78529817
10:55:20:757;-0.38307226;9.787497;0.78529817
10:55:20:757;-0.38307226;9.787497;0.78529817
10:55:20:757;-0.38307226;9.787497;0.78529817
10:55:20:757;-0.38307226;9.787497;0.78529817
10:55:20:757;-0.38307226;9.787497;0.78529817
10:55:20:757;-0.38307226;9.787497;0.78529817
10:55:20:757;-0.38307226;9.787497;0.78529817
10:55:20:874;-0.019153614;10.036493;0.7086837
10:55:20:874;-0.019153614;10.036493;0.7086837
10:55:20:874;-0.019153614;10.036493;0.7086837
10:55:20:874;-0.019153614;10.036493;0.7086837
10:55:20:874;-0.019153614;10.036493;0.7086837
10:55:20:874;-0.019153614;10.036493;0.7086837
10:55:20:874;-0.019153614;10.036493;0.7086837
10:55:20:874;-0.019153614;10.036493;0.7086837
10:55:20:874;-0.019153614;10.036493;0.7086837
10:55:20:874;-0.019153614;10.036493;0.7086837
10:55:20:874;-0.019153614;10.036493;0.7086837
10:55:20:874;-0.019153614;10.036493;0.7086837
10:55:20:874;-0.019153614;10.036493;0.7086837
10:55:20:874;-0.019153614;10.036493;0.7086837
10:55:20:874;-0.019153614;10.036493;0.7086837
10:55:20:992;-0.2681506;10.113108;1.0726024
10:55:20:992;-0.2681506;10.113108;1.0726024
10:55:20:992;-0.2681506;10.113108;1.0726024
10:55:20:992;-0.2681506;10.113108;1.0726024
10:55:20:992;-0.2681506;10.113108;1.0726024
10:55:20:992;-0.2681506;10.113108;1.0726024
10:55:20:992;-0.2681506;10.113108;1.0726024
10:55:20:992;-0.2681506;10.113108;1.0726024
10:55:20:992;-0.2681506;10.113108;1.0726024
10:55:20:992;-0.2681506;10.113108;1.0726024
10:55:20:992;-0.2681506;10.113108;1.0726024
10:55:20:992;-0.2681506;10.113108;1.0726024
10:55:20:992;-0.2681506;10.113108;1.0726024
10:55:21:093;-0.30645782;9.9790325;0.7278373
10:55:21:093;-0.30645782;9.9790325;0.7278373
10:55:21:093;-0.30645782;9.9790325;0.7278373
10:55:21:093;-0.30645782;9.9790325;0.7278373
10:55:21:093;-0.30645782;9.9790325;0.7278373
10:55:21:093;-0.30645782;9.9790325;0.7278373
10:55:21:093;-0.30645782;9.9790325;0.7278373
10:55:21:093;-0.30645782;9.9790325;0.7278373
10:55:21:093;-0.30645782;9.9790325;0.7278373
10:55:21:093;-0.30645782;9.9790325;0.7278373
10:55:21:093;-0.30645782;9.9790325;0.7278373
10:55:21:093;-0.30645782;9.9790325;0.7278373
10:55:21:093;-0.30645782;9.9790325;0.7278373
10:55:21:093;-0.30645782;9.9790325;0.7278373
10:55:21:093;-0.30645782;9.9790325;0.7278373
10:55:21:093;-0.30645782;9.9790325;0.7278373
10:55:21:211;-0.34476504;10.093954;0.82360536
10:55:21:211;-0.34476504;10.093954;0.82360536
10:55:21:211;-0.34476504;10.093954;0.82360536
10:55:21:211;-0.34476504;10.093954;0.82360536
10:55:21:211;-0.34476504;10.093954;0.82360536
10:55:21:211;-0.34476504;10.093954;0.82360536
10:55:21:211;-0.34476504;10.093954;0.82360536
10:55:21:211;-0.34476504;10.093954;0.82360536
10:55:21:211;-0.34476504;10.093954;0.82360536
10:55:21:211;-0.34476504;10.093954;0.82360536
10:55:21:211;-0.34476504;10.093954;0.82360536
10:55:21:211;-0.34476504;10.093954;0.82360536
10:55:21:211;-0.34476504;10.093954;0.82360536
10:55:21:211;-0.34476504;10.093954;0.82360536
10:55:21:328;-0.4213795;10.055647;0.5746084
10:55:21:328;-0.4213795;10.055647;0.5746084
10:55:21:328;-0.4213795;10.055647;0.5746084
10:55:21:328;-0.4213795;10.055647;0.5746084
10:55:21:328;-0.4213795;10.055647;0.5746084
10:55:21:328;-0.4213795;10.055647;0.5746084
10:55:21:328;-0.4213795;10.055647;0.5746084
10:55:21:328;-0.4213795;10.055647;0.5746084
10:55:21:328;-0.4213795;10.055647;0.5746084
10:55:21:328;-0.4213795;10.055647;0.5746084
10:55:21:328;-0.4213795;10.055647;0.5746084
10:55:21:328;-0.4213795;10.055647;0.5746084
10:55:21:328;-0.4213795;10.055647;0.5746084
10:55:21:328;-0.4213795;10.055647;0.5746084
10:55:21:432;-0.22984336;9.998186;0.4213795
10:55:21:432;-0.22984336;9.998186;0.4213795
10:55:21:432;-0.22984336;9.998186;0.4213795
10:55:21:432;-0.22984336;9.998186;0.4213795
10:55:21:432;-0.22984336;9.998186;0.4213795
10:55:21:432;-0.22984336;9.998186;0.4213795
10:55:21:432;-0.22984336;9.998186;0.4213795
10:55:21:432;-0.22984336;9.998186;0.4213795
10:55:21:432;-0.22984336;9.998186;0.4213795
10:55:21:432;-0.22984336;9.998186;0.4213795
10:55:21:432;-0.22984336;9.998186;0.4213795
10:55:21:432;-0.22984336;9.998186;0.4213795
10:55:21:432;-0.22984336;9.998186;0.4213795
10:55:21:538;-0.32561144;9.998186;0.21068975
10:55:21:538;-0.32561144;9.998186;0.21068975
10:55:21:538;-0.32561144;9.998186;0.21068975
10:55:21:538;-0.32561144;9.998186;0.21068975
10:55:21:538;-0.32561144;9.998186;0.21068975
10:55:21:538;-0.32561144;9.998186;0.21068975
10:55:21:538;-0.32561144;9.998186;0.21068975
10:55:21:538;-0.32561144;9.998186;0.21068975
10:55:21:538;-0.32561144;9.998186;0.21068975
10:55:21:538;-0.32561144;9.998186;0.21068975
10:55:21:538;-0.32561144;9.998186;0.21068975
10:55:21:538;-0.32561144;9.998186;0.21068975
10:55:21:538;-0.32561144;9.998186;0.21068975
10:55:21:538;-0.32561144;9.998186;0.21068975
10:55:21:538;-0.32561144;9.998186;0.21068975
10:55:21:538;-0.32561144;9.998186;0.21068975
10:55:21:658;-0.4213795;9.883265;0.24899697
10:55:21:658;-0.4213795;9.883265;0.24899697
10:55:21:658;-0.4213795;9.883265;0.24899697
10:55:21:658;-0.4213795;9.883265;0.24899697
10:55:21:658;-0.4213795;9.883265;0.24899697
10:55:21:658;-0.4213795;9.883265;0.24899697
10:55:21:658;-0.4213795;9.883265;0.24899697
10:55:21:658;-0.4213795;9.883265;0.24899697
10:55:21:658;-0.4213795;9.883265;0.24899697
10:55:21:658;-0.4213795;9.883265;0.24899697
10:55:21:658;-0.4213795;9.883265;0.24899697
10:55:21:658;-0.4213795;9.883265;0.24899697
10:55:21:658;-0.4213795;9.883265;0.24899697
10:55:21:759;-0.2681506;9.9790325;0.34476504
10:55:21:759;-0.2681506;9.9790325;0.34476504
10:55:21:759;-0.2681506;9.9790325;0.34476504
10:55:21:759;-0.2681506;9.9790325;0.34476504
10:55:21:759;-0.2681506;9.9790325;0.34476504
10:55:21:759;-0.2681506;9.9790325;0.34476504
10:55:21:759;-0.2681506;9.9790325;0.34476504
10:55:21:759;-0.2681506;9.9790325;0.34476504
10:55:21:759;-0.2681506;9.9790325;0.34476504
10:55:21:759;-0.2681506;9.9790325;0.34476504
10:55:21:759;-0.2681506;9.9790325;0.34476504
10:55:21:759;-0.2681506;9.9790325;0.34476504
10:55:21:759;-0.2681506;9.9790325;0.34476504
10:55:21:759;-0.2681506;9.9790325;0.34476504
10:55:21:759;-0.2681506;9.9790325;0.34476504
10:55:21:759;-0.2681506;9.9790325;0.34476504
10:55:21:887;-0.30645782;10.036493;0.34476504
10:55:21:887;-0.30645782;10.036493;0.34476504
10:55:21:887;-0.30645782;10.036493;0.34476504
10:55:21:887;-0.30645782;10.036493;0.34476504
10:55:21:887;-0.30645782;10.036493;0.34476504
10:55:21:887;-0.30645782;10.036493;0.34476504
10:55:21:887;-0.30645782;10.036493;0.34476504
10:55:21:887;-0.30645782;10.036493;0.34476504
10:55:21:887;-0.30645782;10.036493;0.34476504
10:55:21:887;-0.30645782;10.036493;0.34476504
10:55:21:887;-0.30645782;10.036493;0.34476504
10:55:21:887;-0.30645782;10.036493;0.34476504
10:55:21:887;-0.30645782;10.036493;0.34476504
10:55:21:887;-0.30645782;10.036493;0.34476504
10:55:21:996;-0.24899697;9.844957;0.22984336
10:55:21:996;-0.24899697;9.844957;0.22984336
10:55:21:996;-0.24899697;9.844957;0.22984336
10:55:21:996;-0.24899697;9.844957;0.22984336
10:55:21:996;-0.24899697;9.844957;0.22984336
10:55:21:996;-0.24899697;9.844957;0.22984336
10:55:21:996;-0.24899697;9.844957;0.22984336
10:55:21:996;-0.24899697;9.844957;0.22984336
10:55:21:996;-0.24899697;9.844957;0.22984336
10:55:21:996;-0.24899697;9.844957;0.22984336
10:55:21:996;-0.24899697;9.844957;0.22984336
10:55:21:996;-0.24899697;9.844957;0.22984336
10:55:21:996;-0.24899697;9.844957;0.22984336
10:55:21:996;-0.24899697;9.844957;0.22984336
10:55:21:996;-0.24899697;9.844957;0.22984336
10:55:21:996;-0.24899697;9.844957;0.22984336
10:55:21:996;-0.24899697;9.844957;0.22984336
10:55:21:996;-0.24899697;9.844957;0.22984336
10:55:21:996;-0.24899697;9.844957;0.22984336
10:55:21:996;-0.24899697;9.844957;0.22984336
10:55:21:996;-0.24899697;9.844957;0.22984336
10:55:21:996;-0.24899697;9.844957;0.22984336
10:55:21:996;-0.24899697;9.844957;0.22984336
10:55:22:173;-0.4213795;10.036493;0.076614454
10:55:22:173;-0.4213795;10.036493;0.076614454
10:55:22:173;-0.4213795;10.036493;0.076614454
10:55:22:173;-0.4213795;10.036493;0.076614454
10:55:22:173;-0.4213795;10.036493;0.076614454
10:55:22:173;-0.4213795;10.036493;0.076614454
10:55:22:173;-0.4213795;10.036493;0.076614454
10:55:22:173;-0.4213795;10.036493;0.076614454
10:55:22:173;-0.4213795;10.036493;0.076614454
10:55:22:173;-0.4213795;10.036493;0.076614454
10:55:22:173;-0.4213795;10.036493;0.076614454
10:55:22:173;-0.4213795;10.036493;0.076614454
10:55:22:173;-0.4213795;10.036493;0.076614454
10:55:22:279;-0.32561144;10.170568;0.095768064
10:55:22:279;-0.32561144;10.170568;0.095768064
10:55:22:279;-0.32561144;10.170568;0.095768064
10:55:22:279;-0.32561144;10.170568;0.095768064
10:55:22:279;-0.32561144;10.170568;0.095768064
10:55:22:279;-0.32561144;10.170568;0.095768064
10:55:22:279;-0.32561144;10.170568;0.095768064
10:55:22:279;-0.32561144;10.170568;0.095768064
10:55:22:279;-0.32561144;10.170568;0.095768064
10:55:22:279;-0.32561144;10.170568;0.095768064
10:55:22:279;-0.32561144;10.170568;0.095768064
10:55:22:279;-0.32561144;10.170568;0.095768064
10:55:22:279;-0.32561144;10.170568;0.095768064
10:55:22:279;-0.32561144;10.170568;0.095768064
10:55:22:388;-0.34476504;10.093954;0.11492168
10:55:22:388;-0.34476504;10.093954;0.11492168
10:55:22:388;-0.34476504;10.093954;0.11492168
10:55:22:388;-0.34476504;10.093954;0.11492168
10:55:22:388;-0.34476504;10.093954;0.11492168
10:55:22:388;-0.34476504;10.093954;0.11492168
10:55:22:388;-0.34476504;10.093954;0.11492168
10:55:22:388;-0.34476504;10.093954;0.11492168
10:55:22:388;-0.34476504;10.093954;0.11492168
10:55:22:388;-0.34476504;10.093954;0.11492168
10:55:22:388;-0.34476504;10.093954;0.11492168
10:55:22:388;-0.34476504;10.093954;0.11492168
10:55:22:388;-0.34476504;10.093954;0.11492168
10:55:22:388;-0.34476504;10.093954;0.11492168
10:55:22:498;-0.34476504;9.959879;0.22984336
10:55:22:498;-0.34476504;9.959879;0.22984336
10:55:22:498;-0.34476504;9.959879;0.22984336
10:55:22:498;-0.34476504;9.959879;0.22984336
10:55:22:498;-0.34476504;9.959879;0.22984336
10:55:22:498;-0.34476504;9.959879;0.22984336
10:55:22:498;-0.34476504;9.959879;0.22984336
10:55:22:498;-0.34476504;9.959879;0.22984336
10:55:22:498;-0.34476504;9.959879;0.22984336
10:55:22:498;-0.34476504;9.959879;0.22984336
10:55:22:498;-0.34476504;9.959879;0.22984336
10:55:22:498;-0.34476504;9.959879;0.22984336
10:55:22:498;-0.34476504;9.959879;0.22984336
10:55:22:498;-0.34476504;9.959879;0.22984336
10:55:22:498;-0.34476504;9.959879;0.22984336
10:55:22:614;-0.4213795;10.036493;0.019153614
10:55:22:614;-0.4213795;10.036493;0.019153614
10:55:22:614;-0.4213795;10.036493;0.019153614
10:55:22:614;-0.4213795;10.036493;0.019153614
10:55:22:614;-0.4213795;10.036493;0.019153614
10:55:22:614;-0.4213795;10.036493;0.019153614
10:55:22:614;-0.4213795;10.036493;0.019153614
10:55:22:614;-0.4213795;10.036493;0.019153614
10:55:22:614;-0.4213795;10.036493;0.019153614
10:55:22:614;-0.4213795;10.036493;0.019153614
10:55:22:614;-0.4213795;10.036493;0.019153614
10:55:22:614;-0.4213795;10.036493;0.019153614
10:55:22:614;-0.4213795;10.036493;0.019153614
10:55:22:717;-0.4213795;10.132261;-0.1340753
10:55:22:717;-0.4213795;10.132261;-0.1340753
10:55:22:717;-0.4213795;10.132261;-0.1340753
10:55:22:717;-0.4213795;10.132261;-0.1340753
10:55:22:717;-0.4213795;10.132261;-0.1340753
10:55:22:717;-0.4213795;10.132261;-0.1340753
10:55:22:717;-0.4213795;10.132261;-0.1340753
10:55:22:717;-0.4213795;10.132261;-0.1340753
10:55:22:717;-0.4213795;10.132261;-0.1340753
10:55:22:717;-0.4213795;10.132261;-0.1340753
10:55:22:717;-0.4213795;10.132261;-0.1340753
10:55:22:717;-0.4213795;10.132261;-0.1340753
10:55:22:717;-0.4213795;10.132261;-0.1340753
10:55:22:717;-0.4213795;10.132261;-0.1340753
10:55:22:717;-0.4213795;10.132261;-0.1340753
10:55:22:717;-0.4213795;10.132261;-0.1340753
10:55:22:839;-0.4405331;9.959879;-0.30645782
10:55:22:839;-0.4405331;9.959879;-0.30645782
10:55:22:839;-0.4405331;9.959879;-0.30645782
10:55:22:839;-0.4405331;9.959879;-0.30645782
10:55:22:839;-0.4405331;9.959879;-0.30645782
10:55:22:839;-0.4405331;9.959879;-0.30645782
10:55:22:839;-0.4405331;9.959879;-0.30645782
10:55:22:839;-0.4405331;9.959879;-0.30645782
10:55:22:839;-0.4405331;9.959879;-0.30645782
10:55:22:839;-0.4405331;9.959879;-0.30645782
10:55:22:839;-0.4405331;9.959879;-0.30645782
10:55:22:839;-0.4405331;9.959879;-0.30645782
10:55:22:839;-0.4405331;9.959879;-0.30645782
10:55:22:839;-0.4405331;9.959879;-0.30645782
10:55:22:839;-0.4405331;9.959879;-0.30645782
10:55:22:958;-0.4405331;9.940725;-0.59376204
10:55:22:958;-0.4405331;9.940725;-0.59376204
10:55:22:958;-0.4405331;9.940725;-0.59376204
10:55:22:958;-0.4405331;9.940725;-0.59376204
10:55:22:958;-0.4405331;9.940725;-0.59376204
10:55:22:958;-0.4405331;9.940725;-0.59376204
10:55:22:958;-0.4405331;9.940725;-0.59376204
10:55:22:958;-0.4405331;9.940725;-0.59376204
10:55:22:958;-0.4405331;9.940725;-0.59376204
10:55:22:958;-0.4405331;9.940725;-0.59376204
10:55:22:958;-0.4405331;9.940725;-0.59376204
10:55:22:958;-0.4405331;9.940725;-0.59376204
10:55:22:958;-0.4405331;9.940725;-0.59376204
10:55:22:958;-0.4405331;9.940725;-0.59376204
10:55:23:065;-0.45968673;10.0748005;-0.7661445
10:55:23:065;-0.45968673;10.0748005;-0.7661445
10:55:23:065;-0.45968673;10.0748005;-0.7661445
10:55:23:065;-0.45968673;10.0748005;-0.7661445
10:55:23:065;-0.45968673;10.0748005;-0.7661445
10:55:23:065;-0.45968673;10.0748005;-0.7661445
10:55:23:065;-0.45968673;10.0748005;-0.7661445
10:55:23:065;-0.45968673;10.0748005;-0.7661445
10:55:23:065;-0.45968673;10.0748005;-0.7661445
10:55:23:065;-0.45968673;10.0748005;-0.7661445
10:55:23:065;-0.45968673;10.0748005;-0.7661445
10:55:23:065;-0.45968673;10.0748005;-0.7661445
10:55:23:065;-0.45968673;10.0748005;-0.7661445
10:55:23:065;-0.45968673;10.0748005;-0.7661445
10:55:23:175;-0.36391866;10.093954;-0.15322891
10:55:23:175;-0.36391866;10.093954;-0.15322891
10:55:23:175;-0.36391866;10.093954;-0.15322891
10:55:23:175;-0.36391866;10.093954;-0.15322891
10:55:23:175;-0.36391866;10.093954;-0.15322891
10:55:23:175;-0.36391866;10.093954;-0.15322891
10:55:23:175;-0.36391866;10.093954;-0.15322891
10:55:23:175;-0.36391866;10.093954;-0.15322891
10:55:23:175;-0.36391866;10.093954;-0.15322891
10:55:23:175;-0.36391866;10.093954;-0.15322891
10:55:23:175;-0.36391866;10.093954;-0.15322891
10:55:23:175;-0.36391866;10.093954;-0.15322891
10:55:23:175;-0.36391866;10.093954;-0.15322891
10:55:23:277;-0.36391866;10.113108;-0.40222588
10:55:23:277;-0.36391866;10.113108;-0.40222588
10:55:23:277;-0.36391866;10.113108;-0.40222588
10:55:23:277;-0.36391866;10.113108;-0.40222588
10:55:23:277;-0.36391866;10.113108;-0.40222588
10:55:23:277;-0.36391866;10.113108;-0.40222588
10:55:23:277;-0.36391866;10.113108;-0.40222588
