Time_Accel;AccelX;AccelY;AccelZ
11:11:56:694;0.7278373;11.128249;-0.63206923
11:11:56:694;0.7278373;11.128249;-0.63206923
11:11:56:694;0.7278373;11.128249;-0.63206923
11:11:56:694;0.7278373;11.128249;-0.63206923
11:11:56:694;0.7278373;11.128249;-0.63206923
11:11:56:694;0.7278373;11.128249;-0.63206923
11:11:56:694;0.7278373;11.128249;-0.63206923
11:11:56:694;0.7278373;11.128249;-0.63206923
11:11:56:694;0.7278373;11.128249;-0.63206923
11:11:56:694;0.7278373;11.128249;-0.63206923
11:11:56:808;1.340753;9.902418;1.0151415
11:11:56:808;1.340753;9.902418;1.0151415
11:11:56:808;1.340753;9.902418;1.0151415
11:11:56:808;1.340753;9.902418;1.0151415
11:11:56:808;1.340753;9.902418;1.0151415
11:11:56:808;1.340753;9.902418;1.0151415
11:11:56:808;1.340753;9.902418;1.0151415
11:11:56:808;1.340753;9.902418;1.0151415
11:11:56:808;1.340753;9.902418;1.0151415
11:11:56:808;1.340753;9.902418;1.0151415
11:11:56:808;1.340753;9.902418;1.0151415
11:11:56:808;1.340753;9.902418;1.0151415
11:11:56:808;1.340753;9.902418;1.0151415
11:11:56:808;1.340753;9.902418;1.0151415
11:11:56:808;1.340753;9.902418;1.0151415
11:11:56:927;0.49799395;9.346964;-0.6703765
11:11:56:927;0.49799395;9.346964;-0.6703765
11:11:56:927;0.49799395;9.346964;-0.6703765
11:11:56:927;0.49799395;9.346964;-0.6703765
11:11:56:927;0.49799395;9.346964;-0.6703765
11:11:56:927;0.49799395;9.346964;-0.6703765
11:11:56:927;0.49799395;9.346964;-0.6703765
11:11:56:927;0.49799395;9.346964;-0.6703765
11:11:56:927;0.49799395;9.346964;-0.6703765
11:11:56:927;0.49799395;9.346964;-0.6703765
11:11:56:927;0.49799395;9.346964;-0.6703765
11:11:56:927;0.49799395;9.346964;-0.6703765
11:11:56:927;0.49799395;9.346964;-0.6703765
11:11:57:030;0.6703765;9.423578;0.4405331
11:11:57:030;0.6703765;9.423578;0.4405331
11:11:57:030;0.6703765;9.423578;0.4405331
11:11:57:030;0.6703765;9.423578;0.4405331
11:11:57:030;0.6703765;9.423578;0.4405331
11:11:57:030;0.6703765;9.423578;0.4405331
11:11:57:030;0.6703765;9.423578;0.4405331
11:11:57:030;0.6703765;9.423578;0.4405331
11:11:57:030;0.6703765;9.423578;0.4405331
11:11:57:030;0.6703765;9.423578;0.4405331
11:11:57:030;0.6703765;9.423578;0.4405331
11:11:57:030;0.6703765;9.423578;0.4405331
11:11:57:030;0.6703765;9.423578;0.4405331
11:11:57:030;0.6703765;9.423578;0.4405331
11:11:57:030;0.6703765;9.423578;0.4405331
11:11:57:143;1.1492168;9.883265;0.095768064
11:11:57:143;1.1492168;9.883265;0.095768064
11:11:57:143;1.1492168;9.883265;0.095768064
11:11:57:143;1.1492168;9.883265;0.095768064
11:11:57:143;1.1492168;9.883265;0.095768064
11:11:57:143;1.1492168;9.883265;0.095768064
11:11:57:143;1.1492168;9.883265;0.095768064
11:11:57:143;1.1492168;9.883265;0.095768064
11:11:57:143;1.1492168;9.883265;0.095768064
11:11:57:143;1.1492168;9.883265;0.095768064
11:11:57:143;1.1492168;9.883265;0.095768064
11:11:57:143;1.1492168;9.883265;0.095768064
11:11:57:143;1.1492168;9.883265;0.095768064
11:11:57:143;1.1492168;9.883265;0.095768064
11:11:57:143;1.1492168;9.883265;0.095768064
11:11:57:143;1.1492168;9.883265;0.095768064
11:11:57:143;1.1492168;9.883265;0.095768064
11:11:57:143;1.1492168;9.883265;0.095768064
11:11:57:284;0.51714754;9.5385;-0.019153614
11:11:57:284;0.51714754;9.5385;-0.019153614
11:11:57:284;0.51714754;9.5385;-0.019153614
11:11:57:284;0.51714754;9.5385;-0.019153614
11:11:57:284;0.51714754;9.5385;-0.019153614
11:11:57:284;0.51714754;9.5385;-0.019153614
11:11:57:284;0.51714754;9.5385;-0.019153614
11:11:57:284;0.51714754;9.5385;-0.019153614
11:11:57:284;0.51714754;9.5385;-0.019153614
11:11:57:284;0.51714754;9.5385;-0.019153614
11:11:57:284;0.51714754;9.5385;-0.019153614
11:11:57:284;0.51714754;9.5385;-0.019153614
11:11:57:284;0.51714754;9.5385;-0.019153614
11:11:57:388;-0.17238252;10.28549;1.1875241
11:11:57:388;-0.17238252;10.28549;1.1875241
11:11:57:388;-0.17238252;10.28549;1.1875241
11:11:57:388;-0.17238252;10.28549;1.1875241
11:11:57:388;-0.17238252;10.28549;1.1875241
11:11:57:388;-0.17238252;10.28549;1.1875241
11:11:57:388;-0.17238252;10.28549;1.1875241
11:11:57:388;-0.17238252;10.28549;1.1875241
11:11:57:388;-0.17238252;10.28549;1.1875241
11:11:57:388;-0.17238252;10.28549;1.1875241
11:11:57:388;-0.17238252;10.28549;1.1875241
11:11:57:388;-0.17238252;10.28549;1.1875241
11:11:57:388;-0.17238252;10.28549;1.1875241
11:11:57:388;-0.17238252;10.28549;1.1875241
11:11:57:388;-0.17238252;10.28549;1.1875241
11:11:57:388;-0.17238252;10.28549;1.1875241
11:11:57:509;1.3982137;9.519346;0.4405331
11:11:57:509;1.3982137;9.519346;0.4405331
11:11:57:509;1.3982137;9.519346;0.4405331
11:11:57:509;1.3982137;9.519346;0.4405331
11:11:57:509;1.3982137;9.519346;0.4405331
11:11:57:509;1.3982137;9.519346;0.4405331
11:11:57:509;1.3982137;9.519346;0.4405331
11:11:57:509;1.3982137;9.519346;0.4405331
11:11:57:509;1.3982137;9.519346;0.4405331
11:11:57:509;1.3982137;9.519346;0.4405331
11:11:57:509;1.3982137;9.519346;0.4405331
11:11:57:509;1.3982137;9.519346;0.4405331
11:11:57:509;1.3982137;9.519346;0.4405331
11:11:57:611;0.17238252;10.572795;-0.2873042
11:11:57:611;0.17238252;10.572795;-0.2873042
11:11:57:611;0.17238252;10.572795;-0.2873042
11:11:57:611;0.17238252;10.572795;-0.2873042
11:11:57:611;0.17238252;10.572795;-0.2873042
11:11:57:611;0.17238252;10.572795;-0.2873042
11:11:57:611;0.17238252;10.572795;-0.2873042
11:11:57:611;0.17238252;10.572795;-0.2873042
11:11:57:611;0.17238252;10.572795;-0.2873042
11:11:57:611;0.17238252;10.572795;-0.2873042
11:11:57:611;0.17238252;10.572795;-0.2873042
11:11:57:611;0.17238252;10.572795;-0.2873042
11:11:57:611;0.17238252;10.572795;-0.2873042
11:11:57:611;0.17238252;10.572795;-0.2873042
11:11:57:611;0.17238252;10.572795;-0.2873042
11:11:57:730;0.51714754;8.983045;0.7086837
11:11:57:730;0.51714754;8.983045;0.7086837
11:11:57:730;0.51714754;8.983045;0.7086837
11:11:57:730;0.51714754;8.983045;0.7086837
11:11:57:730;0.51714754;8.983045;0.7086837
11:11:57:730;0.51714754;8.983045;0.7086837
11:11:57:730;0.51714754;8.983045;0.7086837
11:11:57:730;0.51714754;8.983045;0.7086837
11:11:57:730;0.51714754;8.983045;0.7086837
11:11:57:730;0.51714754;8.983045;0.7086837
11:11:57:730;0.51714754;8.983045;0.7086837
11:11:57:730;0.51714754;8.983045;0.7086837
11:11:57:730;0.51714754;8.983045;0.7086837
11:11:57:730;0.51714754;8.983045;0.7086837
11:11:57:730;0.51714754;8.983045;0.7086837
11:11:57:730;0.51714754;8.983045;0.7086837
11:11:57:852;0.38307226;10.496181;-0.40222588
11:11:57:852;0.38307226;10.496181;-0.40222588
11:11:57:852;0.38307226;10.496181;-0.40222588
11:11:57:852;0.38307226;10.496181;-0.40222588
11:11:57:852;0.38307226;10.496181;-0.40222588
11:11:57:852;0.38307226;10.496181;-0.40222588
11:11:57:852;0.38307226;10.496181;-0.40222588
11:11:57:852;0.38307226;10.496181;-0.40222588
11:11:57:852;0.38307226;10.496181;-0.40222588
11:11:57:852;0.38307226;10.496181;-0.40222588
11:11:57:852;0.38307226;10.496181;-0.40222588
11:11:57:852;0.38307226;10.496181;-0.40222588
11:11:57:852;0.38307226;10.496181;-0.40222588
11:11:57:852;0.38307226;10.496181;-0.40222588
11:11:57:968;-0.40222588;8.0445175;0.4213795
11:11:57:968;-0.40222588;8.0445175;0.4213795
11:11:57:968;-0.40222588;8.0445175;0.4213795
11:11:57:968;-0.40222588;8.0445175;0.4213795
11:11:57:968;-0.40222588;8.0445175;0.4213795
11:11:57:968;-0.40222588;8.0445175;0.4213795
11:11:57:968;-0.40222588;8.0445175;0.4213795
11:11:57:968;-0.40222588;8.0445175;0.4213795
11:11:57:968;-0.40222588;8.0445175;0.4213795
11:11:57:968;-0.40222588;8.0445175;0.4213795
11:11:57:968;-0.40222588;8.0445175;0.4213795
11:11:57:968;-0.40222588;8.0445175;0.4213795
11:11:57:968;-0.40222588;8.0445175;0.4213795
11:11:57:968;-0.40222588;8.0445175;0.4213795
11:11:57:968;-0.40222588;8.0445175;0.4213795
11:11:58:085;0.36391866;10.70687;2.0111294
11:11:58:085;0.36391866;10.70687;2.0111294
11:11:58:085;0.36391866;10.70687;2.0111294
11:11:58:085;0.36391866;10.70687;2.0111294
11:11:58:085;0.36391866;10.70687;2.0111294
11:11:58:085;0.36391866;10.70687;2.0111294
11:11:58:085;0.36391866;10.70687;2.0111294
11:11:58:085;0.36391866;10.70687;2.0111294
11:11:58:085;0.36391866;10.70687;2.0111294
11:11:58:085;0.36391866;10.70687;2.0111294
11:11:58:085;0.36391866;10.70687;2.0111294
11:11:58:085;0.36391866;10.70687;2.0111294
11:11:58:085;0.36391866;10.70687;2.0111294
11:11:58:085;0.36391866;10.70687;2.0111294
11:11:58:085;0.36391866;10.70687;2.0111294
11:11:58:085;0.36391866;10.70687;2.0111294
11:11:58:205;-0.17238252;10.821792;-0.8619126
11:11:58:205;-0.17238252;10.821792;-0.8619126
11:11:58:205;-0.17238252;10.821792;-0.8619126
11:11:58:205;-0.17238252;10.821792;-0.8619126
11:11:58:205;-0.17238252;10.821792;-0.8619126
11:11:58:205;-0.17238252;10.821792;-0.8619126
11:11:58:205;-0.17238252;10.821792;-0.8619126
11:11:58:205;-0.17238252;10.821792;-0.8619126
11:11:58:205;-0.17238252;10.821792;-0.8619126
11:11:58:205;-0.17238252;10.821792;-0.8619126
11:11:58:205;-0.17238252;10.821792;-0.8619126
11:11:58:205;-0.17238252;10.821792;-0.8619126
11:11:58:205;-0.17238252;10.821792;-0.8619126
11:11:58:309;-0.2681506;9.691729;0.90021986
11:11:58:309;-0.2681506;9.691729;0.90021986
11:11:58:309;-0.2681506;9.691729;0.90021986
11:11:58:309;-0.2681506;9.691729;0.90021986
11:11:58:309;-0.2681506;9.691729;0.90021986
11:11:58:309;-0.2681506;9.691729;0.90021986
11:11:58:309;-0.2681506;9.691729;0.90021986
11:11:58:309;-0.2681506;9.691729;0.90021986
11:11:58:309;-0.2681506;9.691729;0.90021986
11:11:58:309;-0.2681506;9.691729;0.90021986
11:11:58:309;-0.2681506;9.691729;0.90021986
11:11:58:309;-0.2681506;9.691729;0.90021986
11:11:58:309;-0.2681506;9.691729;0.90021986
11:11:58:309;-0.2681506;9.691729;0.90021986
11:11:58:309;-0.2681506;9.691729;0.90021986
11:11:58:425;0.19153613;9.768343;0.05746084
11:11:58:425;0.19153613;9.768343;0.05746084
11:11:58:425;0.19153613;9.768343;0.05746084
11:11:58:425;0.19153613;9.768343;0.05746084
11:11:58:425;0.19153613;9.768343;0.05746084
11:11:58:425;0.19153613;9.768343;0.05746084
11:11:58:425;0.19153613;9.768343;0.05746084
11:11:58:425;0.19153613;9.768343;0.05746084
11:11:58:425;0.19153613;9.768343;0.05746084
11:11:58:425;0.19153613;9.768343;0.05746084
11:11:58:425;0.19153613;9.768343;0.05746084
11:11:58:425;0.19153613;9.768343;0.05746084
11:11:58:425;0.19153613;9.768343;0.05746084
11:11:58:425;0.19153613;9.768343;0.05746084
11:11:58:425;0.19153613;9.768343;0.05746084
11:11:58:545;-0.38307226;11.243171;1.1875241
11:11:58:545;-0.38307226;11.243171;1.1875241
11:11:58:545;-0.38307226;11.243171;1.1875241
11:11:58:545;-0.38307226;11.243171;1.1875241
11:11:58:545;-0.38307226;11.243171;1.1875241
11:11:58:545;-0.38307226;11.243171;1.1875241
11:11:58:545;-0.38307226;11.243171;1.1875241
11:11:58:545;-0.38307226;11.243171;1.1875241
11:11:58:545;-0.38307226;11.243171;1.1875241
11:11:58:545;-0.38307226;11.243171;1.1875241
11:11:58:545;-0.38307226;11.243171;1.1875241
11:11:58:545;-0.38307226;11.243171;1.1875241
11:11:58:545;-0.38307226;11.243171;1.1875241
11:11:58:545;-0.38307226;11.243171;1.1875241
11:11:58:650;0.49799395;10.342952;0.40222588
11:11:58:650;0.49799395;10.342952;0.40222588
11:11:58:650;0.49799395;10.342952;0.40222588
11:11:58:650;0.49799395;10.342952;0.40222588
11:11:58:650;0.49799395;10.342952;0.40222588
11:11:58:650;0.49799395;10.342952;0.40222588
11:11:58:650;0.49799395;10.342952;0.40222588
11:11:58:650;0.49799395;10.342952;0.40222588
11:11:58:650;0.49799395;10.342952;0.40222588
11:11:58:650;0.49799395;10.342952;0.40222588
11:11:58:650;0.49799395;10.342952;0.40222588
11:11:58:650;0.49799395;10.342952;0.40222588
11:11:58:650;0.49799395;10.342952;0.40222588
11:11:58:755;0.21068975;10.228029;0.19153613
11:11:58:755;0.21068975;10.228029;0.19153613
11:11:58:755;0.21068975;10.228029;0.19153613
11:11:58:755;0.21068975;10.228029;0.19153613
11:11:58:755;0.21068975;10.228029;0.19153613
11:11:58:755;0.21068975;10.228029;0.19153613
11:11:58:755;0.21068975;10.228029;0.19153613
11:11:58:755;0.21068975;10.228029;0.19153613
11:11:58:755;0.21068975;10.228029;0.19153613
11:11:58:755;0.21068975;10.228029;0.19153613
11:11:58:755;0.21068975;10.228029;0.19153613
11:11:58:755;0.21068975;10.228029;0.19153613
11:11:58:755;0.21068975;10.228029;0.19153613
11:11:58:859;-0.019153614;10.726024;0.2681506
11:11:58:859;-0.019153614;10.726024;0.2681506
11:11:58:859;-0.019153614;10.726024;0.2681506
11:11:58:859;-0.019153614;10.726024;0.2681506
11:11:58:859;-0.019153614;10.726024;0.2681506
11:11:58:859;-0.019153614;10.726024;0.2681506
11:11:58:859;-0.019153614;10.726024;0.2681506
11:11:58:859;-0.019153614;10.726024;0.2681506
11:11:58:859;-0.019153614;10.726024;0.2681506
11:11:58:859;-0.019153614;10.726024;0.2681506
11:11:58:859;-0.019153614;10.726024;0.2681506
11:11:58:859;-0.019153614;10.726024;0.2681506
11:11:58:859;-0.019153614;10.726024;0.2681506
11:11:58:859;-0.019153614;10.726024;0.2681506
11:11:58:859;-0.019153614;10.726024;0.2681506
11:11:58:973;0.019153614;9.998186;0.59376204
11:11:58:973;0.019153614;9.998186;0.59376204
11:11:58:973;0.019153614;9.998186;0.59376204
11:11:58:973;0.019153614;9.998186;0.59376204
11:11:58:973;0.019153614;9.998186;0.59376204
11:11:58:973;0.019153614;9.998186;0.59376204
11:11:58:973;0.019153614;9.998186;0.59376204
11:11:58:973;0.019153614;9.998186;0.59376204
11:11:58:973;0.019153614;9.998186;0.59376204
11:11:58:973;0.019153614;9.998186;0.59376204
11:11:58:973;0.019153614;9.998186;0.59376204
11:11:58:973;0.019153614;9.998186;0.59376204
11:11:58:973;0.019153614;9.998186;0.59376204
11:11:58:973;0.019153614;9.998186;0.59376204
11:11:59:082;0.34476504;9.423578;1.1683705
11:11:59:082;0.34476504;9.423578;1.1683705
11:11:59:082;0.34476504;9.423578;1.1683705
11:11:59:082;0.34476504;9.423578;1.1683705
11:11:59:082;0.34476504;9.423578;1.1683705
11:11:59:082;0.34476504;9.423578;1.1683705
11:11:59:082;0.34476504;9.423578;1.1683705
11:11:59:082;0.34476504;9.423578;1.1683705
11:11:59:082;0.34476504;9.423578;1.1683705
11:11:59:082;0.34476504;9.423578;1.1683705
11:11:59:082;0.34476504;9.423578;1.1683705
11:11:59:082;0.34476504;9.423578;1.1683705
11:11:59:082;0.34476504;9.423578;1.1683705
11:11:59:082;0.34476504;9.423578;1.1683705
11:11:59:191;-0.32561144;10.515334;1.1683705
11:11:59:191;-0.32561144;10.515334;1.1683705
11:11:59:191;-0.32561144;10.515334;1.1683705
11:11:59:191;-0.32561144;10.515334;1.1683705
11:11:59:191;-0.32561144;10.515334;1.1683705
11:11:59:191;-0.32561144;10.515334;1.1683705
11:11:59:191;-0.32561144;10.515334;1.1683705
11:11:59:191;-0.32561144;10.515334;1.1683705
11:11:59:191;-0.32561144;10.515334;1.1683705
11:11:59:191;-0.32561144;10.515334;1.1683705
11:11:59:191;-0.32561144;10.515334;1.1683705
11:11:59:191;-0.32561144;10.515334;1.1683705
11:11:59:191;-0.32561144;10.515334;1.1683705
11:11:59:296;0.19153613;10.43872;0.095768064
11:11:59:296;0.19153613;10.43872;0.095768064
11:11:59:296;0.19153613;10.43872;0.095768064
11:11:59:296;0.19153613;10.43872;0.095768064
11:11:59:296;0.19153613;10.43872;0.095768064
11:11:59:296;0.19153613;10.43872;0.095768064
11:11:59:296;0.19153613;10.43872;0.095768064
11:11:59:296;0.19153613;10.43872;0.095768064
11:11:59:296;0.19153613;10.43872;0.095768064
11:11:59:296;0.19153613;10.43872;0.095768064
11:11:59:296;0.19153613;10.43872;0.095768064
11:11:59:296;0.19153613;10.43872;0.095768064
11:11:59:296;0.19153613;10.43872;0.095768064
11:11:59:296;0.19153613;10.43872;0.095768064
11:11:59:296;0.19153613;10.43872;0.095768064
11:11:59:411;0.842759;9.80665;-0.4405331
11:11:59:411;0.842759;9.80665;-0.4405331
11:11:59:411;0.842759;9.80665;-0.4405331
11:11:59:411;0.842759;9.80665;-0.4405331
11:11:59:411;0.842759;9.80665;-0.4405331
11:11:59:411;0.842759;9.80665;-0.4405331
11:11:59:411;0.842759;9.80665;-0.4405331
11:11:59:411;0.842759;9.80665;-0.4405331
11:11:59:411;0.842759;9.80665;-0.4405331
11:11:59:411;0.842759;9.80665;-0.4405331
11:11:59:411;0.842759;9.80665;-0.4405331
11:11:59:411;0.842759;9.80665;-0.4405331
11:11:59:411;0.842759;9.80665;-0.4405331
11:11:59:515;0.5554548;9.481039;0.22984336
11:11:59:515;0.5554548;9.481039;0.22984336
11:11:59:515;0.5554548;9.481039;0.22984336
11:11:59:515;0.5554548;9.481039;0.22984336
11:11:59:515;0.5554548;9.481039;0.22984336
11:11:59:515;0.5554548;9.481039;0.22984336
11:11:59:515;0.5554548;9.481039;0.22984336
11:11:59:515;0.5554548;9.481039;0.22984336
11:11:59:515;0.5554548;9.481039;0.22984336
11:11:59:515;0.5554548;9.481039;0.22984336
11:11:59:515;0.5554548;9.481039;0.22984336
11:11:59:515;0.5554548;9.481039;0.22984336
11:11:59:515;0.5554548;9.481039;0.22984336
11:11:59:515;0.5554548;9.481039;0.22984336
11:11:59:515;0.5554548;9.481039;0.22984336
11:11:59:515;0.5554548;9.481039;0.22984336
11:11:59:639;0.78529817;9.385271;0.4213795
11:11:59:639;0.78529817;9.385271;0.4213795
11:11:59:639;0.78529817;9.385271;0.4213795
11:11:59:639;0.78529817;9.385271;0.4213795
11:11:59:639;0.78529817;9.385271;0.4213795
11:11:59:639;0.78529817;9.385271;0.4213795
11:11:59:639;0.78529817;9.385271;0.4213795
11:11:59:639;0.78529817;9.385271;0.4213795
11:11:59:639;0.78529817;9.385271;0.4213795
11:11:59:639;0.78529817;9.385271;0.4213795
11:11:59:639;0.78529817;9.385271;0.4213795
11:11:59:639;0.78529817;9.385271;0.4213795
11:11:59:639;0.78529817;9.385271;0.4213795
11:11:59:639;0.78529817;9.385271;0.4213795
11:11:59:639;0.78529817;9.385271;0.4213795
11:11:59:639;0.78529817;9.385271;0.4213795
11:11:59:758;0.5554548;9.519346;-0.30645782
11:11:59:758;0.5554548;9.519346;-0.30645782
11:11:59:758;0.5554548;9.519346;-0.30645782
11:11:59:758;0.5554548;9.519346;-0.30645782
11:11:59:758;0.5554548;9.519346;-0.30645782
11:11:59:758;0.5554548;9.519346;-0.30645782
11:11:59:758;0.5554548;9.519346;-0.30645782
11:11:59:758;0.5554548;9.519346;-0.30645782
11:11:59:758;0.5554548;9.519346;-0.30645782
11:11:59:758;0.5554548;9.519346;-0.30645782
11:11:59:758;0.5554548;9.519346;-0.30645782
11:11:59:758;0.5554548;9.519346;-0.30645782
11:11:59:758;0.5554548;9.519346;-0.30645782
11:11:59:758;0.5554548;9.519346;-0.30645782
11:11:59:758;0.5554548;9.519346;-0.30645782
11:11:59:876;0.5746084;10.515334;0.019153614
11:11:59:876;0.5746084;10.515334;0.019153614
11:11:59:876;0.5746084;10.515334;0.019153614
11:11:59:876;0.5746084;10.515334;0.019153614
11:11:59:876;0.5746084;10.515334;0.019153614
11:11:59:876;0.5746084;10.515334;0.019153614
11:11:59:876;0.5746084;10.515334;0.019153614
11:11:59:876;0.5746084;10.515334;0.019153614
11:11:59:876;0.5746084;10.515334;0.019153614
11:11:59:876;0.5746084;10.515334;0.019153614
11:11:59:876;0.5746084;10.515334;0.019153614
11:11:59:876;0.5746084;10.515334;0.019153614
11:11:59:876;0.5746084;10.515334;0.019153614
11:11:59:876;0.5746084;10.515334;0.019153614
11:11:59:876;0.5746084;10.515334;0.019153614
11:11:59:994;0.32561144;9.844957;-0.5746084
11:11:59:994;0.32561144;9.844957;-0.5746084
11:11:59:994;0.32561144;9.844957;-0.5746084
11:11:59:994;0.32561144;9.844957;-0.5746084
11:11:59:994;0.32561144;9.844957;-0.5746084
11:11:59:994;0.32561144;9.844957;-0.5746084
11:11:59:994;0.32561144;9.844957;-0.5746084
11:11:59:994;0.32561144;9.844957;-0.5746084
11:11:59:994;0.32561144;9.844957;-0.5746084
11:11:59:994;0.32561144;9.844957;-0.5746084
11:11:59:994;0.32561144;9.844957;-0.5746084
11:11:59:994;0.32561144;9.844957;-0.5746084
11:11:59:994;0.32561144;9.844957;-0.5746084
11:11:59:994;0.32561144;9.844957;-0.5746084
11:11:59:994;0.32561144;9.844957;-0.5746084
11:12:00:113;-0.1340753;10.649409;0.61291564
11:12:00:113;-0.1340753;10.649409;0.61291564
11:12:00:113;-0.1340753;10.649409;0.61291564
11:12:00:113;-0.1340753;10.649409;0.61291564
11:12:00:113;-0.1340753;10.649409;0.61291564
11:12:00:113;-0.1340753;10.649409;0.61291564
11:12:00:113;-0.1340753;10.649409;0.61291564
11:12:00:113;-0.1340753;10.649409;0.61291564
11:12:00:113;-0.1340753;10.649409;0.61291564
11:12:00:113;-0.1340753;10.649409;0.61291564
11:12:00:113;-0.1340753;10.649409;0.61291564
11:12:00:113;-0.1340753;10.649409;0.61291564
11:12:00:113;-0.1340753;10.649409;0.61291564
11:12:00:113;-0.1340753;10.649409;0.61291564
11:12:00:113;-0.1340753;10.649409;0.61291564
11:12:00:113;-0.1340753;10.649409;0.61291564
11:12:00:242;0.1340753;10.266336;-0.05746084
11:12:00:242;0.1340753;10.266336;-0.05746084
11:12:00:242;0.1340753;10.266336;-0.05746084
11:12:00:242;0.1340753;10.266336;-0.05746084
11:12:00:242;0.1340753;10.266336;-0.05746084
11:12:00:242;0.1340753;10.266336;-0.05746084
11:12:00:242;0.1340753;10.266336;-0.05746084
11:12:00:242;0.1340753;10.266336;-0.05746084
11:12:00:242;0.1340753;10.266336;-0.05746084
11:12:00:242;0.1340753;10.266336;-0.05746084
11:12:00:242;0.1340753;10.266336;-0.05746084
11:12:00:242;0.1340753;10.266336;-0.05746084
11:12:00:242;0.1340753;10.266336;-0.05746084
11:12:00:242;0.1340753;10.266336;-0.05746084
11:12:00:242;0.1340753;10.266336;-0.05746084
11:12:00:354;0.15322891;9.80665;-0.19153613
11:12:00:354;0.15322891;9.80665;-0.19153613
11:12:00:354;0.15322891;9.80665;-0.19153613
11:12:00:354;0.15322891;9.80665;-0.19153613
11:12:00:354;0.15322891;9.80665;-0.19153613
11:12:00:354;0.15322891;9.80665;-0.19153613
11:12:00:354;0.15322891;9.80665;-0.19153613
11:12:00:354;0.15322891;9.80665;-0.19153613
11:12:00:354;0.15322891;9.80665;-0.19153613
11:12:00:354;0.15322891;9.80665;-0.19153613
11:12:00:354;0.15322891;9.80665;-0.19153613
11:12:00:354;0.15322891;9.80665;-0.19153613
11:12:00:354;0.15322891;9.80665;-0.19153613
11:12:00:354;0.15322891;9.80665;-0.19153613
11:12:00:354;0.15322891;9.80665;-0.19153613
11:12:00:470;0.038307227;10.381259;-0.1340753
11:12:00:470;0.038307227;10.381259;-0.1340753
11:12:00:470;0.038307227;10.381259;-0.1340753
11:12:00:470;0.038307227;10.381259;-0.1340753
11:12:00:470;0.038307227;10.381259;-0.1340753
11:12:00:470;0.038307227;10.381259;-0.1340753
11:12:00:470;0.038307227;10.381259;-0.1340753
11:12:00:470;0.038307227;10.381259;-0.1340753
11:12:00:470;0.038307227;10.381259;-0.1340753
11:12:00:470;0.038307227;10.381259;-0.1340753
11:12:00:470;0.038307227;10.381259;-0.1340753
11:12:00:470;0.038307227;10.381259;-0.1340753
11:12:00:470;0.038307227;10.381259;-0.1340753
11:12:00:470;0.038307227;10.381259;-0.1340753
11:12:00:579;0.17238252;10.304645;0.19153613
11:12:00:579;0.17238252;10.304645;0.19153613
11:12:00:579;0.17238252;10.304645;0.19153613
11:12:00:579;0.17238252;10.304645;0.19153613
11:12:00:579;0.17238252;10.304645;0.19153613
11:12:00:579;0.17238252;10.304645;0.19153613
11:12:00:579;0.17238252;10.304645;0.19153613
11:12:00:579;0.17238252;10.304645;0.19153613
11:12:00:579;0.17238252;10.304645;0.19153613
11:12:00:579;0.17238252;10.304645;0.19153613
11:12:00:579;0.17238252;10.304645;0.19153613
11:12:00:579;0.17238252;10.304645;0.19153613
11:12:00:579;0.17238252;10.304645;0.19153613
11:12:00:579;0.17238252;10.304645;0.19153613
11:12:00:579;0.17238252;10.304645;0.19153613
11:12:00:579;0.17238252;10.304645;0.19153613
11:12:00:709;0.63206923;10.247183;-0.19153613
11:12:00:709;0.63206923;10.247183;-0.19153613
11:12:00:709;0.63206923;10.247183;-0.19153613
11:12:00:709;0.63206923;10.247183;-0.19153613
11:12:00:709;0.63206923;10.247183;-0.19153613
11:12:00:709;0.63206923;10.247183;-0.19153613
11:12:00:709;0.63206923;10.247183;-0.19153613
11:12:00:709;0.63206923;10.247183;-0.19153613
11:12:00:709;0.63206923;10.247183;-0.19153613
11:12:00:709;0.63206923;10.247183;-0.19153613
11:12:00:709;0.63206923;10.247183;-0.19153613
11:12:00:709;0.63206923;10.247183;-0.19153613
11:12:00:709;0.63206923;10.247183;-0.19153613
11:12:00:709;0.63206923;10.247183;-0.19153613
11:12:00:818;0.45968673;10.323798;-0.82360536
11:12:00:818;0.45968673;10.323798;-0.82360536
11:12:00:818;0.45968673;10.323798;-0.82360536
11:12:00:818;0.45968673;10.323798;-0.82360536
11:12:00:818;0.45968673;10.323798;-0.82360536
11:12:00:818;0.45968673;10.323798;-0.82360536
11:12:00:818;0.45968673;10.323798;-0.82360536
11:12:00:818;0.45968673;10.323798;-0.82360536
11:12:00:818;0.45968673;10.323798;-0.82360536
11:12:00:818;0.45968673;10.323798;-0.82360536
11:12:00:818;0.45968673;10.323798;-0.82360536
11:12:00:818;0.45968673;10.323798;-0.82360536
11:12:00:818;0.45968673;10.323798;-0.82360536
11:12:00:920;0.63206923;8.580819;-1.4939818
11:12:00:920;0.63206923;8.580819;-1.4939818
11:12:00:920;0.63206923;8.580819;-1.4939818
11:12:00:920;0.63206923;8.580819;-1.4939818
11:12:00:920;0.63206923;8.580819;-1.4939818
11:12:00:920;0.63206923;8.580819;-1.4939818
11:12:00:920;0.63206923;8.580819;-1.4939818
11:12:00:920;0.63206923;8.580819;-1.4939818
11:12:00:920;0.63206923;8.580819;-1.4939818
11:12:00:920;0.63206923;8.580819;-1.4939818
11:12:00:920;0.63206923;8.580819;-1.4939818
11:12:00:920;0.63206923;8.580819;-1.4939818
11:12:00:920;0.63206923;8.580819;-1.4939818
11:12:00:920;0.63206923;8.580819;-1.4939818
11:12:00:920;0.63206923;8.580819;-1.4939818
11:12:01:038;-0.6703765;9.959879;-0.076614454
11:12:01:038;-0.6703765;9.959879;-0.076614454
11:12:01:038;-0.6703765;9.959879;-0.076614454
11:12:01:038;-0.6703765;9.959879;-0.076614454
11:12:01:038;-0.6703765;9.959879;-0.076614454
11:12:01:038;-0.6703765;9.959879;-0.076614454
11:12:01:038;-0.6703765;9.959879;-0.076614454
11:12:01:038;-0.6703765;9.959879;-0.076614454
11:12:01:038;-0.6703765;9.959879;-0.076614454
11:12:01:038;-0.6703765;9.959879;-0.076614454
11:12:01:038;-0.6703765;9.959879;-0.076614454
11:12:01:038;-0.6703765;9.959879;-0.076614454
11:12:01:038;-0.6703765;9.959879;-0.076614454
11:12:01:140;0.17238252;9.653421;-0.038307227
11:12:01:140;0.17238252;9.653421;-0.038307227
11:12:01:140;0.17238252;9.653421;-0.038307227
11:12:01:140;0.17238252;9.653421;-0.038307227
11:12:01:140;0.17238252;9.653421;-0.038307227
11:12:01:140;0.17238252;9.653421;-0.038307227
11:12:01:140;0.17238252;9.653421;-0.038307227
11:12:01:140;0.17238252;9.653421;-0.038307227
11:12:01:140;0.17238252;9.653421;-0.038307227
11:12:01:140;0.17238252;9.653421;-0.038307227
11:12:01:140;0.17238252;9.653421;-0.038307227
11:12:01:140;0.17238252;9.653421;-0.038307227
11:12:01:140;0.17238252;9.653421;-0.038307227
11:12:01:140;0.17238252;9.653421;-0.038307227
11:12:01:140;0.17238252;9.653421;-0.038307227
11:12:01:140;0.17238252;9.653421;-0.038307227
11:12:01:260;-0.80445176;10.342952;-0.32561144
11:12:01:260;-0.80445176;10.342952;-0.32561144
11:12:01:260;-0.80445176;10.342952;-0.32561144
11:12:01:260;-0.80445176;10.342952;-0.32561144
11:12:01:260;-0.80445176;10.342952;-0.32561144
11:12:01:260;-0.80445176;10.342952;-0.32561144
11:12:01:260;-0.80445176;10.342952;-0.32561144
11:12:01:260;-0.80445176;10.342952;-0.32561144
11:12:01:260;-0.80445176;10.342952;-0.32561144
11:12:01:260;-0.80445176;10.342952;-0.32561144
11:12:01:260;-0.80445176;10.342952;-0.32561144
11:12:01:260;-0.80445176;10.342952;-0.32561144
11:12:01:260;-0.80445176;10.342952;-0.32561144
11:12:01:260;-0.80445176;10.342952;-0.32561144
11:12:01:260;-0.80445176;10.342952;-0.32561144
11:12:01:377;-0.36391866;10.668563;-1.0726024
11:12:01:377;-0.36391866;10.668563;-1.0726024
11:12:01:377;-0.36391866;10.668563;-1.0726024
11:12:01:377;-0.36391866;10.668563;-1.0726024
11:12:01:377;-0.36391866;10.668563;-1.0726024
11:12:01:377;-0.36391866;10.668563;-1.0726024
11:12:01:377;-0.36391866;10.668563;-1.0726024
11:12:01:377;-0.36391866;10.668563;-1.0726024
11:12:01:377;-0.36391866;10.668563;-1.0726024
11:12:01:377;-0.36391866;10.668563;-1.0726024
11:12:01:377;-0.36391866;10.668563;-1.0726024
11:12:01:377;-0.36391866;10.668563;-1.0726024
11:12:01:377;-0.36391866;10.668563;-1.0726024
11:12:01:377;-0.36391866;10.668563;-1.0726024
11:12:01:377;-0.36391866;10.668563;-1.0726024
11:12:01:495;-0.7086837;10.534488;0.7278373
11:12:01:495;-0.7086837;10.534488;0.7278373
11:12:01:495;-0.7086837;10.534488;0.7278373
11:12:01:495;-0.7086837;10.534488;0.7278373
11:12:01:495;-0.7086837;10.534488;0.7278373
11:12:01:495;-0.7086837;10.534488;0.7278373
11:12:01:495;-0.7086837;10.534488;0.7278373
11:12:01:495;-0.7086837;10.534488;0.7278373
11:12:01:495;-0.7086837;10.534488;0.7278373
11:12:01:495;-0.7086837;10.534488;0.7278373
11:12:01:495;-0.7086837;10.534488;0.7278373
11:12:01:495;-0.7086837;10.534488;0.7278373
11:12:01:495;-0.7086837;10.534488;0.7278373
11:12:01:596;-0.34476504;10.457873;-0.9576807
11:12:01:596;-0.34476504;10.457873;-0.9576807
11:12:01:596;-0.34476504;10.457873;-0.9576807
11:12:01:596;-0.34476504;10.457873;-0.9576807
11:12:01:596;-0.34476504;10.457873;-0.9576807
11:12:01:596;-0.34476504;10.457873;-0.9576807
11:12:01:596;-0.34476504;10.457873;-0.9576807
11:12:01:596;-0.34476504;10.457873;-0.9576807
11:12:01:596;-0.34476504;10.457873;-0.9576807
11:12:01:596;-0.34476504;10.457873;-0.9576807
11:12:01:596;-0.34476504;10.457873;-0.9576807
11:12:01:596;-0.34476504;10.457873;-0.9576807
11:12:01:596;-0.34476504;10.457873;-0.9576807
11:12:01:596;-0.34476504;10.457873;-0.9576807
11:12:01:704;-0.19153613;10.036493;-0.9768343
11:12:01:704;-0.19153613;10.036493;-0.9768343
11:12:01:704;-0.19153613;10.036493;-0.9768343
11:12:01:704;-0.19153613;10.036493;-0.9768343
11:12:01:704;-0.19153613;10.036493;-0.9768343
11:12:01:704;-0.19153613;10.036493;-0.9768343
11:12:01:704;-0.19153613;10.036493;-0.9768343
11:12:01:704;-0.19153613;10.036493;-0.9768343
11:12:01:704;-0.19153613;10.036493;-0.9768343
11:12:01:704;-0.19153613;10.036493;-0.9768343
11:12:01:704;-0.19153613;10.036493;-0.9768343
11:12:01:704;-0.19153613;10.036493;-0.9768343
11:12:01:704;-0.19153613;10.036493;-0.9768343
11:12:01:704;-0.19153613;10.036493;-0.9768343
11:12:01:704;-0.19153613;10.036493;-0.9768343
11:12:01:704;-0.19153613;10.036493;-0.9768343
11:12:01:704;-0.19153613;10.036493;-0.9768343
11:12:01:839;0.19153613;10.093954;-0.095768064
11:12:01:839;0.19153613;10.093954;-0.095768064
11:12:01:839;0.19153613;10.093954;-0.095768064
11:12:01:839;0.19153613;10.093954;-0.095768064
11:12:01:839;0.19153613;10.093954;-0.095768064
11:12:01:839;0.19153613;10.093954;-0.095768064
11:12:01:839;0.19153613;10.093954;-0.095768064
11:12:01:839;0.19153613;10.093954;-0.095768064
11:12:01:839;0.19153613;10.093954;-0.095768064
11:12:01:839;0.19153613;10.093954;-0.095768064
11:12:01:839;0.19153613;10.093954;-0.095768064
11:12:01:839;0.19153613;10.093954;-0.095768064
11:12:01:839;0.19153613;10.093954;-0.095768064
11:12:01:942;0.842759;9.959879;-0.5363012
11:12:01:942;0.842759;9.959879;-0.5363012
11:12:01:942;0.842759;9.959879;-0.5363012
11:12:01:942;0.842759;9.959879;-0.5363012
11:12:01:942;0.842759;9.959879;-0.5363012
11:12:01:942;0.842759;9.959879;-0.5363012
11:12:01:942;0.842759;9.959879;-0.5363012
11:12:01:942;0.842759;9.959879;-0.5363012
11:12:01:942;0.842759;9.959879;-0.5363012
11:12:01:942;0.842759;9.959879;-0.5363012
11:12:01:942;0.842759;9.959879;-0.5363012
11:12:01:942;0.842759;9.959879;-0.5363012
11:12:01:942;0.842759;9.959879;-0.5363012
11:12:01:942;0.842759;9.959879;-0.5363012
11:12:01:942;0.842759;9.959879;-0.5363012
11:12:02:058;-0.22984336;10.055647;0.4405331
11:12:02:058;-0.22984336;10.055647;0.4405331
11:12:02:058;-0.22984336;10.055647;0.4405331
11:12:02:058;-0.22984336;10.055647;0.4405331
11:12:02:058;-0.22984336;10.055647;0.4405331
11:12:02:058;-0.22984336;10.055647;0.4405331
11:12:02:058;-0.22984336;10.055647;0.4405331
11:12:02:058;-0.22984336;10.055647;0.4405331
11:12:02:058;-0.22984336;10.055647;0.4405331
11:12:02:058;-0.22984336;10.055647;0.4405331
11:12:02:058;-0.22984336;10.055647;0.4405331
11:12:02:058;-0.22984336;10.055647;0.4405331
11:12:02:058;-0.22984336;10.055647;0.4405331
11:12:02:058;-0.22984336;10.055647;0.4405331
11:12:02:058;-0.22984336;10.055647;0.4405331
11:12:02:058;-0.22984336;10.055647;0.4405331
11:12:02:058;-0.22984336;10.055647;0.4405331
11:12:02:193;-0.5363012;9.768343;0.2681506
11:12:02:193;-0.5363012;9.768343;0.2681506
11:12:02:193;-0.5363012;9.768343;0.2681506
11:12:02:193;-0.5363012;9.768343;0.2681506
11:12:02:193;-0.5363012;9.768343;0.2681506
11:12:02:193;-0.5363012;9.768343;0.2681506
11:12:02:193;-0.5363012;9.768343;0.2681506
11:12:02:193;-0.5363012;9.768343;0.2681506
11:12:02:193;-0.5363012;9.768343;0.2681506
11:12:02:193;-0.5363012;9.768343;0.2681506
11:12:02:193;-0.5363012;9.768343;0.2681506
11:12:02:193;-0.5363012;9.768343;0.2681506
11:12:02:193;-0.5363012;9.768343;0.2681506
11:12:02:295;0.11492168;9.883265;-0.80445176
11:12:02:295;0.11492168;9.883265;-0.80445176
11:12:02:295;0.11492168;9.883265;-0.80445176
11:12:02:295;0.11492168;9.883265;-0.80445176
11:12:02:295;0.11492168;9.883265;-0.80445176
11:12:02:295;0.11492168;9.883265;-0.80445176
11:12:02:295;0.11492168;9.883265;-0.80445176
11:12:02:295;0.11492168;9.883265;-0.80445176
11:12:02:295;0.11492168;9.883265;-0.80445176
11:12:02:295;0.11492168;9.883265;-0.80445176
11:12:02:295;0.11492168;9.883265;-0.80445176
11:12:02:295;0.11492168;9.883265;-0.80445176
11:12:02:295;0.11492168;9.883265;-0.80445176
11:12:02:295;0.11492168;9.883265;-0.80445176
11:12:02:295;0.11492168;9.883265;-0.80445176
11:12:02:412;-0.40222588;11.224017;0.40222588
11:12:02:412;-0.40222588;11.224017;0.40222588
11:12:02:412;-0.40222588;11.224017;0.40222588
11:12:02:412;-0.40222588;11.224017;0.40222588
11:12:02:412;-0.40222588;11.224017;0.40222588
11:12:02:412;-0.40222588;11.224017;0.40222588
11:12:02:412;-0.40222588;11.224017;0.40222588
11:12:02:412;-0.40222588;11.224017;0.40222588
11:12:02:412;-0.40222588;11.224017;0.40222588
11:12:02:412;-0.40222588;11.224017;0.40222588
11:12:02:412;-0.40222588;11.224017;0.40222588
11:12:02:412;-0.40222588;11.224017;0.40222588
11:12:02:412;-0.40222588;11.224017;0.40222588
11:12:02:412;-0.40222588;11.224017;0.40222588
11:12:02:412;-0.40222588;11.224017;0.40222588
11:12:02:412;-0.40222588;11.224017;0.40222588
11:12:02:412;-0.40222588;11.224017;0.40222588
11:12:02:545;0.30645782;10.113108;-1.0534488
11:12:02:545;0.30645782;10.113108;-1.0534488
11:12:02:545;0.30645782;10.113108;-1.0534488
11:12:02:545;0.30645782;10.113108;-1.0534488
11:12:02:545;0.30645782;10.113108;-1.0534488
11:12:02:545;0.30645782;10.113108;-1.0534488
11:12:02:545;0.30645782;10.113108;-1.0534488
11:12:02:545;0.30645782;10.113108;-1.0534488
11:12:02:545;0.30645782;10.113108;-1.0534488
11:12:02:545;0.30645782;10.113108;-1.0534488
11:12:02:545;0.30645782;10.113108;-1.0534488
11:12:02:545;0.30645782;10.113108;-1.0534488
11:12:02:545;0.30645782;10.113108;-1.0534488
11:12:02:545;0.30645782;10.113108;-1.0534488
11:12:02:655;-0.076614454;8.082825;-0.30645782
11:12:02:655;-0.076614454;8.082825;-0.30645782
11:12:02:655;-0.076614454;8.082825;-0.30645782
11:12:02:655;-0.076614454;8.082825;-0.30645782
11:12:02:655;-0.076614454;8.082825;-0.30645782
11:12:02:655;-0.076614454;8.082825;-0.30645782
11:12:02:655;-0.076614454;8.082825;-0.30645782
11:12:02:655;-0.076614454;8.082825;-0.30645782
11:12:02:655;-0.076614454;8.082825;-0.30645782
11:12:02:655;-0.076614454;8.082825;-0.30645782
11:12:02:655;-0.076614454;8.082825;-0.30645782
11:12:02:655;-0.076614454;8.082825;-0.30645782
11:12:02:655;-0.076614454;8.082825;-0.30645782
11:12:02:757;-0.05746084;10.553641;-0.40222588
11:12:02:757;-0.05746084;10.553641;-0.40222588
11:12:02:757;-0.05746084;10.553641;-0.40222588
11:12:02:757;-0.05746084;10.553641;-0.40222588
11:12:02:757;-0.05746084;10.553641;-0.40222588
11:12:02:757;-0.05746084;10.553641;-0.40222588
11:12:02:757;-0.05746084;10.553641;-0.40222588
11:12:02:757;-0.05746084;10.553641;-0.40222588
11:12:02:757;-0.05746084;10.553641;-0.40222588
11:12:02:757;-0.05746084;10.553641;-0.40222588
11:12:02:757;-0.05746084;10.553641;-0.40222588
11:12:02:757;-0.05746084;10.553641;-0.40222588
11:12:02:757;-0.05746084;10.553641;-0.40222588
11:12:02:757;-0.05746084;10.553641;-0.40222588
11:12:02:757;-0.05746084;10.553641;-0.40222588
11:12:02:757;-0.05746084;10.553641;-0.40222588
11:12:02:757;-0.05746084;10.553641;-0.40222588
11:12:02:885;-0.842759;10.572795;-0.9959879
11:12:02:885;-0.842759;10.572795;-0.9959879
11:12:02:885;-0.842759;10.572795;-0.9959879
11:12:02:885;-0.842759;10.572795;-0.9959879
11:12:02:885;-0.842759;10.572795;-0.9959879
11:12:02:885;-0.842759;10.572795;-0.9959879
11:12:02:885;-0.842759;10.572795;-0.9959879
11:12:02:885;-0.842759;10.572795;-0.9959879
11:12:02:885;-0.842759;10.572795;-0.9959879
11:12:02:885;-0.842759;10.572795;-0.9959879
11:12:02:885;-0.842759;10.572795;-0.9959879
11:12:02:885;-0.842759;10.572795;-0.9959879
11:12:02:885;-0.842759;10.572795;-0.9959879
11:12:02:885;-0.842759;10.572795;-0.9959879
11:12:02:996;0.6895301;10.01734;-1.0151415
11:12:02:996;0.6895301;10.01734;-1.0151415
11:12:02:996;0.6895301;10.01734;-1.0151415
11:12:02:996;0.6895301;10.01734;-1.0151415
11:12:02:996;0.6895301;10.01734;-1.0151415
11:12:02:996;0.6895301;10.01734;-1.0151415
11:12:02:996;0.6895301;10.01734;-1.0151415
11:12:02:996;0.6895301;10.01734;-1.0151415
11:12:02:996;0.6895301;10.01734;-1.0151415
11:12:02:996;0.6895301;10.01734;-1.0151415
11:12:02:996;0.6895301;10.01734;-1.0151415
11:12:02:996;0.6895301;10.01734;-1.0151415
11:12:02:996;0.6895301;10.01734;-1.0151415
11:12:02:996;0.6895301;10.01734;-1.0151415
11:12:02:996;0.6895301;10.01734;-1.0151415
11:12:02:996;0.6895301;10.01734;-1.0151415
11:12:02:996;0.6895301;10.01734;-1.0151415
11:12:02:996;0.6895301;10.01734;-1.0151415
11:12:03:133;0.30645782;10.477027;-1.6089035
11:12:03:133;0.30645782;10.477027;-1.6089035
11:12:03:133;0.30645782;10.477027;-1.6089035
11:12:03:133;0.30645782;10.477027;-1.6089035
11:12:03:133;0.30645782;10.477027;-1.6089035
11:12:03:133;0.30645782;10.477027;-1.6089035
11:12:03:133;0.30645782;10.477027;-1.6089035
11:12:03:133;0.30645782;10.477027;-1.6089035
11:12:03:133;0.30645782;10.477027;-1.6089035
11:12:03:133;0.30645782;10.477027;-1.6089035
11:12:03:133;0.30645782;10.477027;-1.6089035
11:12:03:133;0.30645782;10.477027;-1.6089035
11:12:03:133;0.30645782;10.477027;-1.6089035
11:12:03:133;0.30645782;10.477027;-1.6089035
11:12:03:133;0.30645782;10.477027;-1.6089035
11:12:03:133;0.30645782;10.477027;-1.6089035
11:12:03:258;-0.61291564;9.825804;-0.038307227
11:12:03:258;-0.61291564;9.825804;-0.038307227
11:12:03:258;-0.61291564;9.825804;-0.038307227
11:12:03:258;-0.61291564;9.825804;-0.038307227
11:12:03:258;-0.61291564;9.825804;-0.038307227
11:12:03:258;-0.61291564;9.825804;-0.038307227
11:12:03:258;-0.61291564;9.825804;-0.038307227
11:12:03:258;-0.61291564;9.825804;-0.038307227
11:12:03:258;-0.61291564;9.825804;-0.038307227
11:12:03:258;-0.61291564;9.825804;-0.038307227
11:12:03:258;-0.61291564;9.825804;-0.038307227
11:12:03:258;-0.61291564;9.825804;-0.038307227
11:12:03:258;-0.61291564;9.825804;-0.038307227
11:12:03:360;-0.49799395;10.821792;0.59376204
11:12:03:360;-0.49799395;10.821792;0.59376204
11:12:03:360;-0.49799395;10.821792;0.59376204
11:12:03:360;-0.49799395;10.821792;0.59376204
11:12:03:360;-0.49799395;10.821792;0.59376204
11:12:03:360;-0.49799395;10.821792;0.59376204
11:12:03:360;-0.49799395;10.821792;0.59376204
11:12:03:360;-0.49799395;10.821792;0.59376204
11:12:03:360;-0.49799395;10.821792;0.59376204
11:12:03:360;-0.49799395;10.821792;0.59376204
11:12:03:360;-0.49799395;10.821792;0.59376204
11:12:03:360;-0.49799395;10.821792;0.59376204
11:12:03:360;-0.49799395;10.821792;0.59376204
11:12:03:464;0.47884035;11.204864;-0.095768064
11:12:03:464;0.47884035;11.204864;-0.095768064
11:12:03:464;0.47884035;11.204864;-0.095768064
11:12:03:464;0.47884035;11.204864;-0.095768064
11:12:03:464;0.47884035;11.204864;-0.095768064
11:12:03:464;0.47884035;11.204864;-0.095768064
11:12:03:464;0.47884035;11.204864;-0.095768064
11:12:03:464;0.47884035;11.204864;-0.095768064
11:12:03:464;0.47884035;11.204864;-0.095768064
11:12:03:464;0.47884035;11.204864;-0.095768064
11:12:03:464;0.47884035;11.204864;-0.095768064
11:12:03:464;0.47884035;11.204864;-0.095768064
11:12:03:464;0.47884035;11.204864;-0.095768064
11:12:03:464;0.47884035;11.204864;-0.095768064
11:12:03:464;0.47884035;11.204864;-0.095768064
11:12:03:579;0.076614454;10.802638;-0.842759
11:12:03:579;0.076614454;10.802638;-0.842759
11:12:03:579;0.076614454;10.802638;-0.842759
11:12:03:579;0.076614454;10.802638;-0.842759
11:12:03:579;0.076614454;10.802638;-0.842759
11:12:03:579;0.076614454;10.802638;-0.842759
11:12:03:579;0.076614454;10.802638;-0.842759
11:12:03:579;0.076614454;10.802638;-0.842759
11:12:03:579;0.076614454;10.802638;-0.842759
11:12:03:579;0.076614454;10.802638;-0.842759
11:12:03:579;0.076614454;10.802638;-0.842759
11:12:03:579;0.076614454;10.802638;-0.842759
11:12:03:579;0.076614454;10.802638;-0.842759
11:12:03:579;0.076614454;10.802638;-0.842759
11:12:03:695;-0.32561144;10.113108;0.095768064
11:12:03:695;-0.32561144;10.113108;0.095768064
11:12:03:695;-0.32561144;10.113108;0.095768064
11:12:03:695;-0.32561144;10.113108;0.095768064
11:12:03:695;-0.32561144;10.113108;0.095768064
11:12:03:695;-0.32561144;10.113108;0.095768064
11:12:03:695;-0.32561144;10.113108;0.095768064
11:12:03:695;-0.32561144;10.113108;0.095768064
11:12:03:695;-0.32561144;10.113108;0.095768064
11:12:03:695;-0.32561144;10.113108;0.095768064
11:12:03:695;-0.32561144;10.113108;0.095768064
11:12:03:695;-0.32561144;10.113108;0.095768064
11:12:03:695;-0.32561144;10.113108;0.095768064
11:12:03:796;0.32561144;9.11712;0.7278373
11:12:03:796;0.32561144;9.11712;0.7278373
11:12:03:796;0.32561144;9.11712;0.7278373
11:12:03:796;0.32561144;9.11712;0.7278373
11:12:03:796;0.32561144;9.11712;0.7278373
11:12:03:796;0.32561144;9.11712;0.7278373
11:12:03:796;0.32561144;9.11712;0.7278373
11:12:03:796;0.32561144;9.11712;0.7278373
11:12:03:796;0.32561144;9.11712;0.7278373
11:12:03:796;0.32561144;9.11712;0.7278373
11:12:03:796;0.32561144;9.11712;0.7278373
11:12:03:796;0.32561144;9.11712;0.7278373
11:12:03:796;0.32561144;9.11712;0.7278373
11:12:03:796;0.32561144;9.11712;0.7278373
11:12:03:796;0.32561144;9.11712;0.7278373
11:12:03:796;0.32561144;9.11712;0.7278373
11:12:03:796;0.32561144;9.11712;0.7278373
11:12:03:796;0.32561144;9.11712;0.7278373
11:12:03:796;0.32561144;9.11712;0.7278373
11:12:03:796;0.32561144;9.11712;0.7278373
11:12:03:796;0.32561144;9.11712;0.7278373
11:12:03:957;-0.6895301;10.496181;-0.30645782
11:12:03:957;-0.6895301;10.496181;-0.30645782
11:12:03:957;-0.6895301;10.496181;-0.30645782
11:12:03:957;-0.6895301;10.496181;-0.30645782
11:12:03:957;-0.6895301;10.496181;-0.30645782
11:12:03:957;-0.6895301;10.496181;-0.30645782
11:12:03:957;-0.6895301;10.496181;-0.30645782
11:12:03:957;-0.6895301;10.496181;-0.30645782
11:12:03:957;-0.6895301;10.496181;-0.30645782
11:12:03:957;-0.6895301;10.496181;-0.30645782
11:12:03:957;-0.6895301;10.496181;-0.30645782
11:12:03:957;-0.6895301;10.496181;-0.30645782
11:12:03:957;-0.6895301;10.496181;-0.30645782
11:12:03:957;-0.6895301;10.496181;-0.30645782
11:12:04:069;-0.8619126;11.683704;0.24899697
11:12:04:069;-0.8619126;11.683704;0.24899697
11:12:04:069;-0.8619126;11.683704;0.24899697
11:12:04:069;-0.8619126;11.683704;0.24899697
11:12:04:069;-0.8619126;11.683704;0.24899697
11:12:04:069;-0.8619126;11.683704;0.24899697
11:12:04:069;-0.8619126;11.683704;0.24899697
11:12:04:069;-0.8619126;11.683704;0.24899697
11:12:04:069;-0.8619126;11.683704;0.24899697
11:12:04:069;-0.8619126;11.683704;0.24899697
11:12:04:069;-0.8619126;11.683704;0.24899697
11:12:04:069;-0.8619126;11.683704;0.24899697
11:12:04:069;-0.8619126;11.683704;0.24899697
11:12:04:069;-0.8619126;11.683704;0.24899697
11:12:04:069;-0.8619126;11.683704;0.24899697
11:12:04:069;-0.8619126;11.683704;0.24899697
11:12:04:069;-0.8619126;11.683704;0.24899697
11:12:04:069;-0.8619126;11.683704;0.24899697
11:12:04:069;-0.8619126;11.683704;0.24899697
11:12:04:212;-0.11492168;9.768343;-0.38307226
11:12:04:212;-0.11492168;9.768343;-0.38307226
11:12:04:212;-0.11492168;9.768343;-0.38307226
11:12:04:212;-0.11492168;9.768343;-0.38307226
11:12:04:212;-0.11492168;9.768343;-0.38307226
11:12:04:212;-0.11492168;9.768343;-0.38307226
11:12:04:212;-0.11492168;9.768343;-0.38307226
11:12:04:212;-0.11492168;9.768343;-0.38307226
11:12:04:212;-0.11492168;9.768343;-0.38307226
11:12:04:212;-0.11492168;9.768343;-0.38307226
11:12:04:212;-0.11492168;9.768343;-0.38307226
11:12:04:212;-0.11492168;9.768343;-0.38307226
11:12:04:212;-0.11492168;9.768343;-0.38307226
11:12:04:212;-0.11492168;9.768343;-0.38307226
11:12:04:212;-0.11492168;9.768343;-0.38307226
11:12:04:331;0.6703765;9.749189;-0.40222588
11:12:04:331;0.6703765;9.749189;-0.40222588
11:12:04:331;0.6703765;9.749189;-0.40222588
11:12:04:331;0.6703765;9.749189;-0.40222588
11:12:04:331;0.6703765;9.749189;-0.40222588
11:12:04:331;0.6703765;9.749189;-0.40222588
11:12:04:331;0.6703765;9.749189;-0.40222588
11:12:04:331;0.6703765;9.749189;-0.40222588
11:12:04:331;0.6703765;9.749189;-0.40222588
11:12:04:331;0.6703765;9.749189;-0.40222588
11:12:04:331;0.6703765;9.749189;-0.40222588
11:12:04:331;0.6703765;9.749189;-0.40222588
11:12:04:331;0.6703765;9.749189;-0.40222588
11:12:04:433;0.4405331;9.768343;0.7469909
11:12:04:433;0.4405331;9.768343;0.7469909
11:12:04:433;0.4405331;9.768343;0.7469909
11:12:04:433;0.4405331;9.768343;0.7469909
11:12:04:433;0.4405331;9.768343;0.7469909
11:12:04:433;0.4405331;9.768343;0.7469909
11:12:04:433;0.4405331;9.768343;0.7469909
11:12:04:433;0.4405331;9.768343;0.7469909
11:12:04:433;0.4405331;9.768343;0.7469909
11:12:04:433;0.4405331;9.768343;0.7469909
11:12:04:433;0.4405331;9.768343;0.7469909
11:12:04:433;0.4405331;9.768343;0.7469909
11:12:04:433;0.4405331;9.768343;0.7469909
11:12:04:433;0.4405331;9.768343;0.7469909
11:12:04:433;0.4405331;9.768343;0.7469909
11:12:04:433;0.4405331;9.768343;0.7469909
11:12:04:433;0.4405331;9.768343;0.7469909
11:12:04:433;0.4405331;9.768343;0.7469909
11:12:04:433;0.4405331;9.768343;0.7469909
11:12:04:433;0.4405331;9.768343;0.7469909
11:12:04:433;0.4405331;9.768343;0.7469909
11:12:04:433;0.4405331;9.768343;0.7469909
11:12:04:433;0.4405331;9.768343;0.7469909
11:12:04:433;0.4405331;9.768343;0.7469909
11:12:04:622;0.5554548;9.634268;-0.8619126
11:12:04:622;0.5554548;9.634268;-0.8619126
11:12:04:622;0.5554548;9.634268;-0.8619126
11:12:04:622;0.5554548;9.634268;-0.8619126
11:12:04:622;0.5554548;9.634268;-0.8619126
11:12:04:622;0.5554548;9.634268;-0.8619126
11:12:04:622;0.5554548;9.634268;-0.8619126
11:12:04:622;0.5554548;9.634268;-0.8619126
11:12:04:622;0.5554548;9.634268;-0.8619126
11:12:04:622;0.5554548;9.634268;-0.8619126
11:12:04:622;0.5554548;9.634268;-0.8619126
11:12:04:622;0.5554548;9.634268;-0.8619126
11:12:04:622;0.5554548;9.634268;-0.8619126
11:12:04:622;0.5554548;9.634268;-0.8619126
11:12:04:622;0.5554548;9.634268;-0.8619126
11:12:04:739;0.19153613;8.868123;0.30645782
11:12:04:739;0.19153613;8.868123;0.30645782
11:12:04:739;0.19153613;8.868123;0.30645782
11:12:04:739;0.19153613;8.868123;0.30645782
11:12:04:739;0.19153613;8.868123;0.30645782
11:12:04:739;0.19153613;8.868123;0.30645782
11:12:04:739;0.19153613;8.868123;0.30645782
11:12:04:739;0.19153613;8.868123;0.30645782
11:12:04:739;0.19153613;8.868123;0.30645782
11:12:04:739;0.19153613;8.868123;0.30645782
11:12:04:739;0.19153613;8.868123;0.30645782
11:12:04:739;0.19153613;8.868123;0.30645782
11:12:04:739;0.19153613;8.868123;0.30645782
11:12:04:739;0.19153613;8.868123;0.30645782
11:12:04:739;0.19153613;8.868123;0.30645782
11:12:04:857;0.78529817;9.308656;0.4405331
11:12:04:857;0.78529817;9.308656;0.4405331
11:12:04:857;0.78529817;9.308656;0.4405331
11:12:04:857;0.78529817;9.308656;0.4405331
11:12:04:857;0.78529817;9.308656;0.4405331
11:12:04:857;0.78529817;9.308656;0.4405331
11:12:04:857;0.78529817;9.308656;0.4405331
11:12:04:857;0.78529817;9.308656;0.4405331
11:12:04:857;0.78529817;9.308656;0.4405331
11:12:04:857;0.78529817;9.308656;0.4405331
11:12:04:857;0.78529817;9.308656;0.4405331
11:12:04:857;0.78529817;9.308656;0.4405331
11:12:04:857;0.78529817;9.308656;0.4405331
11:12:04:857;0.78529817;9.308656;0.4405331
11:12:04:965;0.5746084;10.783484;-0.82360536
11:12:04:965;0.5746084;10.783484;-0.82360536
11:12:04:965;0.5746084;10.783484;-0.82360536
11:12:04:965;0.5746084;10.783484;-0.82360536
11:12:04:965;0.5746084;10.783484;-0.82360536
11:12:04:965;0.5746084;10.783484;-0.82360536
11:12:04:965;0.5746084;10.783484;-0.82360536
11:12:04:965;0.5746084;10.783484;-0.82360536
11:12:04:965;0.5746084;10.783484;-0.82360536
11:12:04:965;0.5746084;10.783484;-0.82360536
11:12:04:965;0.5746084;10.783484;-0.82360536
11:12:04:965;0.5746084;10.783484;-0.82360536
11:12:04:965;0.5746084;10.783484;-0.82360536
11:12:04:965;0.5746084;10.783484;-0.82360536
11:12:05:073;-0.2681506;9.021352;-0.2681506
11:12:05:073;-0.2681506;9.021352;-0.2681506
11:12:05:073;-0.2681506;9.021352;-0.2681506
11:12:05:073;-0.2681506;9.021352;-0.2681506
11:12:05:073;-0.2681506;9.021352;-0.2681506
11:12:05:073;-0.2681506;9.021352;-0.2681506
11:12:05:073;-0.2681506;9.021352;-0.2681506
11:12:05:073;-0.2681506;9.021352;-0.2681506
11:12:05:073;-0.2681506;9.021352;-0.2681506
11:12:05:073;-0.2681506;9.021352;-0.2681506
11:12:05:073;-0.2681506;9.021352;-0.2681506
11:12:05:073;-0.2681506;9.021352;-0.2681506
11:12:05:073;-0.2681506;9.021352;-0.2681506
11:12:05:073;-0.2681506;9.021352;-0.2681506
11:12:05:073;-0.2681506;9.021352;-0.2681506
11:12:05:190;0.9959879;9.461885;-0.93852705
11:12:05:190;0.9959879;9.461885;-0.93852705
11:12:05:190;0.9959879;9.461885;-0.93852705
11:12:05:190;0.9959879;9.461885;-0.93852705
11:12:05:190;0.9959879;9.461885;-0.93852705
11:12:05:190;0.9959879;9.461885;-0.93852705
11:12:05:190;0.9959879;9.461885;-0.93852705
11:12:05:190;0.9959879;9.461885;-0.93852705
11:12:05:190;0.9959879;9.461885;-0.93852705
11:12:05:190;0.9959879;9.461885;-0.93852705
11:12:05:190;0.9959879;9.461885;-0.93852705
11:12:05:190;0.9959879;9.461885;-0.93852705
11:12:05:190;0.9959879;9.461885;-0.93852705
11:12:05:295;0.4213795;9.500193;0.842759
11:12:05:295;0.4213795;9.500193;0.842759
11:12:05:295;0.4213795;9.500193;0.842759
11:12:05:295;0.4213795;9.500193;0.842759
11:12:05:295;0.4213795;9.500193;0.842759
11:12:05:295;0.4213795;9.500193;0.842759
11:12:05:295;0.4213795;9.500193;0.842759
11:12:05:295;0.4213795;9.500193;0.842759
11:12:05:295;0.4213795;9.500193;0.842759
11:12:05:295;0.4213795;9.500193;0.842759
11:12:05:295;0.4213795;9.500193;0.842759
11:12:05:295;0.4213795;9.500193;0.842759
11:12:05:295;0.4213795;9.500193;0.842759
11:12:05:295;0.4213795;9.500193;0.842759
11:12:05:295;0.4213795;9.500193;0.842759
11:12:05:295;0.4213795;9.500193;0.842759
11:12:05:415;0.6703765;9.672575;-0.5363012
11:12:05:415;0.6703765;9.672575;-0.5363012
11:12:05:415;0.6703765;9.672575;-0.5363012
11:12:05:415;0.6703765;9.672575;-0.5363012
11:12:05:415;0.6703765;9.672575;-0.5363012
11:12:05:415;0.6703765;9.672575;-0.5363012
11:12:05:415;0.6703765;9.672575;-0.5363012
11:12:05:415;0.6703765;9.672575;-0.5363012
11:12:05:415;0.6703765;9.672575;-0.5363012
11:12:05:415;0.6703765;9.672575;-0.5363012
11:12:05:415;0.6703765;9.672575;-0.5363012
11:12:05:415;0.6703765;9.672575;-0.5363012
11:12:05:415;0.6703765;9.672575;-0.5363012
11:12:05:415;0.6703765;9.672575;-0.5363012
11:12:05:415;0.6703765;9.672575;-0.5363012
11:12:05:415;0.6703765;9.672575;-0.5363012
11:12:05:415;0.6703765;9.672575;-0.5363012
11:12:05:547;0.61291564;9.653421;-0.19153613
11:12:05:547;0.61291564;9.653421;-0.19153613
11:12:05:547;0.61291564;9.653421;-0.19153613
11:12:05:547;0.61291564;9.653421;-0.19153613
11:12:05:547;0.61291564;9.653421;-0.19153613
11:12:05:547;0.61291564;9.653421;-0.19153613
11:12:05:547;0.61291564;9.653421;-0.19153613
11:12:05:547;0.61291564;9.653421;-0.19153613
11:12:05:547;0.61291564;9.653421;-0.19153613
11:12:05:547;0.61291564;9.653421;-0.19153613
11:12:05:547;0.61291564;9.653421;-0.19153613
11:12:05:547;0.61291564;9.653421;-0.19153613
11:12:05:547;0.61291564;9.653421;-0.19153613
11:12:05:547;0.61291564;9.653421;-0.19153613
11:12:05:657;0.5363012;10.170568;-0.076614454
11:12:05:657;0.5363012;10.170568;-0.076614454
11:12:05:657;0.5363012;10.170568;-0.076614454
11:12:05:657;0.5363012;10.170568;-0.076614454
11:12:05:657;0.5363012;10.170568;-0.076614454
11:12:05:657;0.5363012;10.170568;-0.076614454
11:12:05:657;0.5363012;10.170568;-0.076614454
11:12:05:657;0.5363012;10.170568;-0.076614454
11:12:05:657;0.5363012;10.170568;-0.076614454
11:12:05:657;0.5363012;10.170568;-0.076614454
11:12:05:657;0.5363012;10.170568;-0.076614454
11:12:05:657;0.5363012;10.170568;-0.076614454
11:12:05:657;0.5363012;10.170568;-0.076614454
11:12:05:657;0.5363012;10.170568;-0.076614454
11:12:05:657;0.5363012;10.170568;-0.076614454
11:12:05:774;0.38307226;10.649409;-0.21068975
11:12:05:774;0.38307226;10.649409;-0.21068975
11:12:05:774;0.38307226;10.649409;-0.21068975
11:12:05:774;0.38307226;10.649409;-0.21068975
11:12:05:774;0.38307226;10.649409;-0.21068975
11:12:05:774;0.38307226;10.649409;-0.21068975
11:12:05:774;0.38307226;10.649409;-0.21068975
11:12:05:774;0.38307226;10.649409;-0.21068975
11:12:05:774;0.38307226;10.649409;-0.21068975
11:12:05:774;0.38307226;10.649409;-0.21068975
11:12:05:774;0.38307226;10.649409;-0.21068975
11:12:05:774;0.38307226;10.649409;-0.21068975
11:12:05:774;0.38307226;10.649409;-0.21068975
11:12:05:876;-0.038307227;10.266336;-0.5554548
11:12:05:876;-0.038307227;10.266336;-0.5554548
11:12:05:876;-0.038307227;10.266336;-0.5554548
11:12:05:876;-0.038307227;10.266336;-0.5554548
11:12:05:876;-0.038307227;10.266336;-0.5554548
11:12:05:876;-0.038307227;10.266336;-0.5554548
11:12:05:876;-0.038307227;10.266336;-0.5554548
11:12:05:876;-0.038307227;10.266336;-0.5554548
11:12:05:876;-0.038307227;10.266336;-0.5554548
11:12:05:876;-0.038307227;10.266336;-0.5554548
11:12:05:876;-0.038307227;10.266336;-0.5554548
11:12:05:876;-0.038307227;10.266336;-0.5554548
11:12:05:876;-0.038307227;10.266336;-0.5554548
11:12:05:876;-0.038307227;10.266336;-0.5554548
11:12:05:876;-0.038307227;10.266336;-0.5554548
11:12:05:994;0.1340753;10.01734;0.038307227
11:12:05:994;0.1340753;10.01734;0.038307227
11:12:05:994;0.1340753;10.01734;0.038307227
11:12:05:994;0.1340753;10.01734;0.038307227
11:12:05:994;0.1340753;10.01734;0.038307227
11:12:05:994;0.1340753;10.01734;0.038307227
11:12:05:994;0.1340753;10.01734;0.038307227
11:12:05:994;0.1340753;10.01734;0.038307227
11:12:05:994;0.1340753;10.01734;0.038307227
11:12:05:994;0.1340753;10.01734;0.038307227
11:12:05:994;0.1340753;10.01734;0.038307227
11:12:05:994;0.1340753;10.01734;0.038307227
11:12:05:994;0.1340753;10.01734;0.038307227
11:12:05:994;0.1340753;10.01734;0.038307227
11:12:05:994;0.1340753;10.01734;0.038307227
11:12:05:994;0.1340753;10.01734;0.038307227
11:12:06:120;0.2873042;9.404425;-0.47884035
11:12:06:120;0.2873042;9.404425;-0.47884035
11:12:06:120;0.2873042;9.404425;-0.47884035
11:12:06:120;0.2873042;9.404425;-0.47884035
11:12:06:120;0.2873042;9.404425;-0.47884035
11:12:06:120;0.2873042;9.404425;-0.47884035
11:12:06:120;0.2873042;9.404425;-0.47884035
11:12:06:120;0.2873042;9.404425;-0.47884035
11:12:06:120;0.2873042;9.404425;-0.47884035
11:12:06:120;0.2873042;9.404425;-0.47884035
11:12:06:120;0.2873042;9.404425;-0.47884035
11:12:06:120;0.2873042;9.404425;-0.47884035
11:12:06:120;0.2873042;9.404425;-0.47884035
11:12:06:120;0.2873042;9.404425;-0.47884035
11:12:06:234;0.2681506;10.151415;-0.6512229
11:12:06:234;0.2681506;10.151415;-0.6512229
11:12:06:234;0.2681506;10.151415;-0.6512229
11:12:06:234;0.2681506;10.151415;-0.6512229
11:12:06:234;0.2681506;10.151415;-0.6512229
11:12:06:234;0.2681506;10.151415;-0.6512229
11:12:06:234;0.2681506;10.151415;-0.6512229
11:12:06:234;0.2681506;10.151415;-0.6512229
11:12:06:234;0.2681506;10.151415;-0.6512229
11:12:06:234;0.2681506;10.151415;-0.6512229
11:12:06:234;0.2681506;10.151415;-0.6512229
11:12:06:234;0.2681506;10.151415;-0.6512229
11:12:06:234;0.2681506;10.151415;-0.6512229
11:12:06:234;0.2681506;10.151415;-0.6512229
11:12:06:234;0.2681506;10.151415;-0.6512229
11:12:06:350;0.51714754;9.768343;0.36391866
11:12:06:350;0.51714754;9.768343;0.36391866
11:12:06:350;0.51714754;9.768343;0.36391866
11:12:06:350;0.51714754;9.768343;0.36391866
11:12:06:350;0.51714754;9.768343;0.36391866
11:12:06:350;0.51714754;9.768343;0.36391866
11:12:06:350;0.51714754;9.768343;0.36391866
11:12:06:350;0.51714754;9.768343;0.36391866
11:12:06:350;0.51714754;9.768343;0.36391866
11:12:06:350;0.51714754;9.768343;0.36391866
11:12:06:350;0.51714754;9.768343;0.36391866
11:12:06:350;0.51714754;9.768343;0.36391866
11:12:06:350;0.51714754;9.768343;0.36391866
11:12:06:350;0.51714754;9.768343;0.36391866
11:12:06:454;-0.30645782;10.419566;-1.1300632
11:12:06:454;-0.30645782;10.419566;-1.1300632
11:12:06:454;-0.30645782;10.419566;-1.1300632
11:12:06:454;-0.30645782;10.419566;-1.1300632
11:12:06:454;-0.30645782;10.419566;-1.1300632
11:12:06:454;-0.30645782;10.419566;-1.1300632
11:12:06:454;-0.30645782;10.419566;-1.1300632
11:12:06:454;-0.30645782;10.419566;-1.1300632
11:12:06:454;-0.30645782;10.419566;-1.1300632
11:12:06:454;-0.30645782;10.419566;-1.1300632
11:12:06:454;-0.30645782;10.419566;-1.1300632
11:12:06:454;-0.30645782;10.419566;-1.1300632
11:12:06:454;-0.30645782;10.419566;-1.1300632
11:12:06:454;-0.30645782;10.419566;-1.1300632
11:12:06:454;-0.30645782;10.419566;-1.1300632
11:12:06:454;-0.30645782;10.419566;-1.1300632
11:12:06:454;-0.30645782;10.419566;-1.1300632
11:12:06:454;-0.30645782;10.419566;-1.1300632
11:12:06:454;-0.30645782;10.419566;-1.1300632
11:12:06:454;-0.30645782;10.419566;-1.1300632
11:12:06:454;-0.30645782;10.419566;-1.1300632
11:12:06:621;-0.24899697;10.132261;-0.49799395
11:12:06:621;-0.24899697;10.132261;-0.49799395
11:12:06:621;-0.24899697;10.132261;-0.49799395
11:12:06:621;-0.24899697;10.132261;-0.49799395
11:12:06:621;-0.24899697;10.132261;-0.49799395
11:12:06:621;-0.24899697;10.132261;-0.49799395
11:12:06:621;-0.24899697;10.132261;-0.49799395
11:12:06:621;-0.24899697;10.132261;-0.49799395
11:12:06:621;-0.24899697;10.132261;-0.49799395
11:12:06:621;-0.24899697;10.132261;-0.49799395
11:12:06:621;-0.24899697;10.132261;-0.49799395
11:12:06:621;-0.24899697;10.132261;-0.49799395
11:12:06:621;-0.24899697;10.132261;-0.49799395
11:12:06:621;-0.24899697;10.132261;-0.49799395
11:12:06:621;-0.24899697;10.132261;-0.49799395
11:12:06:735;-0.019153614;10.611102;-0.61291564
11:12:06:735;-0.019153614;10.611102;-0.61291564
11:12:06:735;-0.019153614;10.611102;-0.61291564
11:12:06:735;-0.019153614;10.611102;-0.61291564
11:12:06:735;-0.019153614;10.611102;-0.61291564
11:12:06:735;-0.019153614;10.611102;-0.61291564
11:12:06:735;-0.019153614;10.611102;-0.61291564
11:12:06:735;-0.019153614;10.611102;-0.61291564
11:12:06:735;-0.019153614;10.611102;-0.61291564
11:12:06:735;-0.019153614;10.611102;-0.61291564
11:12:06:735;-0.019153614;10.611102;-0.61291564
11:12:06:735;-0.019153614;10.611102;-0.61291564
11:12:06:735;-0.019153614;10.611102;-0.61291564
11:12:06:837;0.30645782;10.151415;-0.6703765
11:12:06:837;0.30645782;10.151415;-0.6703765
11:12:06:837;0.30645782;10.151415;-0.6703765
11:12:06:837;0.30645782;10.151415;-0.6703765
11:12:06:837;0.30645782;10.151415;-0.6703765
11:12:06:837;0.30645782;10.151415;-0.6703765
11:12:06:837;0.30645782;10.151415;-0.6703765
11:12:06:837;0.30645782;10.151415;-0.6703765
11:12:06:837;0.30645782;10.151415;-0.6703765
11:12:06:837;0.30645782;10.151415;-0.6703765
11:12:06:837;0.30645782;10.151415;-0.6703765
11:12:06:837;0.30645782;10.151415;-0.6703765
11:12:06:837;0.30645782;10.151415;-0.6703765
11:12:06:837;0.30645782;10.151415;-0.6703765
11:12:06:953;1.0151415;10.745177;0.49799395
11:12:06:953;1.0151415;10.745177;0.49799395
11:12:06:953;1.0151415;10.745177;0.49799395
11:12:06:953;1.0151415;10.745177;0.49799395
11:12:06:953;1.0151415;10.745177;0.49799395
11:12:06:953;1.0151415;10.745177;0.49799395
11:12:06:953;1.0151415;10.745177;0.49799395
11:12:06:953;1.0151415;10.745177;0.49799395
11:12:06:953;1.0151415;10.745177;0.49799395
11:12:06:953;1.0151415;10.745177;0.49799395
11:12:06:953;1.0151415;10.745177;0.49799395
11:12:06:953;1.0151415;10.745177;0.49799395
11:12:06:953;1.0151415;10.745177;0.49799395
11:12:06:953;1.0151415;10.745177;0.49799395
11:12:07:055;0.2681506;10.821792;-0.5746084
11:12:07:055;0.2681506;10.821792;-0.5746084
11:12:07:055;0.2681506;10.821792;-0.5746084
11:12:07:055;0.2681506;10.821792;-0.5746084
11:12:07:055;0.2681506;10.821792;-0.5746084
11:12:07:055;0.2681506;10.821792;-0.5746084
11:12:07:055;0.2681506;10.821792;-0.5746084
11:12:07:055;0.2681506;10.821792;-0.5746084
11:12:07:055;0.2681506;10.821792;-0.5746084
11:12:07:055;0.2681506;10.821792;-0.5746084
11:12:07:055;0.2681506;10.821792;-0.5746084
11:12:07:055;0.2681506;10.821792;-0.5746084
11:12:07:055;0.2681506;10.821792;-0.5746084
11:12:07:055;0.2681506;10.821792;-0.5746084
11:12:07:171;0.40222588;10.151415;-0.15322891
11:12:07:171;0.40222588;10.151415;-0.15322891
11:12:07:171;0.40222588;10.151415;-0.15322891
11:12:07:171;0.40222588;10.151415;-0.15322891
11:12:07:171;0.40222588;10.151415;-0.15322891
11:12:07:171;0.40222588;10.151415;-0.15322891
11:12:07:171;0.40222588;10.151415;-0.15322891
11:12:07:171;0.40222588;10.151415;-0.15322891
11:12:07:171;0.40222588;10.151415;-0.15322891
11:12:07:171;0.40222588;10.151415;-0.15322891
11:12:07:171;0.40222588;10.151415;-0.15322891
11:12:07:171;0.40222588;10.151415;-0.15322891
11:12:07:171;0.40222588;10.151415;-0.15322891
11:12:07:171;0.40222588;10.151415;-0.15322891
11:12:07:171;0.40222588;10.151415;-0.15322891
11:12:07:171;0.40222588;10.151415;-0.15322891
11:12:07:290;0.61291564;9.11712;1.0342951
11:12:07:290;0.61291564;9.11712;1.0342951
11:12:07:290;0.61291564;9.11712;1.0342951
11:12:07:290;0.61291564;9.11712;1.0342951
11:12:07:290;0.61291564;9.11712;1.0342951
11:12:07:290;0.61291564;9.11712;1.0342951
11:12:07:290;0.61291564;9.11712;1.0342951
11:12:07:290;0.61291564;9.11712;1.0342951
11:12:07:290;0.61291564;9.11712;1.0342951
11:12:07:290;0.61291564;9.11712;1.0342951
11:12:07:290;0.61291564;9.11712;1.0342951
11:12:07:290;0.61291564;9.11712;1.0342951
11:12:07:290;0.61291564;9.11712;1.0342951
11:12:07:290;0.61291564;9.11712;1.0342951
11:12:07:290;0.61291564;9.11712;1.0342951
11:12:07:407;0.5554548;9.461885;-0.30645782
11:12:07:407;0.5554548;9.461885;-0.30645782
11:12:07:407;0.5554548;9.461885;-0.30645782
11:12:07:407;0.5554548;9.461885;-0.30645782
11:12:07:407;0.5554548;9.461885;-0.30645782
11:12:07:407;0.5554548;9.461885;-0.30645782
11:12:07:407;0.5554548;9.461885;-0.30645782
11:12:07:407;0.5554548;9.461885;-0.30645782
11:12:07:407;0.5554548;9.461885;-0.30645782
11:12:07:407;0.5554548;9.461885;-0.30645782
11:12:07:407;0.5554548;9.461885;-0.30645782
11:12:07:407;0.5554548;9.461885;-0.30645782
11:12:07:407;0.5554548;9.461885;-0.30645782
11:12:07:407;0.5554548;9.461885;-0.30645782
11:12:07:407;0.5554548;9.461885;-0.30645782
11:12:07:525;0.076614454;9.921572;0.21068975
11:12:07:525;0.076614454;9.921572;0.21068975
11:12:07:525;0.076614454;9.921572;0.21068975
11:12:07:525;0.076614454;9.921572;0.21068975
11:12:07:525;0.076614454;9.921572;0.21068975
11:12:07:525;0.076614454;9.921572;0.21068975
11:12:07:525;0.076614454;9.921572;0.21068975
11:12:07:525;0.076614454;9.921572;0.21068975
11:12:07:525;0.076614454;9.921572;0.21068975
11:12:07:525;0.076614454;9.921572;0.21068975
11:12:07:525;0.076614454;9.921572;0.21068975
11:12:07:525;0.076614454;9.921572;0.21068975
11:12:07:525;0.076614454;9.921572;0.21068975
11:12:07:525;0.076614454;9.921572;0.21068975
11:12:07:525;0.076614454;9.921572;0.21068975
11:12:07:644;0.51714754;9.883265;-0.32561144
11:12:07:644;0.51714754;9.883265;-0.32561144
11:12:07:644;0.51714754;9.883265;-0.32561144
11:12:07:644;0.51714754;9.883265;-0.32561144
11:12:07:644;0.51714754;9.883265;-0.32561144
11:12:07:644;0.51714754;9.883265;-0.32561144
11:12:07:644;0.51714754;9.883265;-0.32561144
11:12:07:644;0.51714754;9.883265;-0.32561144
11:12:07:644;0.51714754;9.883265;-0.32561144
11:12:07:644;0.51714754;9.883265;-0.32561144
11:12:07:644;0.51714754;9.883265;-0.32561144
11:12:07:644;0.51714754;9.883265;-0.32561144
11:12:07:644;0.51714754;9.883265;-0.32561144
11:12:07:749;0.9768343;10.496181;0.19153613
11:12:07:749;0.9768343;10.496181;0.19153613
11:12:07:749;0.9768343;10.496181;0.19153613
11:12:07:749;0.9768343;10.496181;0.19153613
11:12:07:749;0.9768343;10.496181;0.19153613
11:12:07:749;0.9768343;10.496181;0.19153613
11:12:07:749;0.9768343;10.496181;0.19153613
11:12:07:749;0.9768343;10.496181;0.19153613
11:12:07:749;0.9768343;10.496181;0.19153613
11:12:07:749;0.9768343;10.496181;0.19153613
11:12:07:749;0.9768343;10.496181;0.19153613
11:12:07:749;0.9768343;10.496181;0.19153613
11:12:07:749;0.9768343;10.496181;0.19153613
11:12:07:749;0.9768343;10.496181;0.19153613
11:12:07:749;0.9768343;10.496181;0.19153613
11:12:07:749;0.9768343;10.496181;0.19153613
11:12:07:868;-2.432509;11.760319;0.5363012
11:12:07:868;-2.432509;11.760319;0.5363012
11:12:07:868;-2.432509;11.760319;0.5363012
11:12:07:868;-2.432509;11.760319;0.5363012
11:12:07:868;-2.432509;11.760319;0.5363012
11:12:07:868;-2.432509;11.760319;0.5363012
11:12:07:868;-2.432509;11.760319;0.5363012
11:12:07:868;-2.432509;11.760319;0.5363012
11:12:07:868;-2.432509;11.760319;0.5363012
11:12:07:868;-2.432509;11.760319;0.5363012
11:12:07:868;-2.432509;11.760319;0.5363012
11:12:07:868;-2.432509;11.760319;0.5363012
11:12:07:868;-2.432509;11.760319;0.5363012
11:12:07:868;-2.432509;11.760319;0.5363012
11:12:07:868;-2.432509;11.760319;0.5363012
11:12:07:985;1.8579005;9.289502;-0.1340753
11:12:07:985;1.8579005;9.289502;-0.1340753
11:12:07:985;1.8579005;9.289502;-0.1340753
11:12:07:985;1.8579005;9.289502;-0.1340753
11:12:07:985;1.8579005;9.289502;-0.1340753
11:12:07:985;1.8579005;9.289502;-0.1340753
11:12:07:985;1.8579005;9.289502;-0.1340753
11:12:07:985;1.8579005;9.289502;-0.1340753
11:12:07:985;1.8579005;9.289502;-0.1340753
11:12:07:985;1.8579005;9.289502;-0.1340753
11:12:07:985;1.8579005;9.289502;-0.1340753
11:12:07:985;1.8579005;9.289502;-0.1340753
11:12:07:985;1.8579005;9.289502;-0.1340753
11:12:07:985;1.8579005;9.289502;-0.1340753
11:12:07:985;1.8579005;9.289502;-0.1340753
11:12:08:103;-0.6895301;9.11712;-0.17238252
11:12:08:103;-0.6895301;9.11712;-0.17238252
11:12:08:103;-0.6895301;9.11712;-0.17238252
11:12:08:103;-0.6895301;9.11712;-0.17238252
11:12:08:103;-0.6895301;9.11712;-0.17238252
11:12:08:103;-0.6895301;9.11712;-0.17238252
11:12:08:103;-0.6895301;9.11712;-0.17238252
11:12:08:103;-0.6895301;9.11712;-0.17238252
11:12:08:103;-0.6895301;9.11712;-0.17238252
11:12:08:103;-0.6895301;9.11712;-0.17238252
11:12:08:103;-0.6895301;9.11712;-0.17238252
11:12:08:103;-0.6895301;9.11712;-0.17238252
11:12:08:103;-0.6895301;9.11712;-0.17238252
11:12:08:103;-0.6895301;9.11712;-0.17238252
11:12:08:103;-0.6895301;9.11712;-0.17238252
11:12:08:103;-0.6895301;9.11712;-0.17238252
11:12:08:103;-0.6895301;9.11712;-0.17238252
11:12:08:103;-0.6895301;9.11712;-0.17238252
11:12:08:244;0.34476504;9.442732;0.36391866
11:12:08:244;0.34476504;9.442732;0.36391866
11:12:08:244;0.34476504;9.442732;0.36391866
11:12:08:244;0.34476504;9.442732;0.36391866
11:12:08:244;0.34476504;9.442732;0.36391866
11:12:08:244;0.34476504;9.442732;0.36391866
11:12:08:244;0.34476504;9.442732;0.36391866
11:12:08:244;0.34476504;9.442732;0.36391866
11:12:08:244;0.34476504;9.442732;0.36391866
11:12:08:244;0.34476504;9.442732;0.36391866
11:12:08:244;0.34476504;9.442732;0.36391866
11:12:08:244;0.34476504;9.442732;0.36391866
11:12:08:244;0.34476504;9.442732;0.36391866
11:12:08:244;0.34476504;9.442732;0.36391866
11:12:08:359;0.30645782;9.404425;0.91937345
11:12:08:359;0.30645782;9.404425;0.91937345
11:12:08:359;0.30645782;9.404425;0.91937345
11:12:08:359;0.30645782;9.404425;0.91937345
11:12:08:359;0.30645782;9.404425;0.91937345
11:12:08:359;0.30645782;9.404425;0.91937345
11:12:08:359;0.30645782;9.404425;0.91937345
11:12:08:359;0.30645782;9.404425;0.91937345
11:12:08:359;0.30645782;9.404425;0.91937345
11:12:08:359;0.30645782;9.404425;0.91937345
11:12:08:359;0.30645782;9.404425;0.91937345
11:12:08:359;0.30645782;9.404425;0.91937345
11:12:08:359;0.30645782;9.404425;0.91937345
11:12:08:359;0.30645782;9.404425;0.91937345
11:12:08:359;0.30645782;9.404425;0.91937345
11:12:08:470;0.30645782;10.936713;-0.40222588
11:12:08:470;0.30645782;10.936713;-0.40222588
11:12:08:470;0.30645782;10.936713;-0.40222588
11:12:08:470;0.30645782;10.936713;-0.40222588
11:12:08:470;0.30645782;10.936713;-0.40222588
11:12:08:470;0.30645782;10.936713;-0.40222588
11:12:08:470;0.30645782;10.936713;-0.40222588
11:12:08:470;0.30645782;10.936713;-0.40222588
11:12:08:470;0.30645782;10.936713;-0.40222588
11:12:08:470;0.30645782;10.936713;-0.40222588
11:12:08:470;0.30645782;10.936713;-0.40222588
11:12:08:470;0.30645782;10.936713;-0.40222588
11:12:08:470;0.30645782;10.936713;-0.40222588
11:12:08:470;0.30645782;10.936713;-0.40222588
11:12:08:470;0.30645782;10.936713;-0.40222588
11:12:08:470;0.30645782;10.936713;-0.40222588
11:12:08:470;0.30645782;10.936713;-0.40222588
11:12:08:470;0.30645782;10.936713;-0.40222588
11:12:08:610;0.038307227;11.070788;-0.24899697
11:12:08:610;0.038307227;11.070788;-0.24899697
11:12:08:610;0.038307227;11.070788;-0.24899697
11:12:08:610;0.038307227;11.070788;-0.24899697
11:12:08:610;0.038307227;11.070788;-0.24899697
11:12:08:610;0.038307227;11.070788;-0.24899697
11:12:08:610;0.038307227;11.070788;-0.24899697
11:12:08:610;0.038307227;11.070788;-0.24899697
11:12:08:610;0.038307227;11.070788;-0.24899697
11:12:08:610;0.038307227;11.070788;-0.24899697
11:12:08:610;0.038307227;11.070788;-0.24899697
11:12:08:610;0.038307227;11.070788;-0.24899697
11:12:08:610;0.038307227;11.070788;-0.24899697
11:12:08:610;0.038307227;11.070788;-0.24899697
11:12:08:722;0.11492168;9.9790325;-0.17238252
11:12:08:722;0.11492168;9.9790325;-0.17238252
11:12:08:722;0.11492168;9.9790325;-0.17238252
11:12:08:722;0.11492168;9.9790325;-0.17238252
11:12:08:722;0.11492168;9.9790325;-0.17238252
11:12:08:722;0.11492168;9.9790325;-0.17238252
11:12:08:722;0.11492168;9.9790325;-0.17238252
11:12:08:722;0.11492168;9.9790325;-0.17238252
11:12:08:722;0.11492168;9.9790325;-0.17238252
11:12:08:722;0.11492168;9.9790325;-0.17238252
11:12:08:722;0.11492168;9.9790325;-0.17238252
11:12:08:722;0.11492168;9.9790325;-0.17238252
11:12:08:722;0.11492168;9.9790325;-0.17238252
11:12:08:722;0.11492168;9.9790325;-0.17238252
11:12:08:722;0.11492168;9.9790325;-0.17238252
11:12:08:839;0.095768064;11.33894;-0.11492168
11:12:08:839;0.095768064;11.33894;-0.11492168
11:12:08:839;0.095768064;11.33894;-0.11492168
11:12:08:839;0.095768064;11.33894;-0.11492168
11:12:08:839;0.095768064;11.33894;-0.11492168
11:12:08:839;0.095768064;11.33894;-0.11492168
11:12:08:839;0.095768064;11.33894;-0.11492168
11:12:08:839;0.095768064;11.33894;-0.11492168
11:12:08:839;0.095768064;11.33894;-0.11492168
11:12:08:839;0.095768064;11.33894;-0.11492168
11:12:08:839;0.095768064;11.33894;-0.11492168
11:12:08:839;0.095768064;11.33894;-0.11492168
11:12:08:839;0.095768064;11.33894;-0.11492168
11:12:08:839;0.095768064;11.33894;-0.11492168
11:12:08:839;0.095768064;11.33894;-0.11492168
11:12:08:956;0.36391866;9.749189;0.19153613
11:12:08:956;0.36391866;9.749189;0.19153613
11:12:08:956;0.36391866;9.749189;0.19153613
11:12:08:956;0.36391866;9.749189;0.19153613
11:12:08:956;0.36391866;9.749189;0.19153613
11:12:08:956;0.36391866;9.749189;0.19153613
11:12:08:956;0.36391866;9.749189;0.19153613
11:12:08:956;0.36391866;9.749189;0.19153613
11:12:08:956;0.36391866;9.749189;0.19153613
11:12:08:956;0.36391866;9.749189;0.19153613
11:12:08:956;0.36391866;9.749189;0.19153613
11:12:08:956;0.36391866;9.749189;0.19153613
11:12:08:956;0.36391866;9.749189;0.19153613
11:12:08:956;0.36391866;9.749189;0.19153613
11:12:08:956;0.36391866;9.749189;0.19153613
11:12:09:074;0.095768064;10.419566;0.05746084
11:12:09:074;0.095768064;10.419566;0.05746084
11:12:09:074;0.095768064;10.419566;0.05746084
11:12:09:074;0.095768064;10.419566;0.05746084
11:12:09:074;0.095768064;10.419566;0.05746084
11:12:09:074;0.095768064;10.419566;0.05746084
11:12:09:074;0.095768064;10.419566;0.05746084
11:12:09:074;0.095768064;10.419566;0.05746084
11:12:09:074;0.095768064;10.419566;0.05746084
11:12:09:074;0.095768064;10.419566;0.05746084
11:12:09:074;0.095768064;10.419566;0.05746084
11:12:09:074;0.095768064;10.419566;0.05746084
11:12:09:074;0.095768064;10.419566;0.05746084
11:12:09:074;0.095768064;10.419566;0.05746084
11:12:09:074;0.095768064;10.419566;0.05746084
11:12:09:194;0.2681506;10.668563;-0.2873042
11:12:09:194;0.2681506;10.668563;-0.2873042
11:12:09:194;0.2681506;10.668563;-0.2873042
11:12:09:194;0.2681506;10.668563;-0.2873042
11:12:09:194;0.2681506;10.668563;-0.2873042
11:12:09:194;0.2681506;10.668563;-0.2873042
11:12:09:194;0.2681506;10.668563;-0.2873042
11:12:09:194;0.2681506;10.668563;-0.2873042
11:12:09:194;0.2681506;10.668563;-0.2873042
11:12:09:194;0.2681506;10.668563;-0.2873042
11:12:09:194;0.2681506;10.668563;-0.2873042
11:12:09:194;0.2681506;10.668563;-0.2873042
11:12:09:194;0.2681506;10.668563;-0.2873042
11:12:09:194;0.2681506;10.668563;-0.2873042
11:12:09:194;0.2681506;10.668563;-0.2873042
11:12:09:307;0.095768064;10.5919485;0.47884035
11:12:09:307;0.095768064;10.5919485;0.47884035
11:12:09:307;0.095768064;10.5919485;0.47884035
11:12:09:307;0.095768064;10.5919485;0.47884035
11:12:09:307;0.095768064;10.5919485;0.47884035
11:12:09:307;0.095768064;10.5919485;0.47884035
11:12:09:307;0.095768064;10.5919485;0.47884035
11:12:09:307;0.095768064;10.5919485;0.47884035
11:12:09:307;0.095768064;10.5919485;0.47884035
11:12:09:307;0.095768064;10.5919485;0.47884035
11:12:09:307;0.095768064;10.5919485;0.47884035
11:12:09:307;0.095768064;10.5919485;0.47884035
11:12:09:307;0.095768064;10.5919485;0.47884035
11:12:09:412;0.30645782;9.576807;0.5746084
11:12:09:412;0.30645782;9.576807;0.5746084
11:12:09:412;0.30645782;9.576807;0.5746084
11:12:09:412;0.30645782;9.576807;0.5746084
11:12:09:412;0.30645782;9.576807;0.5746084
11:12:09:412;0.30645782;9.576807;0.5746084
11:12:09:412;0.30645782;9.576807;0.5746084
11:12:09:412;0.30645782;9.576807;0.5746084
11:12:09:412;0.30645782;9.576807;0.5746084
11:12:09:412;0.30645782;9.576807;0.5746084
11:12:09:412;0.30645782;9.576807;0.5746084
11:12:09:412;0.30645782;9.576807;0.5746084
11:12:09:412;0.30645782;9.576807;0.5746084
11:12:09:412;0.30645782;9.576807;0.5746084
11:12:09:412;0.30645782;9.576807;0.5746084
11:12:09:529;-0.1340753;9.615114;-0.38307226
11:12:09:529;-0.1340753;9.615114;-0.38307226
11:12:09:529;-0.1340753;9.615114;-0.38307226
11:12:09:529;-0.1340753;9.615114;-0.38307226
11:12:09:529;-0.1340753;9.615114;-0.38307226
11:12:09:529;-0.1340753;9.615114;-0.38307226
11:12:09:529;-0.1340753;9.615114;-0.38307226
11:12:09:529;-0.1340753;9.615114;-0.38307226
11:12:09:529;-0.1340753;9.615114;-0.38307226
11:12:09:529;-0.1340753;9.615114;-0.38307226
11:12:09:529;-0.1340753;9.615114;-0.38307226
11:12:09:529;-0.1340753;9.615114;-0.38307226
11:12:09:529;-0.1340753;9.615114;-0.38307226
11:12:09:529;-0.1340753;9.615114;-0.38307226
11:12:09:529;-0.1340753;9.615114;-0.38307226
11:12:09:529;-0.1340753;9.615114;-0.38307226
11:12:09:649;0.095768064;9.519346;0.78529817
11:12:09:649;0.095768064;9.519346;0.78529817
11:12:09:649;0.095768064;9.519346;0.78529817
11:12:09:649;0.095768064;9.519346;0.78529817
11:12:09:649;0.095768064;9.519346;0.78529817
11:12:09:649;0.095768064;9.519346;0.78529817
11:12:09:649;0.095768064;9.519346;0.78529817
11:12:09:649;0.095768064;9.519346;0.78529817
11:12:09:649;0.095768064;9.519346;0.78529817
11:12:09:649;0.095768064;9.519346;0.78529817
11:12:09:649;0.095768064;9.519346;0.78529817
11:12:09:649;0.095768064;9.519346;0.78529817
11:12:09:649;0.095768064;9.519346;0.78529817
11:12:09:649;0.095768064;9.519346;0.78529817
11:12:09:649;0.095768064;9.519346;0.78529817
11:12:09:766;-0.5746084;10.28549;-0.038307227
11:12:09:766;-0.5746084;10.28549;-0.038307227
11:12:09:766;-0.5746084;10.28549;-0.038307227
11:12:09:766;-0.5746084;10.28549;-0.038307227
11:12:09:766;-0.5746084;10.28549;-0.038307227
11:12:09:766;-0.5746084;10.28549;-0.038307227
11:12:09:766;-0.5746084;10.28549;-0.038307227
11:12:09:766;-0.5746084;10.28549;-0.038307227
11:12:09:766;-0.5746084;10.28549;-0.038307227
11:12:09:766;-0.5746084;10.28549;-0.038307227
11:12:09:766;-0.5746084;10.28549;-0.038307227
11:12:09:766;-0.5746084;10.28549;-0.038307227
11:12:09:766;-0.5746084;10.28549;-0.038307227
11:12:09:766;-0.5746084;10.28549;-0.038307227
11:12:09:766;-0.5746084;10.28549;-0.038307227
11:12:09:885;0.1340753;10.994174;-0.40222588
11:12:09:885;0.1340753;10.994174;-0.40222588
11:12:09:885;0.1340753;10.994174;-0.40222588
11:12:09:885;0.1340753;10.994174;-0.40222588
11:12:09:885;0.1340753;10.994174;-0.40222588
11:12:09:885;0.1340753;10.994174;-0.40222588
11:12:09:885;0.1340753;10.994174;-0.40222588
11:12:09:885;0.1340753;10.994174;-0.40222588
11:12:09:885;0.1340753;10.994174;-0.40222588
11:12:09:885;0.1340753;10.994174;-0.40222588
11:12:09:885;0.1340753;10.994174;-0.40222588
11:12:09:885;0.1340753;10.994174;-0.40222588
11:12:09:885;0.1340753;10.994174;-0.40222588
11:12:09:885;0.1340753;10.994174;-0.40222588
11:12:09:885;0.1340753;10.994174;-0.40222588
11:12:10:005;-0.019153614;9.557653;0.49799395
11:12:10:005;-0.019153614;9.557653;0.49799395
11:12:10:005;-0.019153614;9.557653;0.49799395
11:12:10:005;-0.019153614;9.557653;0.49799395
11:12:10:005;-0.019153614;9.557653;0.49799395
11:12:10:005;-0.019153614;9.557653;0.49799395
11:12:10:005;-0.019153614;9.557653;0.49799395
11:12:10:005;-0.019153614;9.557653;0.49799395
11:12:10:005;-0.019153614;9.557653;0.49799395
11:12:10:005;-0.019153614;9.557653;0.49799395
11:12:10:005;-0.019153614;9.557653;0.49799395
11:12:10:005;-0.019153614;9.557653;0.49799395
11:12:10:005;-0.019153614;9.557653;0.49799395
11:12:10:005;-0.019153614;9.557653;0.49799395
11:12:10:005;-0.019153614;9.557653;0.49799395
11:12:10:121;0.2873042;10.477027;-0.59376204
11:12:10:121;0.2873042;10.477027;-0.59376204
11:12:10:121;0.2873042;10.477027;-0.59376204
11:12:10:121;0.2873042;10.477027;-0.59376204
11:12:10:121;0.2873042;10.477027;-0.59376204
11:12:10:121;0.2873042;10.477027;-0.59376204
11:12:10:121;0.2873042;10.477027;-0.59376204
11:12:10:121;0.2873042;10.477027;-0.59376204
11:12:10:121;0.2873042;10.477027;-0.59376204
11:12:10:121;0.2873042;10.477027;-0.59376204
11:12:10:121;0.2873042;10.477027;-0.59376204
11:12:10:121;0.2873042;10.477027;-0.59376204
11:12:10:121;0.2873042;10.477027;-0.59376204
11:12:10:121;0.2873042;10.477027;-0.59376204
11:12:10:121;0.2873042;10.477027;-0.59376204
11:12:10:242;0.05746084;9.710882;-0.05746084
11:12:10:242;0.05746084;9.710882;-0.05746084
11:12:10:242;0.05746084;9.710882;-0.05746084
11:12:10:242;0.05746084;9.710882;-0.05746084
11:12:10:242;0.05746084;9.710882;-0.05746084
11:12:10:242;0.05746084;9.710882;-0.05746084
11:12:10:242;0.05746084;9.710882;-0.05746084
11:12:10:242;0.05746084;9.710882;-0.05746084
11:12:10:242;0.05746084;9.710882;-0.05746084
11:12:10:242;0.05746084;9.710882;-0.05746084
11:12:10:242;0.05746084;9.710882;-0.05746084
11:12:10:242;0.05746084;9.710882;-0.05746084
11:12:10:242;0.05746084;9.710882;-0.05746084
11:12:10:242;0.05746084;9.710882;-0.05746084
11:12:10:242;0.05746084;9.710882;-0.05746084
11:12:10:358;0.5746084;9.749189;-0.076614454
11:12:10:358;0.5746084;9.749189;-0.076614454
11:12:10:358;0.5746084;9.749189;-0.076614454
11:12:10:358;0.5746084;9.749189;-0.076614454
11:12:10:358;0.5746084;9.749189;-0.076614454
11:12:10:358;0.5746084;9.749189;-0.076614454
11:12:10:358;0.5746084;9.749189;-0.076614454
11:12:10:358;0.5746084;9.749189;-0.076614454
11:12:10:358;0.5746084;9.749189;-0.076614454
11:12:10:358;0.5746084;9.749189;-0.076614454
11:12:10:358;0.5746084;9.749189;-0.076614454
11:12:10:358;0.5746084;9.749189;-0.076614454
11:12:10:358;0.5746084;9.749189;-0.076614454
11:12:10:358;0.5746084;9.749189;-0.076614454
11:12:10:358;0.5746084;9.749189;-0.076614454
11:12:10:476;-0.019153614;10.0748005;-0.2681506
11:12:10:476;-0.019153614;10.0748005;-0.2681506
11:12:10:476;-0.019153614;10.0748005;-0.2681506
11:12:10:476;-0.019153614;10.0748005;-0.2681506
11:12:10:476;-0.019153614;10.0748005;-0.2681506
11:12:10:476;-0.019153614;10.0748005;-0.2681506
11:12:10:476;-0.019153614;10.0748005;-0.2681506
11:12:10:476;-0.019153614;10.0748005;-0.2681506
11:12:10:476;-0.019153614;10.0748005;-0.2681506
11:12:10:476;-0.019153614;10.0748005;-0.2681506
11:12:10:476;-0.019153614;10.0748005;-0.2681506
11:12:10:476;-0.019153614;10.0748005;-0.2681506
11:12:10:476;-0.019153614;10.0748005;-0.2681506
11:12:10:578;0.47884035;9.710882;0.63206923
11:12:10:578;0.47884035;9.710882;0.63206923
11:12:10:578;0.47884035;9.710882;0.63206923
11:12:10:578;0.47884035;9.710882;0.63206923
11:12:10:578;0.47884035;9.710882;0.63206923
11:12:10:578;0.47884035;9.710882;0.63206923
11:12:10:578;0.47884035;9.710882;0.63206923
11:12:10:578;0.47884035;9.710882;0.63206923
11:12:10:578;0.47884035;9.710882;0.63206923
11:12:10:578;0.47884035;9.710882;0.63206923
11:12:10:578;0.47884035;9.710882;0.63206923
11:12:10:578;0.47884035;9.710882;0.63206923
11:12:10:578;0.47884035;9.710882;0.63206923
11:12:10:679;-0.038307227;9.902418;-0.17238252
11:12:10:679;-0.038307227;9.902418;-0.17238252
11:12:10:679;-0.038307227;9.902418;-0.17238252
11:12:10:679;-0.038307227;9.902418;-0.17238252
11:12:10:679;-0.038307227;9.902418;-0.17238252
11:12:10:679;-0.038307227;9.902418;-0.17238252
11:12:10:679;-0.038307227;9.902418;-0.17238252
11:12:10:679;-0.038307227;9.902418;-0.17238252
11:12:10:679;-0.038307227;9.902418;-0.17238252
11:12:10:679;-0.038307227;9.902418;-0.17238252
11:12:10:679;-0.038307227;9.902418;-0.17238252
11:12:10:679;-0.038307227;9.902418;-0.17238252
11:12:10:679;-0.038307227;9.902418;-0.17238252
11:12:10:679;-0.038307227;9.902418;-0.17238252
11:12:10:789;-0.076614454;10.036493;-0.6895301
11:12:10:789;-0.076614454;10.036493;-0.6895301
11:12:10:789;-0.076614454;10.036493;-0.6895301
11:12:10:789;-0.076614454;10.036493;-0.6895301
11:12:10:789;-0.076614454;10.036493;-0.6895301
11:12:10:789;-0.076614454;10.036493;-0.6895301
11:12:10:789;-0.076614454;10.036493;-0.6895301
11:12:10:789;-0.076614454;10.036493;-0.6895301
11:12:10:789;-0.076614454;10.036493;-0.6895301
11:12:10:789;-0.076614454;10.036493;-0.6895301
11:12:10:789;-0.076614454;10.036493;-0.6895301
11:12:10:789;-0.076614454;10.036493;-0.6895301
11:12:10:789;-0.076614454;10.036493;-0.6895301
11:12:10:789;-0.076614454;10.036493;-0.6895301
11:12:10:897;1.1683705;9.423578;0.6895301
11:12:10:897;1.1683705;9.423578;0.6895301
11:12:10:897;1.1683705;9.423578;0.6895301
11:12:10:897;1.1683705;9.423578;0.6895301
11:12:10:897;1.1683705;9.423578;0.6895301
11:12:10:897;1.1683705;9.423578;0.6895301
11:12:10:897;1.1683705;9.423578;0.6895301
11:12:10:897;1.1683705;9.423578;0.6895301
11:12:10:897;1.1683705;9.423578;0.6895301
11:12:10:897;1.1683705;9.423578;0.6895301
11:12:10:897;1.1683705;9.423578;0.6895301
11:12:10:897;1.1683705;9.423578;0.6895301
11:12:10:897;1.1683705;9.423578;0.6895301
11:12:10:897;1.1683705;9.423578;0.6895301
11:12:10:897;1.1683705;9.423578;0.6895301
11:12:11:015;0.34476504;9.557653;0.1340753
11:12:11:015;0.34476504;9.557653;0.1340753
11:12:11:015;0.34476504;9.557653;0.1340753
11:12:11:015;0.34476504;9.557653;0.1340753
11:12:11:015;0.34476504;9.557653;0.1340753
11:12:11:015;0.34476504;9.557653;0.1340753
11:12:11:015;0.34476504;9.557653;0.1340753
11:12:11:015;0.34476504;9.557653;0.1340753
11:12:11:015;0.34476504;9.557653;0.1340753
11:12:11:015;0.34476504;9.557653;0.1340753
11:12:11:015;0.34476504;9.557653;0.1340753
11:12:11:015;0.34476504;9.557653;0.1340753
11:12:11:015;0.34476504;9.557653;0.1340753
11:12:11:015;0.34476504;9.557653;0.1340753
11:12:11:015;0.34476504;9.557653;0.1340753
11:12:11:015;0.34476504;9.557653;0.1340753
11:12:11:015;0.34476504;9.557653;0.1340753
11:12:11:015;0.34476504;9.557653;0.1340753
11:12:11:015;0.34476504;9.557653;0.1340753
11:12:11:164;0.038307227;10.91756;-1.7429788
11:12:11:164;0.038307227;10.91756;-1.7429788
11:12:11:164;0.038307227;10.91756;-1.7429788
11:12:11:164;0.038307227;10.91756;-1.7429788
11:12:11:164;0.038307227;10.91756;-1.7429788
11:12:11:164;0.038307227;10.91756;-1.7429788
11:12:11:164;0.038307227;10.91756;-1.7429788
11:12:11:164;0.038307227;10.91756;-1.7429788
11:12:11:164;0.038307227;10.91756;-1.7429788
11:12:11:164;0.038307227;10.91756;-1.7429788
11:12:11:164;0.038307227;10.91756;-1.7429788
11:12:11:164;0.038307227;10.91756;-1.7429788
11:12:11:164;0.038307227;10.91756;-1.7429788
11:12:11:164;0.038307227;10.91756;-1.7429788
11:12:11:271;0.80445176;9.002198;0.38307226
11:12:11:271;0.80445176;9.002198;0.38307226
11:12:11:271;0.80445176;9.002198;0.38307226
11:12:11:271;0.80445176;9.002198;0.38307226
11:12:11:271;0.80445176;9.002198;0.38307226
11:12:11:271;0.80445176;9.002198;0.38307226
11:12:11:271;0.80445176;9.002198;0.38307226
11:12:11:271;0.80445176;9.002198;0.38307226
11:12:11:271;0.80445176;9.002198;0.38307226
11:12:11:271;0.80445176;9.002198;0.38307226
11:12:11:271;0.80445176;9.002198;0.38307226
11:12:11:271;0.80445176;9.002198;0.38307226
11:12:11:271;0.80445176;9.002198;0.38307226
11:12:11:271;0.80445176;9.002198;0.38307226
11:12:11:271;0.80445176;9.002198;0.38307226
11:12:11:388;0.17238252;9.653421;0.34476504
11:12:11:388;0.17238252;9.653421;0.34476504
11:12:11:388;0.17238252;9.653421;0.34476504
11:12:11:388;0.17238252;9.653421;0.34476504
11:12:11:388;0.17238252;9.653421;0.34476504
11:12:11:388;0.17238252;9.653421;0.34476504
11:12:11:388;0.17238252;9.653421;0.34476504
11:12:11:388;0.17238252;9.653421;0.34476504
11:12:11:388;0.17238252;9.653421;0.34476504
11:12:11:388;0.17238252;9.653421;0.34476504
11:12:11:388;0.17238252;9.653421;0.34476504
11:12:11:388;0.17238252;9.653421;0.34476504
11:12:11:388;0.17238252;9.653421;0.34476504
11:12:11:388;0.17238252;9.653421;0.34476504
11:12:11:494;-0.1340753;9.308656;0.6512229
11:12:11:494;-0.1340753;9.308656;0.6512229
11:12:11:494;-0.1340753;9.308656;0.6512229
11:12:11:494;-0.1340753;9.308656;0.6512229
11:12:11:494;-0.1340753;9.308656;0.6512229
11:12:11:494;-0.1340753;9.308656;0.6512229
11:12:11:494;-0.1340753;9.308656;0.6512229
11:12:11:494;-0.1340753;9.308656;0.6512229
11:12:11:494;-0.1340753;9.308656;0.6512229
11:12:11:494;-0.1340753;9.308656;0.6512229
11:12:11:494;-0.1340753;9.308656;0.6512229
11:12:11:494;-0.1340753;9.308656;0.6512229
11:12:11:494;-0.1340753;9.308656;0.6512229
11:12:11:494;-0.1340753;9.308656;0.6512229
11:12:11:606;0.49799395;9.595961;-0.30645782
11:12:11:606;0.49799395;9.595961;-0.30645782
11:12:11:606;0.49799395;9.595961;-0.30645782
11:12:11:606;0.49799395;9.595961;-0.30645782
11:12:11:606;0.49799395;9.595961;-0.30645782
11:12:11:606;0.49799395;9.595961;-0.30645782
11:12:11:606;0.49799395;9.595961;-0.30645782
11:12:11:606;0.49799395;9.595961;-0.30645782
11:12:11:606;0.49799395;9.595961;-0.30645782
11:12:11:606;0.49799395;9.595961;-0.30645782
11:12:11:606;0.49799395;9.595961;-0.30645782
11:12:11:606;0.49799395;9.595961;-0.30645782
11:12:11:606;0.49799395;9.595961;-0.30645782
11:12:11:606;0.49799395;9.595961;-0.30645782
11:12:11:606;0.49799395;9.595961;-0.30645782
11:12:11:723;0.24899697;10.323798;-0.24899697
11:12:11:723;0.24899697;10.323798;-0.24899697
11:12:11:723;0.24899697;10.323798;-0.24899697
11:12:11:723;0.24899697;10.323798;-0.24899697
11:12:11:723;0.24899697;10.323798;-0.24899697
11:12:11:723;0.24899697;10.323798;-0.24899697
11:12:11:723;0.24899697;10.323798;-0.24899697
11:12:11:723;0.24899697;10.323798;-0.24899697
11:12:11:723;0.24899697;10.323798;-0.24899697
11:12:11:723;0.24899697;10.323798;-0.24899697
11:12:11:723;0.24899697;10.323798;-0.24899697
11:12:11:723;0.24899697;10.323798;-0.24899697
11:12:11:723;0.24899697;10.323798;-0.24899697
11:12:11:723;0.24899697;10.323798;-0.24899697
11:12:11:723;0.24899697;10.323798;-0.24899697
11:12:11:842;0.6512229;10.362105;-0.4405331
11:12:11:842;0.6512229;10.362105;-0.4405331
11:12:11:842;0.6512229;10.362105;-0.4405331
11:12:11:842;0.6512229;10.362105;-0.4405331
11:12:11:842;0.6512229;10.362105;-0.4405331
11:12:11:842;0.6512229;10.362105;-0.4405331
11:12:11:842;0.6512229;10.362105;-0.4405331
11:12:11:842;0.6512229;10.362105;-0.4405331
11:12:11:842;0.6512229;10.362105;-0.4405331
11:12:11:842;0.6512229;10.362105;-0.4405331
11:12:11:842;0.6512229;10.362105;-0.4405331
11:12:11:842;0.6512229;10.362105;-0.4405331
11:12:11:842;0.6512229;10.362105;-0.4405331
11:12:11:842;0.6512229;10.362105;-0.4405331
11:12:11:842;0.6512229;10.362105;-0.4405331
11:12:11:958;0.24899697;9.634268;-0.4405331
11:12:11:958;0.24899697;9.634268;-0.4405331
11:12:11:958;0.24899697;9.634268;-0.4405331
11:12:11:958;0.24899697;9.634268;-0.4405331
11:12:11:958;0.24899697;9.634268;-0.4405331
11:12:11:958;0.24899697;9.634268;-0.4405331
11:12:11:958;0.24899697;9.634268;-0.4405331
11:12:11:958;0.24899697;9.634268;-0.4405331
11:12:11:958;0.24899697;9.634268;-0.4405331
11:12:11:958;0.24899697;9.634268;-0.4405331
11:12:11:958;0.24899697;9.634268;-0.4405331
11:12:11:958;0.24899697;9.634268;-0.4405331
11:12:11:958;0.24899697;9.634268;-0.4405331
11:12:11:958;0.24899697;9.634268;-0.4405331
11:12:11:958;0.24899697;9.634268;-0.4405331
11:12:12:076;-0.34476504;10.01734;-0.32561144
11:12:12:076;-0.34476504;10.01734;-0.32561144
11:12:12:076;-0.34476504;10.01734;-0.32561144
11:12:12:076;-0.34476504;10.01734;-0.32561144
11:12:12:076;-0.34476504;10.01734;-0.32561144
11:12:12:076;-0.34476504;10.01734;-0.32561144
11:12:12:076;-0.34476504;10.01734;-0.32561144
11:12:12:076;-0.34476504;10.01734;-0.32561144
11:12:12:076;-0.34476504;10.01734;-0.32561144
11:12:12:076;-0.34476504;10.01734;-0.32561144
11:12:12:076;-0.34476504;10.01734;-0.32561144
11:12:12:076;-0.34476504;10.01734;-0.32561144
11:12:12:076;-0.34476504;10.01734;-0.32561144
11:12:12:076;-0.34476504;10.01734;-0.32561144
11:12:12:076;-0.34476504;10.01734;-0.32561144
11:12:12:194;-0.076614454;10.151415;-0.30645782
11:12:12:194;-0.076614454;10.151415;-0.30645782
11:12:12:194;-0.076614454;10.151415;-0.30645782
11:12:12:194;-0.076614454;10.151415;-0.30645782
11:12:12:194;-0.076614454;10.151415;-0.30645782
11:12:12:194;-0.076614454;10.151415;-0.30645782
11:12:12:194;-0.076614454;10.151415;-0.30645782
11:12:12:194;-0.076614454;10.151415;-0.30645782
11:12:12:194;-0.076614454;10.151415;-0.30645782
11:12:12:194;-0.076614454;10.151415;-0.30645782
11:12:12:194;-0.076614454;10.151415;-0.30645782
11:12:12:194;-0.076614454;10.151415;-0.30645782
11:12:12:194;-0.076614454;10.151415;-0.30645782
11:12:12:194;-0.076614454;10.151415;-0.30645782
11:12:12:194;-0.076614454;10.151415;-0.30645782
11:12:12:310;0.30645782;9.232041;-0.36391866
11:12:12:310;0.30645782;9.232041;-0.36391866
11:12:12:310;0.30645782;9.232041;-0.36391866
11:12:12:310;0.30645782;9.232041;-0.36391866
11:12:12:310;0.30645782;9.232041;-0.36391866
11:12:12:310;0.30645782;9.232041;-0.36391866
11:12:12:310;0.30645782;9.232041;-0.36391866
11:12:12:310;0.30645782;9.232041;-0.36391866
11:12:12:310;0.30645782;9.232041;-0.36391866
11:12:12:310;0.30645782;9.232041;-0.36391866
11:12:12:310;0.30645782;9.232041;-0.36391866
11:12:12:310;0.30645782;9.232041;-0.36391866
11:12:12:310;0.30645782;9.232041;-0.36391866
11:12:12:413;-0.32561144;9.921572;0.7086837
11:12:12:413;-0.32561144;9.921572;0.7086837
11:12:12:413;-0.32561144;9.921572;0.7086837
11:12:12:413;-0.32561144;9.921572;0.7086837
11:12:12:413;-0.32561144;9.921572;0.7086837
11:12:12:413;-0.32561144;9.921572;0.7086837
11:12:12:413;-0.32561144;9.921572;0.7086837
11:12:12:413;-0.32561144;9.921572;0.7086837
11:12:12:413;-0.32561144;9.921572;0.7086837
11:12:12:413;-0.32561144;9.921572;0.7086837
11:12:12:413;-0.32561144;9.921572;0.7086837
11:12:12:413;-0.32561144;9.921572;0.7086837
11:12:12:413;-0.32561144;9.921572;0.7086837
11:12:12:513;-0.36391866;9.749189;1.091756
11:12:12:513;-0.36391866;9.749189;1.091756
11:12:12:513;-0.36391866;9.749189;1.091756
11:12:12:513;-0.36391866;9.749189;1.091756
11:12:12:513;-0.36391866;9.749189;1.091756
11:12:12:513;-0.36391866;9.749189;1.091756
11:12:12:513;-0.36391866;9.749189;1.091756
11:12:12:513;-0.36391866;9.749189;1.091756
11:12:12:513;-0.36391866;9.749189;1.091756
11:12:12:513;-0.36391866;9.749189;1.091756
11:12:12:513;-0.36391866;9.749189;1.091756
11:12:12:513;-0.36391866;9.749189;1.091756
11:12:12:513;-0.36391866;9.749189;1.091756
11:12:12:513;-0.36391866;9.749189;1.091756
11:12:12:513;-0.36391866;9.749189;1.091756
11:12:12:513;-0.36391866;9.749189;1.091756
11:12:12:513;-0.36391866;9.749189;1.091756
11:12:12:643;0.22984336;10.515334;-1.3024458
11:12:12:643;0.22984336;10.515334;-1.3024458
11:12:12:643;0.22984336;10.515334;-1.3024458
11:12:12:643;0.22984336;10.515334;-1.3024458
11:12:12:643;0.22984336;10.515334;-1.3024458
11:12:12:643;0.22984336;10.515334;-1.3024458
11:12:12:643;0.22984336;10.515334;-1.3024458
11:12:12:643;0.22984336;10.515334;-1.3024458
11:12:12:643;0.22984336;10.515334;-1.3024458
11:12:12:643;0.22984336;10.515334;-1.3024458
11:12:12:643;0.22984336;10.515334;-1.3024458
11:12:12:643;0.22984336;10.515334;-1.3024458
11:12:12:643;0.22984336;10.515334;-1.3024458
11:12:12:643;0.22984336;10.515334;-1.3024458
11:12:12:751;0.4405331;10.036493;0.59376204
11:12:12:751;0.4405331;10.036493;0.59376204
11:12:12:751;0.4405331;10.036493;0.59376204
11:12:12:751;0.4405331;10.036493;0.59376204
11:12:12:751;0.4405331;10.036493;0.59376204
11:12:12:751;0.4405331;10.036493;0.59376204
11:12:12:751;0.4405331;10.036493;0.59376204
11:12:12:751;0.4405331;10.036493;0.59376204
11:12:12:751;0.4405331;10.036493;0.59376204
11:12:12:751;0.4405331;10.036493;0.59376204
11:12:12:751;0.4405331;10.036493;0.59376204
11:12:12:751;0.4405331;10.036493;0.59376204
11:12:12:751;0.4405331;10.036493;0.59376204
11:12:12:751;0.4405331;10.036493;0.59376204
11:12:12:751;0.4405331;10.036493;0.59376204
11:12:12:751;0.4405331;10.036493;0.59376204
11:12:12:751;0.4405331;10.036493;0.59376204
11:12:12:751;0.4405331;10.036493;0.59376204
11:12:12:751;0.4405331;10.036493;0.59376204
11:12:12:904;0.24899697;9.595961;-0.7278373
11:12:12:904;0.24899697;9.595961;-0.7278373
11:12:12:904;0.24899697;9.595961;-0.7278373
11:12:12:904;0.24899697;9.595961;-0.7278373
11:12:12:904;0.24899697;9.595961;-0.7278373
11:12:12:904;0.24899697;9.595961;-0.7278373
11:12:12:904;0.24899697;9.595961;-0.7278373
11:12:12:904;0.24899697;9.595961;-0.7278373
11:12:12:904;0.24899697;9.595961;-0.7278373
11:12:12:904;0.24899697;9.595961;-0.7278373
11:12:12:904;0.24899697;9.595961;-0.7278373
11:12:12:904;0.24899697;9.595961;-0.7278373
11:12:12:904;0.24899697;9.595961;-0.7278373
11:12:12:904;0.24899697;9.595961;-0.7278373
11:12:13:011;-0.2873042;9.653421;0.4213795
11:12:13:011;-0.2873042;9.653421;0.4213795
11:12:13:011;-0.2873042;9.653421;0.4213795
11:12:13:011;-0.2873042;9.653421;0.4213795
11:12:13:011;-0.2873042;9.653421;0.4213795
11:12:13:011;-0.2873042;9.653421;0.4213795
11:12:13:011;-0.2873042;9.653421;0.4213795
11:12:13:011;-0.2873042;9.653421;0.4213795
11:12:13:011;-0.2873042;9.653421;0.4213795
11:12:13:011;-0.2873042;9.653421;0.4213795
11:12:13:011;-0.2873042;9.653421;0.4213795
11:12:13:011;-0.2873042;9.653421;0.4213795
11:12:13:011;-0.2873042;9.653421;0.4213795
11:12:13:011;-0.2873042;9.653421;0.4213795
11:12:13:011;-0.2873042;9.653421;0.4213795
11:12:13:131;-0.19153613;10.43872;-1.1109096
11:12:13:131;-0.19153613;10.43872;-1.1109096
11:12:13:131;-0.19153613;10.43872;-1.1109096
11:12:13:131;-0.19153613;10.43872;-1.1109096
11:12:13:131;-0.19153613;10.43872;-1.1109096
11:12:13:131;-0.19153613;10.43872;-1.1109096
11:12:13:131;-0.19153613;10.43872;-1.1109096
11:12:13:131;-0.19153613;10.43872;-1.1109096
11:12:13:131;-0.19153613;10.43872;-1.1109096
11:12:13:131;-0.19153613;10.43872;-1.1109096
11:12:13:131;-0.19153613;10.43872;-1.1109096
11:12:13:131;-0.19153613;10.43872;-1.1109096
11:12:13:131;-0.19153613;10.43872;-1.1109096
11:12:13:131;-0.19153613;10.43872;-1.1109096
11:12:13:131;-0.19153613;10.43872;-1.1109096
11:12:13:248;0.5746084;10.151415;-0.2681506
11:12:13:248;0.5746084;10.151415;-0.2681506
11:12:13:248;0.5746084;10.151415;-0.2681506
11:12:13:248;0.5746084;10.151415;-0.2681506
11:12:13:248;0.5746084;10.151415;-0.2681506
11:12:13:248;0.5746084;10.151415;-0.2681506
11:12:13:248;0.5746084;10.151415;-0.2681506
11:12:13:248;0.5746084;10.151415;-0.2681506
11:12:13:248;0.5746084;10.151415;-0.2681506
11:12:13:248;0.5746084;10.151415;-0.2681506
11:12:13:248;0.5746084;10.151415;-0.2681506
11:12:13:248;0.5746084;10.151415;-0.2681506
11:12:13:248;0.5746084;10.151415;-0.2681506
11:12:13:248;0.5746084;10.151415;-0.2681506
11:12:13:248;0.5746084;10.151415;-0.2681506
11:12:13:365;0.40222588;10.43872;-0.6703765
11:12:13:365;0.40222588;10.43872;-0.6703765
11:12:13:365;0.40222588;10.43872;-0.6703765
11:12:13:365;0.40222588;10.43872;-0.6703765
11:12:13:365;0.40222588;10.43872;-0.6703765
11:12:13:365;0.40222588;10.43872;-0.6703765
11:12:13:365;0.40222588;10.43872;-0.6703765
11:12:13:365;0.40222588;10.43872;-0.6703765
11:12:13:365;0.40222588;10.43872;-0.6703765
11:12:13:365;0.40222588;10.43872;-0.6703765
11:12:13:365;0.40222588;10.43872;-0.6703765
11:12:13:365;0.40222588;10.43872;-0.6703765
11:12:13:365;0.40222588;10.43872;-0.6703765
11:12:13:365;0.40222588;10.43872;-0.6703765
11:12:13:474;0.47884035;9.844957;0.038307227
11:12:13:474;0.47884035;9.844957;0.038307227
11:12:13:474;0.47884035;9.844957;0.038307227
11:12:13:474;0.47884035;9.844957;0.038307227
11:12:13:474;0.47884035;9.844957;0.038307227
11:12:13:474;0.47884035;9.844957;0.038307227
11:12:13:474;0.47884035;9.844957;0.038307227
11:12:13:474;0.47884035;9.844957;0.038307227
11:12:13:474;0.47884035;9.844957;0.038307227
11:12:13:474;0.47884035;9.844957;0.038307227
11:12:13:474;0.47884035;9.844957;0.038307227
11:12:13:474;0.47884035;9.844957;0.038307227
11:12:13:474;0.47884035;9.844957;0.038307227
11:12:13:474;0.47884035;9.844957;0.038307227
11:12:13:474;0.47884035;9.844957;0.038307227
11:12:13:588;-0.05746084;9.768343;0.4213795
11:12:13:588;-0.05746084;9.768343;0.4213795
11:12:13:588;-0.05746084;9.768343;0.4213795
11:12:13:588;-0.05746084;9.768343;0.4213795
11:12:13:588;-0.05746084;9.768343;0.4213795
11:12:13:588;-0.05746084;9.768343;0.4213795
11:12:13:588;-0.05746084;9.768343;0.4213795
11:12:13:588;-0.05746084;9.768343;0.4213795
11:12:13:588;-0.05746084;9.768343;0.4213795
11:12:13:588;-0.05746084;9.768343;0.4213795
11:12:13:588;-0.05746084;9.768343;0.4213795
11:12:13:588;-0.05746084;9.768343;0.4213795
11:12:13:588;-0.05746084;9.768343;0.4213795
11:12:13:588;-0.05746084;9.768343;0.4213795
11:12:13:588;-0.05746084;9.768343;0.4213795
11:12:13:588;-0.05746084;9.768343;0.4213795
11:12:13:588;-0.05746084;9.768343;0.4213795
11:12:13:588;-0.05746084;9.768343;0.4213795
11:12:13:727;0.63206923;10.01734;-0.11492168
11:12:13:727;0.63206923;10.01734;-0.11492168
11:12:13:727;0.63206923;10.01734;-0.11492168
11:12:13:727;0.63206923;10.01734;-0.11492168
11:12:13:727;0.63206923;10.01734;-0.11492168
11:12:13:727;0.63206923;10.01734;-0.11492168
11:12:13:727;0.63206923;10.01734;-0.11492168
11:12:13:727;0.63206923;10.01734;-0.11492168
11:12:13:727;0.63206923;10.01734;-0.11492168
11:12:13:727;0.63206923;10.01734;-0.11492168
11:12:13:727;0.63206923;10.01734;-0.11492168
11:12:13:727;0.63206923;10.01734;-0.11492168
11:12:13:727;0.63206923;10.01734;-0.11492168
11:12:13:727;0.63206923;10.01734;-0.11492168
11:12:13:842;0.5554548;10.572795;-0.51714754
11:12:13:842;0.5554548;10.572795;-0.51714754
11:12:13:842;0.5554548;10.572795;-0.51714754
11:12:13:842;0.5554548;10.572795;-0.51714754
11:12:13:842;0.5554548;10.572795;-0.51714754
11:12:13:842;0.5554548;10.572795;-0.51714754
11:12:13:842;0.5554548;10.572795;-0.51714754
11:12:13:842;0.5554548;10.572795;-0.51714754
11:12:13:842;0.5554548;10.572795;-0.51714754
11:12:13:842;0.5554548;10.572795;-0.51714754
11:12:13:842;0.5554548;10.572795;-0.51714754
11:12:13:842;0.5554548;10.572795;-0.51714754
11:12:13:842;0.5554548;10.572795;-0.51714754
11:12:13:944;0.40222588;9.212888;-0.21068975
11:12:13:944;0.40222588;9.212888;-0.21068975
11:12:13:944;0.40222588;9.212888;-0.21068975
11:12:13:944;0.40222588;9.212888;-0.21068975
11:12:13:944;0.40222588;9.212888;-0.21068975
11:12:13:944;0.40222588;9.212888;-0.21068975
11:12:13:944;0.40222588;9.212888;-0.21068975
11:12:13:944;0.40222588;9.212888;-0.21068975
11:12:13:944;0.40222588;9.212888;-0.21068975
11:12:13:944;0.40222588;9.212888;-0.21068975
11:12:13:944;0.40222588;9.212888;-0.21068975
11:12:13:944;0.40222588;9.212888;-0.21068975
11:12:13:944;0.40222588;9.212888;-0.21068975
11:12:13:944;0.40222588;9.212888;-0.21068975
11:12:13:944;0.40222588;9.212888;-0.21068975
11:12:13:944;0.40222588;9.212888;-0.21068975
11:12:14:064;0.019153614;9.9790325;-0.21068975
11:12:14:064;0.019153614;9.9790325;-0.21068975
11:12:14:064;0.019153614;9.9790325;-0.21068975
11:12:14:064;0.019153614;9.9790325;-0.21068975
11:12:14:064;0.019153614;9.9790325;-0.21068975
11:12:14:064;0.019153614;9.9790325;-0.21068975
11:12:14:064;0.019153614;9.9790325;-0.21068975
11:12:14:064;0.019153614;9.9790325;-0.21068975
11:12:14:064;0.019153614;9.9790325;-0.21068975
11:12:14:064;0.019153614;9.9790325;-0.21068975
11:12:14:064;0.019153614;9.9790325;-0.21068975
11:12:14:064;0.019153614;9.9790325;-0.21068975
11:12:14:064;0.019153614;9.9790325;-0.21068975
11:12:14:064;0.019153614;9.9790325;-0.21068975
11:12:14:064;0.019153614;9.9790325;-0.21068975
11:12:14:182;-0.32561144;9.9790325;-0.2873042
11:12:14:182;-0.32561144;9.9790325;-0.2873042
11:12:14:182;-0.32561144;9.9790325;-0.2873042
11:12:14:182;-0.32561144;9.9790325;-0.2873042
11:12:14:182;-0.32561144;9.9790325;-0.2873042
11:12:14:182;-0.32561144;9.9790325;-0.2873042
11:12:14:182;-0.32561144;9.9790325;-0.2873042
11:12:14:182;-0.32561144;9.9790325;-0.2873042
11:12:14:182;-0.32561144;9.9790325;-0.2873042
11:12:14:182;-0.32561144;9.9790325;-0.2873042
11:12:14:182;-0.32561144;9.9790325;-0.2873042
11:12:14:182;-0.32561144;9.9790325;-0.2873042
11:12:14:182;-0.32561144;9.9790325;-0.2873042
11:12:14:182;-0.32561144;9.9790325;-0.2873042
11:12:14:182;-0.32561144;9.9790325;-0.2873042
11:12:14:300;0.7469909;10.630256;-0.80445176
11:12:14:300;0.7469909;10.630256;-0.80445176
11:12:14:300;0.7469909;10.630256;-0.80445176
11:12:14:300;0.7469909;10.630256;-0.80445176
11:12:14:300;0.7469909;10.630256;-0.80445176
11:12:14:300;0.7469909;10.630256;-0.80445176
11:12:14:300;0.7469909;10.630256;-0.80445176
11:12:14:300;0.7469909;10.630256;-0.80445176
11:12:14:300;0.7469909;10.630256;-0.80445176
11:12:14:300;0.7469909;10.630256;-0.80445176
11:12:14:300;0.7469909;10.630256;-0.80445176
11:12:14:300;0.7469909;10.630256;-0.80445176
11:12:14:300;0.7469909;10.630256;-0.80445176
11:12:14:300;0.7469909;10.630256;-0.80445176
11:12:14:300;0.7469909;10.630256;-0.80445176
11:12:14:418;-0.30645782;9.3661175;-0.30645782
11:12:14:418;-0.30645782;9.3661175;-0.30645782
11:12:14:418;-0.30645782;9.3661175;-0.30645782
11:12:14:418;-0.30645782;9.3661175;-0.30645782
11:12:14:418;-0.30645782;9.3661175;-0.30645782
11:12:14:418;-0.30645782;9.3661175;-0.30645782
11:12:14:418;-0.30645782;9.3661175;-0.30645782
11:12:14:418;-0.30645782;9.3661175;-0.30645782
11:12:14:418;-0.30645782;9.3661175;-0.30645782
11:12:14:418;-0.30645782;9.3661175;-0.30645782
11:12:14:418;-0.30645782;9.3661175;-0.30645782
11:12:14:418;-0.30645782;9.3661175;-0.30645782
11:12:14:418;-0.30645782;9.3661175;-0.30645782
11:12:14:418;-0.30645782;9.3661175;-0.30645782
11:12:14:418;-0.30645782;9.3661175;-0.30645782
11:12:14:534;0.59376204;9.959879;-0.11492168
11:12:14:534;0.59376204;9.959879;-0.11492168
11:12:14:534;0.59376204;9.959879;-0.11492168
11:12:14:534;0.59376204;9.959879;-0.11492168
11:12:14:534;0.59376204;9.959879;-0.11492168
11:12:14:534;0.59376204;9.959879;-0.11492168
11:12:14:534;0.59376204;9.959879;-0.11492168
11:12:14:534;0.59376204;9.959879;-0.11492168
11:12:14:534;0.59376204;9.959879;-0.11492168
11:12:14:534;0.59376204;9.959879;-0.11492168
11:12:14:534;0.59376204;9.959879;-0.11492168
11:12:14:534;0.59376204;9.959879;-0.11492168
11:12:14:534;0.59376204;9.959879;-0.11492168
11:12:14:534;0.59376204;9.959879;-0.11492168
11:12:14:534;0.59376204;9.959879;-0.11492168
11:12:14:650;0.095768064;10.036493;0.019153614
11:12:14:650;0.095768064;10.036493;0.019153614
11:12:14:650;0.095768064;10.036493;0.019153614
11:12:14:650;0.095768064;10.036493;0.019153614
11:12:14:650;0.095768064;10.036493;0.019153614
11:12:14:650;0.095768064;10.036493;0.019153614
11:12:14:650;0.095768064;10.036493;0.019153614
11:12:14:650;0.095768064;10.036493;0.019153614
11:12:14:650;0.095768064;10.036493;0.019153614
11:12:14:650;0.095768064;10.036493;0.019153614
11:12:14:650;0.095768064;10.036493;0.019153614
11:12:14:650;0.095768064;10.036493;0.019153614
11:12:14:650;0.095768064;10.036493;0.019153614
11:12:14:650;0.095768064;10.036493;0.019153614
11:12:14:762;0.59376204;10.170568;-0.6703765
11:12:14:762;0.59376204;10.170568;-0.6703765
11:12:14:762;0.59376204;10.170568;-0.6703765
11:12:14:762;0.59376204;10.170568;-0.6703765
11:12:14:762;0.59376204;10.170568;-0.6703765
11:12:14:762;0.59376204;10.170568;-0.6703765
11:12:14:762;0.59376204;10.170568;-0.6703765
11:12:14:762;0.59376204;10.170568;-0.6703765
11:12:14:762;0.59376204;10.170568;-0.6703765
11:12:14:762;0.59376204;10.170568;-0.6703765
11:12:14:762;0.59376204;10.170568;-0.6703765
11:12:14:762;0.59376204;10.170568;-0.6703765
11:12:14:762;0.59376204;10.170568;-0.6703765
11:12:14:762;0.59376204;10.170568;-0.6703765
11:12:14:762;0.59376204;10.170568;-0.6703765
11:12:14:881;0.49799395;10.093954;-0.78529817
11:12:14:881;0.49799395;10.093954;-0.78529817
11:12:14:881;0.49799395;10.093954;-0.78529817
11:12:14:881;0.49799395;10.093954;-0.78529817
11:12:14:881;0.49799395;10.093954;-0.78529817
11:12:14:881;0.49799395;10.093954;-0.78529817
11:12:14:881;0.49799395;10.093954;-0.78529817
11:12:14:881;0.49799395;10.093954;-0.78529817
11:12:14:881;0.49799395;10.093954;-0.78529817
11:12:14:881;0.49799395;10.093954;-0.78529817
11:12:14:881;0.49799395;10.093954;-0.78529817
11:12:14:881;0.49799395;10.093954;-0.78529817
11:12:14:881;0.49799395;10.093954;-0.78529817
11:12:14:881;0.49799395;10.093954;-0.78529817
11:12:14:881;0.49799395;10.093954;-0.78529817
11:12:14:998;-0.2681506;10.113108;0.019153614
11:12:14:998;-0.2681506;10.113108;0.019153614
11:12:14:998;-0.2681506;10.113108;0.019153614
11:12:14:998;-0.2681506;10.113108;0.019153614
11:12:14:998;-0.2681506;10.113108;0.019153614
11:12:14:998;-0.2681506;10.113108;0.019153614
11:12:14:998;-0.2681506;10.113108;0.019153614
11:12:14:998;-0.2681506;10.113108;0.019153614
11:12:14:998;-0.2681506;10.113108;0.019153614
11:12:14:998;-0.2681506;10.113108;0.019153614
11:12:14:998;-0.2681506;10.113108;0.019153614
11:12:14:998;-0.2681506;10.113108;0.019153614
11:12:14:998;-0.2681506;10.113108;0.019153614
11:12:14:998;-0.2681506;10.113108;0.019153614
11:12:14:998;-0.2681506;10.113108;0.019153614
11:12:14:998;-0.2681506;10.113108;0.019153614
11:12:15:120;-0.15322891;9.5385;0.1340753
11:12:15:120;-0.15322891;9.5385;0.1340753
11:12:15:120;-0.15322891;9.5385;0.1340753
11:12:15:120;-0.15322891;9.5385;0.1340753
11:12:15:120;-0.15322891;9.5385;0.1340753
11:12:15:120;-0.15322891;9.5385;0.1340753
11:12:15:120;-0.15322891;9.5385;0.1340753
11:12:15:120;-0.15322891;9.5385;0.1340753
11:12:15:120;-0.15322891;9.5385;0.1340753
11:12:15:120;-0.15322891;9.5385;0.1340753
11:12:15:120;-0.15322891;9.5385;0.1340753
11:12:15:120;-0.15322891;9.5385;0.1340753
11:12:15:120;-0.15322891;9.5385;0.1340753
11:12:15:120;-0.15322891;9.5385;0.1340753
11:12:15:120;-0.15322891;9.5385;0.1340753
11:12:15:239;0.7278373;9.825804;0.2873042
11:12:15:239;0.7278373;9.825804;0.2873042
11:12:15:239;0.7278373;9.825804;0.2873042
11:12:15:239;0.7278373;9.825804;0.2873042
11:12:15:239;0.7278373;9.825804;0.2873042
11:12:15:239;0.7278373;9.825804;0.2873042
11:12:15:239;0.7278373;9.825804;0.2873042
11:12:15:239;0.7278373;9.825804;0.2873042
11:12:15:239;0.7278373;9.825804;0.2873042
11:12:15:239;0.7278373;9.825804;0.2873042
11:12:15:239;0.7278373;9.825804;0.2873042
11:12:15:239;0.7278373;9.825804;0.2873042
11:12:15:239;0.7278373;9.825804;0.2873042
11:12:15:239;0.7278373;9.825804;0.2873042
11:12:15:239;0.7278373;9.825804;0.2873042
11:12:15:239;0.7278373;9.825804;0.2873042
11:12:15:239;0.7278373;9.825804;0.2873042
11:12:15:370;0.38307226;10.43872;0.019153614
11:12:15:370;0.38307226;10.43872;0.019153614
11:12:15:370;0.38307226;10.43872;0.019153614
11:12:15:370;0.38307226;10.43872;0.019153614
11:12:15:370;0.38307226;10.43872;0.019153614
11:12:15:370;0.38307226;10.43872;0.019153614
11:12:15:370;0.38307226;10.43872;0.019153614
11:12:15:370;0.38307226;10.43872;0.019153614
11:12:15:370;0.38307226;10.43872;0.019153614
11:12:15:370;0.38307226;10.43872;0.019153614
11:12:15:370;0.38307226;10.43872;0.019153614
11:12:15:370;0.38307226;10.43872;0.019153614
11:12:15:370;0.38307226;10.43872;0.019153614
11:12:15:474;-0.15322891;9.615114;0.076614454
11:12:15:474;-0.15322891;9.615114;0.076614454
11:12:15:474;-0.15322891;9.615114;0.076614454
11:12:15:474;-0.15322891;9.615114;0.076614454
11:12:15:474;-0.15322891;9.615114;0.076614454
11:12:15:474;-0.15322891;9.615114;0.076614454
11:12:15:474;-0.15322891;9.615114;0.076614454
11:12:15:474;-0.15322891;9.615114;0.076614454
11:12:15:474;-0.15322891;9.615114;0.076614454
11:12:15:474;-0.15322891;9.615114;0.076614454
11:12:15:474;-0.15322891;9.615114;0.076614454
11:12:15:474;-0.15322891;9.615114;0.076614454
11:12:15:474;-0.15322891;9.615114;0.076614454
11:12:15:474;-0.15322891;9.615114;0.076614454
11:12:15:474;-0.15322891;9.615114;0.076614454
11:12:15:593;0.4213795;9.921572;-0.36391866
11:12:15:593;0.4213795;9.921572;-0.36391866
11:12:15:593;0.4213795;9.921572;-0.36391866
11:12:15:593;0.4213795;9.921572;-0.36391866
11:12:15:593;0.4213795;9.921572;-0.36391866
11:12:15:593;0.4213795;9.921572;-0.36391866
11:12:15:593;0.4213795;9.921572;-0.36391866
11:12:15:593;0.4213795;9.921572;-0.36391866
11:12:15:593;0.4213795;9.921572;-0.36391866
11:12:15:593;0.4213795;9.921572;-0.36391866
11:12:15:593;0.4213795;9.921572;-0.36391866
11:12:15:593;0.4213795;9.921572;-0.36391866
11:12:15:593;0.4213795;9.921572;-0.36391866
11:12:15:593;0.4213795;9.921572;-0.36391866
11:12:15:697;-0.4213795;10.802638;-0.6895301
11:12:15:697;-0.4213795;10.802638;-0.6895301
11:12:15:697;-0.4213795;10.802638;-0.6895301
11:12:15:697;-0.4213795;10.802638;-0.6895301
11:12:15:697;-0.4213795;10.802638;-0.6895301
11:12:15:697;-0.4213795;10.802638;-0.6895301
11:12:15:697;-0.4213795;10.802638;-0.6895301
11:12:15:697;-0.4213795;10.802638;-0.6895301
11:12:15:697;-0.4213795;10.802638;-0.6895301
11:12:15:697;-0.4213795;10.802638;-0.6895301
11:12:15:697;-0.4213795;10.802638;-0.6895301
11:12:15:697;-0.4213795;10.802638;-0.6895301
11:12:15:697;-0.4213795;10.802638;-0.6895301
11:12:15:697;-0.4213795;10.802638;-0.6895301
11:12:15:697;-0.4213795;10.802638;-0.6895301
11:12:15:817;-0.40222588;9.921572;-0.4213795
11:12:15:817;-0.40222588;9.921572;-0.4213795
11:12:15:817;-0.40222588;9.921572;-0.4213795
11:12:15:817;-0.40222588;9.921572;-0.4213795
11:12:15:817;-0.40222588;9.921572;-0.4213795
11:12:15:817;-0.40222588;9.921572;-0.4213795
11:12:15:817;-0.40222588;9.921572;-0.4213795
11:12:15:817;-0.40222588;9.921572;-0.4213795
11:12:15:817;-0.40222588;9.921572;-0.4213795
11:12:15:817;-0.40222588;9.921572;-0.4213795
11:12:15:817;-0.40222588;9.921572;-0.4213795
11:12:15:817;-0.40222588;9.921572;-0.4213795
11:12:15:817;-0.40222588;9.921572;-0.4213795
11:12:15:817;-0.40222588;9.921572;-0.4213795
11:12:15:817;-0.40222588;9.921572;-0.4213795
11:12:15:930;-0.4213795;9.902418;0.34476504
11:12:15:930;-0.4213795;9.902418;0.34476504
11:12:15:930;-0.4213795;9.902418;0.34476504
11:12:15:930;-0.4213795;9.902418;0.34476504
11:12:15:930;-0.4213795;9.902418;0.34476504
11:12:15:930;-0.4213795;9.902418;0.34476504
11:12:15:930;-0.4213795;9.902418;0.34476504
11:12:15:930;-0.4213795;9.902418;0.34476504
11:12:15:930;-0.4213795;9.902418;0.34476504
11:12:15:930;-0.4213795;9.902418;0.34476504
11:12:15:930;-0.4213795;9.902418;0.34476504
11:12:15:930;-0.4213795;9.902418;0.34476504
11:12:15:930;-0.4213795;9.902418;0.34476504
11:12:16:035;0.019153614;9.883265;-0.63206923
11:12:16:035;0.019153614;9.883265;-0.63206923
11:12:16:035;0.019153614;9.883265;-0.63206923
11:12:16:035;0.019153614;9.883265;-0.63206923
11:12:16:035;0.019153614;9.883265;-0.63206923
11:12:16:035;0.019153614;9.883265;-0.63206923
11:12:16:035;0.019153614;9.883265;-0.63206923
11:12:16:035;0.019153614;9.883265;-0.63206923
11:12:16:035;0.019153614;9.883265;-0.63206923
11:12:16:035;0.019153614;9.883265;-0.63206923
11:12:16:035;0.019153614;9.883265;-0.63206923
11:12:16:035;0.019153614;9.883265;-0.63206923
11:12:16:035;0.019153614;9.883265;-0.63206923
11:12:16:035;0.019153614;9.883265;-0.63206923
11:12:16:035;0.019153614;9.883265;-0.63206923
11:12:16:035;0.019153614;9.883265;-0.63206923
11:12:16:035;0.019153614;9.883265;-0.63206923
11:12:16:165;-0.21068975;10.362105;-0.34476504
11:12:16:165;-0.21068975;10.362105;-0.34476504
11:12:16:165;-0.21068975;10.362105;-0.34476504
11:12:16:165;-0.21068975;10.362105;-0.34476504
11:12:16:165;-0.21068975;10.362105;-0.34476504
11:12:16:165;-0.21068975;10.362105;-0.34476504
11:12:16:165;-0.21068975;10.362105;-0.34476504
11:12:16:165;-0.21068975;10.362105;-0.34476504
11:12:16:165;-0.21068975;10.362105;-0.34476504
11:12:16:165;-0.21068975;10.362105;-0.34476504
11:12:16:165;-0.21068975;10.362105;-0.34476504
11:12:16:165;-0.21068975;10.362105;-0.34476504
11:12:16:165;-0.21068975;10.362105;-0.34476504
11:12:16:165;-0.21068975;10.362105;-0.34476504
11:12:16:274;-0.24899697;9.921572;-0.7086837
11:12:16:274;-0.24899697;9.921572;-0.7086837
11:12:16:274;-0.24899697;9.921572;-0.7086837
11:12:16:274;-0.24899697;9.921572;-0.7086837
11:12:16:274;-0.24899697;9.921572;-0.7086837
11:12:16:274;-0.24899697;9.921572;-0.7086837
11:12:16:274;-0.24899697;9.921572;-0.7086837
11:12:16:274;-0.24899697;9.921572;-0.7086837
11:12:16:274;-0.24899697;9.921572;-0.7086837
11:12:16:274;-0.24899697;9.921572;-0.7086837
11:12:16:274;-0.24899697;9.921572;-0.7086837
11:12:16:274;-0.24899697;9.921572;-0.7086837
11:12:16:274;-0.24899697;9.921572;-0.7086837
11:12:16:376;-0.05746084;9.595961;-0.34476504
11:12:16:376;-0.05746084;9.595961;-0.34476504
11:12:16:376;-0.05746084;9.595961;-0.34476504
11:12:16:376;-0.05746084;9.595961;-0.34476504
11:12:16:376;-0.05746084;9.595961;-0.34476504
11:12:16:376;-0.05746084;9.595961;-0.34476504
11:12:16:376;-0.05746084;9.595961;-0.34476504
11:12:16:376;-0.05746084;9.595961;-0.34476504
11:12:16:376;-0.05746084;9.595961;-0.34476504
11:12:16:376;-0.05746084;9.595961;-0.34476504
11:12:16:376;-0.05746084;9.595961;-0.34476504
11:12:16:376;-0.05746084;9.595961;-0.34476504
11:12:16:376;-0.05746084;9.595961;-0.34476504
11:12:16:376;-0.05746084;9.595961;-0.34476504
11:12:16:491;0.38307226;9.921572;0.5746084
11:12:16:491;0.38307226;9.921572;0.5746084
11:12:16:491;0.38307226;9.921572;0.5746084
11:12:16:491;0.38307226;9.921572;0.5746084
11:12:16:491;0.38307226;9.921572;0.5746084
11:12:16:491;0.38307226;9.921572;0.5746084
11:12:16:491;0.38307226;9.921572;0.5746084
11:12:16:491;0.38307226;9.921572;0.5746084
11:12:16:491;0.38307226;9.921572;0.5746084
11:12:16:491;0.38307226;9.921572;0.5746084
11:12:16:491;0.38307226;9.921572;0.5746084
11:12:16:491;0.38307226;9.921572;0.5746084
11:12:16:491;0.38307226;9.921572;0.5746084
11:12:16:491;0.38307226;9.921572;0.5746084
11:12:16:491;0.38307226;9.921572;0.5746084
11:12:16:608;-0.19153613;10.553641;-0.59376204
11:12:16:608;-0.19153613;10.553641;-0.59376204
11:12:16:608;-0.19153613;10.553641;-0.59376204
11:12:16:608;-0.19153613;10.553641;-0.59376204
11:12:16:608;-0.19153613;10.553641;-0.59376204
11:12:16:608;-0.19153613;10.553641;-0.59376204
11:12:16:608;-0.19153613;10.553641;-0.59376204
11:12:16:608;-0.19153613;10.553641;-0.59376204
11:12:16:608;-0.19153613;10.553641;-0.59376204
11:12:16:608;-0.19153613;10.553641;-0.59376204
11:12:16:608;-0.19153613;10.553641;-0.59376204
11:12:16:608;-0.19153613;10.553641;-0.59376204
11:12:16:608;-0.19153613;10.553641;-0.59376204
11:12:16:608;-0.19153613;10.553641;-0.59376204
11:12:16:608;-0.19153613;10.553641;-0.59376204
11:12:16:608;-0.19153613;10.553641;-0.59376204
11:12:16:608;-0.19153613;10.553641;-0.59376204
11:12:16:608;-0.19153613;10.553641;-0.59376204
11:12:16:608;-0.19153613;10.553641;-0.59376204
11:12:16:751;-0.076614454;9.940725;-0.63206923
11:12:16:751;-0.076614454;9.940725;-0.63206923
11:12:16:751;-0.076614454;9.940725;-0.63206923
11:12:16:751;-0.076614454;9.940725;-0.63206923
11:12:16:751;-0.076614454;9.940725;-0.63206923
11:12:16:751;-0.076614454;9.940725;-0.63206923
11:12:16:751;-0.076614454;9.940725;-0.63206923
11:12:16:751;-0.076614454;9.940725;-0.63206923
11:12:16:751;-0.076614454;9.940725;-0.63206923
11:12:16:751;-0.076614454;9.940725;-0.63206923
11:12:16:751;-0.076614454;9.940725;-0.63206923
11:12:16:751;-0.076614454;9.940725;-0.63206923
11:12:16:751;-0.076614454;9.940725;-0.63206923
11:12:16:858;0.40222588;10.419566;-0.38307226
11:12:16:858;0.40222588;10.419566;-0.38307226
11:12:16:858;0.40222588;10.419566;-0.38307226
11:12:16:858;0.40222588;10.419566;-0.38307226
11:12:16:858;0.40222588;10.419566;-0.38307226
11:12:16:858;0.40222588;10.419566;-0.38307226
11:12:16:858;0.40222588;10.419566;-0.38307226
11:12:16:858;0.40222588;10.419566;-0.38307226
11:12:16:858;0.40222588;10.419566;-0.38307226
11:12:16:858;0.40222588;10.419566;-0.38307226
11:12:16:858;0.40222588;10.419566;-0.38307226
11:12:16:858;0.40222588;10.419566;-0.38307226
11:12:16:858;0.40222588;10.419566;-0.38307226
11:12:16:960;0.11492168;10.668563;-0.842759
11:12:16:960;0.11492168;10.668563;-0.842759
11:12:16:960;0.11492168;10.668563;-0.842759
11:12:16:960;0.11492168;10.668563;-0.842759
11:12:16:960;0.11492168;10.668563;-0.842759
11:12:16:960;0.11492168;10.668563;-0.842759
11:12:16:960;0.11492168;10.668563;-0.842759
11:12:16:960;0.11492168;10.668563;-0.842759
11:12:16:960;0.11492168;10.668563;-0.842759
11:12:16:960;0.11492168;10.668563;-0.842759
11:12:16:960;0.11492168;10.668563;-0.842759
11:12:16:960;0.11492168;10.668563;-0.842759
11:12:16:960;0.11492168;10.668563;-0.842759
11:12:16:960;0.11492168;10.668563;-0.842759
11:12:16:960;0.11492168;10.668563;-0.842759
11:12:17:075;-0.05746084;10.01734;-0.40222588
11:12:17:075;-0.05746084;10.01734;-0.40222588
11:12:17:075;-0.05746084;10.01734;-0.40222588
11:12:17:075;-0.05746084;10.01734;-0.40222588
11:12:17:075;-0.05746084;10.01734;-0.40222588
11:12:17:075;-0.05746084;10.01734;-0.40222588
11:12:17:075;-0.05746084;10.01734;-0.40222588
11:12:17:075;-0.05746084;10.01734;-0.40222588
11:12:17:075;-0.05746084;10.01734;-0.40222588
11:12:17:075;-0.05746084;10.01734;-0.40222588
11:12:17:075;-0.05746084;10.01734;-0.40222588
11:12:17:075;-0.05746084;10.01734;-0.40222588
11:12:17:075;-0.05746084;10.01734;-0.40222588
11:12:17:075;-0.05746084;10.01734;-0.40222588
11:12:17:075;-0.05746084;10.01734;-0.40222588
11:12:17:075;-0.05746084;10.01734;-0.40222588
11:12:17:202;0.038307227;9.80665;-1.2066777
11:12:17:202;0.038307227;9.80665;-1.2066777
11:12:17:202;0.038307227;9.80665;-1.2066777
11:12:17:202;0.038307227;9.80665;-1.2066777
11:12:17:202;0.038307227;9.80665;-1.2066777
11:12:17:202;0.038307227;9.80665;-1.2066777
11:12:17:202;0.038307227;9.80665;-1.2066777
11:12:17:202;0.038307227;9.80665;-1.2066777
11:12:17:202;0.038307227;9.80665;-1.2066777
11:12:17:202;0.038307227;9.80665;-1.2066777
11:12:17:202;0.038307227;9.80665;-1.2066777
11:12:17:202;0.038307227;9.80665;-1.2066777
11:12:17:202;0.038307227;9.80665;-1.2066777
11:12:17:202;0.038307227;9.80665;-1.2066777
11:12:17:202;0.038307227;9.80665;-1.2066777
11:12:17:202;0.038307227;9.80665;-1.2066777
11:12:17:321;-0.2681506;9.232041;-0.30645782
11:12:17:321;-0.2681506;9.232041;-0.30645782
11:12:17:321;-0.2681506;9.232041;-0.30645782
11:12:17:321;-0.2681506;9.232041;-0.30645782
11:12:17:321;-0.2681506;9.232041;-0.30645782
11:12:17:321;-0.2681506;9.232041;-0.30645782
11:12:17:321;-0.2681506;9.232041;-0.30645782
11:12:17:321;-0.2681506;9.232041;-0.30645782
11:12:17:321;-0.2681506;9.232041;-0.30645782
11:12:17:321;-0.2681506;9.232041;-0.30645782
11:12:17:321;-0.2681506;9.232041;-0.30645782
11:12:17:321;-0.2681506;9.232041;-0.30645782
11:12:17:321;-0.2681506;9.232041;-0.30645782
11:12:17:423;-0.05746084;10.055647;-1.2258313
11:12:17:423;-0.05746084;10.055647;-1.2258313
11:12:17:423;-0.05746084;10.055647;-1.2258313
11:12:17:423;-0.05746084;10.055647;-1.2258313
11:12:17:423;-0.05746084;10.055647;-1.2258313
11:12:17:423;-0.05746084;10.055647;-1.2258313
11:12:17:423;-0.05746084;10.055647;-1.2258313
11:12:17:423;-0.05746084;10.055647;-1.2258313
11:12:17:423;-0.05746084;10.055647;-1.2258313
11:12:17:423;-0.05746084;10.055647;-1.2258313
11:12:17:423;-0.05746084;10.055647;-1.2258313
11:12:17:423;-0.05746084;10.055647;-1.2258313
11:12:17:423;-0.05746084;10.055647;-1.2258313
11:12:17:423;-0.05746084;10.055647;-1.2258313
11:12:17:423;-0.05746084;10.055647;-1.2258313
11:12:17:542;0.2873042;9.864111;-0.095768064
11:12:17:542;0.2873042;9.864111;-0.095768064
11:12:17:542;0.2873042;9.864111;-0.095768064
11:12:17:542;0.2873042;9.864111;-0.095768064
11:12:17:542;0.2873042;9.864111;-0.095768064
11:12:17:542;0.2873042;9.864111;-0.095768064
11:12:17:542;0.2873042;9.864111;-0.095768064
11:12:17:542;0.2873042;9.864111;-0.095768064
11:12:17:542;0.2873042;9.864111;-0.095768064
11:12:17:542;0.2873042;9.864111;-0.095768064
11:12:17:542;0.2873042;9.864111;-0.095768064
11:12:17:542;0.2873042;9.864111;-0.095768064
11:12:17:542;0.2873042;9.864111;-0.095768064
11:12:17:542;0.2873042;9.864111;-0.095768064
11:12:17:542;0.2873042;9.864111;-0.095768064
