Time_Accel;AccelX;AccelY;AccelZ
11:26:02:710;-0.095768064;9.270349;-0.2681506
11:26:02:710;-0.095768064;9.270349;-0.2681506
11:26:02:710;-0.095768064;9.270349;-0.2681506
11:26:02:710;-0.095768064;9.270349;-0.2681506
11:26:02:710;-0.095768064;9.270349;-0.2681506
11:26:02:710;-0.095768064;9.270349;-0.2681506
11:26:02:710;-0.095768064;9.270349;-0.2681506
11:26:02:826;-0.17238252;9.940725;-0.24899697
11:26:02:826;-0.17238252;9.940725;-0.24899697
11:26:02:826;-0.17238252;9.940725;-0.24899697
11:26:02:826;-0.17238252;9.940725;-0.24899697
11:26:02:826;-0.17238252;9.940725;-0.24899697
11:26:02:826;-0.17238252;9.940725;-0.24899697
11:26:02:826;-0.17238252;9.940725;-0.24899697
11:26:02:826;-0.17238252;9.940725;-0.24899697
11:26:02:826;-0.17238252;9.940725;-0.24899697
11:26:02:826;-0.17238252;9.940725;-0.24899697
11:26:02:826;-0.17238252;9.940725;-0.24899697
11:26:02:826;-0.17238252;9.940725;-0.24899697
11:26:02:826;-0.17238252;9.940725;-0.24899697
11:26:02:928;0.47884035;9.385271;0.11492168
11:26:02:928;0.47884035;9.385271;0.11492168
11:26:02:928;0.47884035;9.385271;0.11492168
11:26:02:928;0.47884035;9.385271;0.11492168
11:26:02:928;0.47884035;9.385271;0.11492168
11:26:02:928;0.47884035;9.385271;0.11492168
11:26:02:928;0.47884035;9.385271;0.11492168
11:26:02:928;0.47884035;9.385271;0.11492168
11:26:02:928;0.47884035;9.385271;0.11492168
11:26:02:928;0.47884035;9.385271;0.11492168
11:26:02:928;0.47884035;9.385271;0.11492168
11:26:02:928;0.47884035;9.385271;0.11492168
11:26:02:928;0.47884035;9.385271;0.11492168
11:26:02:928;0.47884035;9.385271;0.11492168
11:26:02:928;0.47884035;9.385271;0.11492168
11:26:02:928;0.47884035;9.385271;0.11492168
11:26:03:047;-0.24899697;10.304645;-0.32561144
11:26:03:047;-0.24899697;10.304645;-0.32561144
11:26:03:047;-0.24899697;10.304645;-0.32561144
11:26:03:047;-0.24899697;10.304645;-0.32561144
11:26:03:047;-0.24899697;10.304645;-0.32561144
11:26:03:047;-0.24899697;10.304645;-0.32561144
11:26:03:047;-0.24899697;10.304645;-0.32561144
11:26:03:047;-0.24899697;10.304645;-0.32561144
11:26:03:047;-0.24899697;10.304645;-0.32561144
11:26:03:047;-0.24899697;10.304645;-0.32561144
11:26:03:047;-0.24899697;10.304645;-0.32561144
11:26:03:047;-0.24899697;10.304645;-0.32561144
11:26:03:047;-0.24899697;10.304645;-0.32561144
11:26:03:047;-0.24899697;10.304645;-0.32561144
11:26:03:162;-0.32561144;9.940725;0.22984336
11:26:03:162;-0.32561144;9.940725;0.22984336
11:26:03:162;-0.32561144;9.940725;0.22984336
11:26:03:162;-0.32561144;9.940725;0.22984336
11:26:03:162;-0.32561144;9.940725;0.22984336
11:26:03:162;-0.32561144;9.940725;0.22984336
11:26:03:162;-0.32561144;9.940725;0.22984336
11:26:03:162;-0.32561144;9.940725;0.22984336
11:26:03:162;-0.32561144;9.940725;0.22984336
11:26:03:162;-0.32561144;9.940725;0.22984336
11:26:03:162;-0.32561144;9.940725;0.22984336
11:26:03:162;-0.32561144;9.940725;0.22984336
11:26:03:162;-0.32561144;9.940725;0.22984336
11:26:03:162;-0.32561144;9.940725;0.22984336
11:26:03:162;-0.32561144;9.940725;0.22984336
11:26:03:162;-0.32561144;9.940725;0.22984336
11:26:03:162;-0.32561144;9.940725;0.22984336
11:26:03:292;-0.095768064;9.691729;0.05746084
11:26:03:292;-0.095768064;9.691729;0.05746084
11:26:03:292;-0.095768064;9.691729;0.05746084
11:26:03:292;-0.095768064;9.691729;0.05746084
11:26:03:292;-0.095768064;9.691729;0.05746084
11:26:03:292;-0.095768064;9.691729;0.05746084
11:26:03:292;-0.095768064;9.691729;0.05746084
11:26:03:292;-0.095768064;9.691729;0.05746084
11:26:03:292;-0.095768064;9.691729;0.05746084
11:26:03:292;-0.095768064;9.691729;0.05746084
11:26:03:292;-0.095768064;9.691729;0.05746084
11:26:03:292;-0.095768064;9.691729;0.05746084
11:26:03:292;-0.095768064;9.691729;0.05746084
11:26:03:396;-0.4213795;10.170568;-0.038307227
11:26:03:396;-0.4213795;10.170568;-0.038307227
11:26:03:396;-0.4213795;10.170568;-0.038307227
11:26:03:396;-0.4213795;10.170568;-0.038307227
11:26:03:396;-0.4213795;10.170568;-0.038307227
11:26:03:396;-0.4213795;10.170568;-0.038307227
11:26:03:396;-0.4213795;10.170568;-0.038307227
11:26:03:396;-0.4213795;10.170568;-0.038307227
11:26:03:396;-0.4213795;10.170568;-0.038307227
11:26:03:396;-0.4213795;10.170568;-0.038307227
11:26:03:396;-0.4213795;10.170568;-0.038307227
11:26:03:396;-0.4213795;10.170568;-0.038307227
11:26:03:396;-0.4213795;10.170568;-0.038307227
11:26:03:396;-0.4213795;10.170568;-0.038307227
11:26:03:396;-0.4213795;10.170568;-0.038307227
11:26:03:514;-0.1340753;10.821792;-0.7469909
11:26:03:514;-0.1340753;10.821792;-0.7469909
11:26:03:514;-0.1340753;10.821792;-0.7469909
11:26:03:514;-0.1340753;10.821792;-0.7469909
11:26:03:514;-0.1340753;10.821792;-0.7469909
11:26:03:514;-0.1340753;10.821792;-0.7469909
11:26:03:514;-0.1340753;10.821792;-0.7469909
11:26:03:514;-0.1340753;10.821792;-0.7469909
11:26:03:514;-0.1340753;10.821792;-0.7469909
11:26:03:514;-0.1340753;10.821792;-0.7469909
11:26:03:514;-0.1340753;10.821792;-0.7469909
11:26:03:514;-0.1340753;10.821792;-0.7469909
11:26:03:514;-0.1340753;10.821792;-0.7469909
11:26:03:514;-0.1340753;10.821792;-0.7469909
11:26:03:514;-0.1340753;10.821792;-0.7469909
11:26:03:632;-0.4213795;9.864111;0.24899697
11:26:03:632;-0.4213795;9.864111;0.24899697
11:26:03:632;-0.4213795;9.864111;0.24899697
11:26:03:632;-0.4213795;9.864111;0.24899697
11:26:03:632;-0.4213795;9.864111;0.24899697
11:26:03:632;-0.4213795;9.864111;0.24899697
11:26:03:632;-0.4213795;9.864111;0.24899697
11:26:03:632;-0.4213795;9.864111;0.24899697
11:26:03:632;-0.4213795;9.864111;0.24899697
11:26:03:632;-0.4213795;9.864111;0.24899697
11:26:03:632;-0.4213795;9.864111;0.24899697
11:26:03:632;-0.4213795;9.864111;0.24899697
11:26:03:632;-0.4213795;9.864111;0.24899697
11:26:03:632;-0.4213795;9.864111;0.24899697
11:26:03:632;-0.4213795;9.864111;0.24899697
11:26:03:749;0.61291564;10.28549;-0.9768343
11:26:03:749;0.61291564;10.28549;-0.9768343
11:26:03:749;0.61291564;10.28549;-0.9768343
11:26:03:749;0.61291564;10.28549;-0.9768343
11:26:03:749;0.61291564;10.28549;-0.9768343
11:26:03:749;0.61291564;10.28549;-0.9768343
11:26:03:749;0.61291564;10.28549;-0.9768343
11:26:03:749;0.61291564;10.28549;-0.9768343
11:26:03:749;0.61291564;10.28549;-0.9768343
11:26:03:749;0.61291564;10.28549;-0.9768343
11:26:03:749;0.61291564;10.28549;-0.9768343
11:26:03:749;0.61291564;10.28549;-0.9768343
11:26:03:749;0.61291564;10.28549;-0.9768343
11:26:03:749;0.61291564;10.28549;-0.9768343
11:26:03:749;0.61291564;10.28549;-0.9768343
11:26:03:866;0.11492168;9.346964;-0.30645782
11:26:03:866;0.11492168;9.346964;-0.30645782
11:26:03:866;0.11492168;9.346964;-0.30645782
11:26:03:866;0.11492168;9.346964;-0.30645782
11:26:03:866;0.11492168;9.346964;-0.30645782
11:26:03:866;0.11492168;9.346964;-0.30645782
11:26:03:866;0.11492168;9.346964;-0.30645782
11:26:03:866;0.11492168;9.346964;-0.30645782
11:26:03:866;0.11492168;9.346964;-0.30645782
11:26:03:866;0.11492168;9.346964;-0.30645782
11:26:03:866;0.11492168;9.346964;-0.30645782
11:26:03:866;0.11492168;9.346964;-0.30645782
11:26:03:866;0.11492168;9.346964;-0.30645782
11:26:03:866;0.11492168;9.346964;-0.30645782
11:26:03:866;0.11492168;9.346964;-0.30645782
11:26:03:984;0.4405331;9.902418;-1.1875241
11:26:03:984;0.4405331;9.902418;-1.1875241
11:26:03:984;0.4405331;9.902418;-1.1875241
11:26:03:984;0.4405331;9.902418;-1.1875241
11:26:03:984;0.4405331;9.902418;-1.1875241
11:26:03:984;0.4405331;9.902418;-1.1875241
11:26:03:984;0.4405331;9.902418;-1.1875241
11:26:03:984;0.4405331;9.902418;-1.1875241
11:26:03:984;0.4405331;9.902418;-1.1875241
11:26:03:984;0.4405331;9.902418;-1.1875241
11:26:03:984;0.4405331;9.902418;-1.1875241
11:26:03:984;0.4405331;9.902418;-1.1875241
11:26:03:984;0.4405331;9.902418;-1.1875241
11:26:03:984;0.4405331;9.902418;-1.1875241
11:26:03:984;0.4405331;9.902418;-1.1875241
11:26:03:984;0.4405331;9.902418;-1.1875241
11:26:03:984;0.4405331;9.902418;-1.1875241
11:26:03:984;0.4405331;9.902418;-1.1875241
11:26:03:984;0.4405331;9.902418;-1.1875241
11:26:03:984;0.4405331;9.902418;-1.1875241
11:26:04:133;0.5363012;9.768343;-0.63206923
11:26:04:133;0.5363012;9.768343;-0.63206923
11:26:04:133;0.5363012;9.768343;-0.63206923
11:26:04:133;0.5363012;9.768343;-0.63206923
11:26:04:133;0.5363012;9.768343;-0.63206923
11:26:04:133;0.5363012;9.768343;-0.63206923
11:26:04:133;0.5363012;9.768343;-0.63206923
11:26:04:133;0.5363012;9.768343;-0.63206923
11:26:04:133;0.5363012;9.768343;-0.63206923
11:26:04:133;0.5363012;9.768343;-0.63206923
11:26:04:133;0.5363012;9.768343;-0.63206923
11:26:04:133;0.5363012;9.768343;-0.63206923
11:26:04:133;0.5363012;9.768343;-0.63206923
11:26:04:238;0.36391866;10.323798;0.2681506
11:26:04:238;0.36391866;10.323798;0.2681506
11:26:04:238;0.36391866;10.323798;0.2681506
11:26:04:238;0.36391866;10.323798;0.2681506
11:26:04:238;0.36391866;10.323798;0.2681506
11:26:04:238;0.36391866;10.323798;0.2681506
11:26:04:238;0.36391866;10.323798;0.2681506
11:26:04:238;0.36391866;10.323798;0.2681506
11:26:04:238;0.36391866;10.323798;0.2681506
11:26:04:238;0.36391866;10.323798;0.2681506
11:26:04:238;0.36391866;10.323798;0.2681506
11:26:04:238;0.36391866;10.323798;0.2681506
11:26:04:238;0.36391866;10.323798;0.2681506
11:26:04:238;0.36391866;10.323798;0.2681506
11:26:04:238;0.36391866;10.323798;0.2681506
11:26:04:238;0.36391866;10.323798;0.2681506
11:26:04:238;0.36391866;10.323798;0.2681506
11:26:04:368;0.22984336;10.400413;-0.36391866
11:26:04:368;0.22984336;10.400413;-0.36391866
11:26:04:368;0.22984336;10.400413;-0.36391866
11:26:04:368;0.22984336;10.400413;-0.36391866
11:26:04:368;0.22984336;10.400413;-0.36391866
11:26:04:368;0.22984336;10.400413;-0.36391866
11:26:04:368;0.22984336;10.400413;-0.36391866
11:26:04:368;0.22984336;10.400413;-0.36391866
11:26:04:368;0.22984336;10.400413;-0.36391866
11:26:04:368;0.22984336;10.400413;-0.36391866
11:26:04:368;0.22984336;10.400413;-0.36391866
11:26:04:368;0.22984336;10.400413;-0.36391866
11:26:04:368;0.22984336;10.400413;-0.36391866
11:26:04:476;0.59376204;9.519346;-0.095768064
11:26:04:476;0.59376204;9.519346;-0.095768064
11:26:04:476;0.59376204;9.519346;-0.095768064
11:26:04:476;0.59376204;9.519346;-0.095768064
11:26:04:476;0.59376204;9.519346;-0.095768064
11:26:04:476;0.59376204;9.519346;-0.095768064
11:26:04:476;0.59376204;9.519346;-0.095768064
11:26:04:476;0.59376204;9.519346;-0.095768064
11:26:04:476;0.59376204;9.519346;-0.095768064
11:26:04:476;0.59376204;9.519346;-0.095768064
11:26:04:476;0.59376204;9.519346;-0.095768064
11:26:04:476;0.59376204;9.519346;-0.095768064
11:26:04:476;0.59376204;9.519346;-0.095768064
11:26:04:476;0.59376204;9.519346;-0.095768064
11:26:04:476;0.59376204;9.519346;-0.095768064
11:26:04:476;0.59376204;9.519346;-0.095768064
11:26:04:476;0.59376204;9.519346;-0.095768064
11:26:04:606;0.36391866;9.5385;0.30645782
11:26:04:606;0.36391866;9.5385;0.30645782
11:26:04:606;0.36391866;9.5385;0.30645782
11:26:04:606;0.36391866;9.5385;0.30645782
11:26:04:606;0.36391866;9.5385;0.30645782
11:26:04:606;0.36391866;9.5385;0.30645782
11:26:04:606;0.36391866;9.5385;0.30645782
11:26:04:606;0.36391866;9.5385;0.30645782
11:26:04:606;0.36391866;9.5385;0.30645782
11:26:04:606;0.36391866;9.5385;0.30645782
11:26:04:606;0.36391866;9.5385;0.30645782
11:26:04:606;0.36391866;9.5385;0.30645782
11:26:04:606;0.36391866;9.5385;0.30645782
11:26:04:709;0.17238252;10.726024;-0.5363012
11:26:04:709;0.17238252;10.726024;-0.5363012
11:26:04:709;0.17238252;10.726024;-0.5363012
11:26:04:709;0.17238252;10.726024;-0.5363012
11:26:04:709;0.17238252;10.726024;-0.5363012
11:26:04:709;0.17238252;10.726024;-0.5363012
11:26:04:709;0.17238252;10.726024;-0.5363012
11:26:04:709;0.17238252;10.726024;-0.5363012
11:26:04:709;0.17238252;10.726024;-0.5363012
11:26:04:709;0.17238252;10.726024;-0.5363012
11:26:04:709;0.17238252;10.726024;-0.5363012
11:26:04:709;0.17238252;10.726024;-0.5363012
11:26:04:709;0.17238252;10.726024;-0.5363012
11:26:04:709;0.17238252;10.726024;-0.5363012
11:26:04:709;0.17238252;10.726024;-0.5363012
11:26:04:825;0.34476504;9.940725;-0.21068975
11:26:04:825;0.34476504;9.940725;-0.21068975
11:26:04:825;0.34476504;9.940725;-0.21068975
11:26:04:825;0.34476504;9.940725;-0.21068975
11:26:04:825;0.34476504;9.940725;-0.21068975
11:26:04:825;0.34476504;9.940725;-0.21068975
11:26:04:825;0.34476504;9.940725;-0.21068975
11:26:04:825;0.34476504;9.940725;-0.21068975
11:26:04:825;0.34476504;9.940725;-0.21068975
11:26:04:825;0.34476504;9.940725;-0.21068975
11:26:04:825;0.34476504;9.940725;-0.21068975
11:26:04:825;0.34476504;9.940725;-0.21068975
11:26:04:825;0.34476504;9.940725;-0.21068975
11:26:04:825;0.34476504;9.940725;-0.21068975
11:26:04:825;0.34476504;9.940725;-0.21068975
11:26:04:943;0.9768343;9.002198;0.4405331
11:26:04:943;0.9768343;9.002198;0.4405331
11:26:04:943;0.9768343;9.002198;0.4405331
11:26:04:943;0.9768343;9.002198;0.4405331
11:26:04:943;0.9768343;9.002198;0.4405331
11:26:04:943;0.9768343;9.002198;0.4405331
11:26:04:943;0.9768343;9.002198;0.4405331
11:26:04:943;0.9768343;9.002198;0.4405331
11:26:04:943;0.9768343;9.002198;0.4405331
11:26:04:943;0.9768343;9.002198;0.4405331
11:26:04:943;0.9768343;9.002198;0.4405331
11:26:04:943;0.9768343;9.002198;0.4405331
11:26:04:943;0.9768343;9.002198;0.4405331
11:26:04:943;0.9768343;9.002198;0.4405331
11:26:05:051;0.9576807;10.055647;-0.30645782
11:26:05:051;0.9576807;10.055647;-0.30645782
11:26:05:051;0.9576807;10.055647;-0.30645782
11:26:05:051;0.9576807;10.055647;-0.30645782
11:26:05:051;0.9576807;10.055647;-0.30645782
11:26:05:051;0.9576807;10.055647;-0.30645782
11:26:05:051;0.9576807;10.055647;-0.30645782
11:26:05:051;0.9576807;10.055647;-0.30645782
11:26:05:051;0.9576807;10.055647;-0.30645782
11:26:05:051;0.9576807;10.055647;-0.30645782
11:26:05:051;0.9576807;10.055647;-0.30645782
11:26:05:051;0.9576807;10.055647;-0.30645782
11:26:05:051;0.9576807;10.055647;-0.30645782
11:26:05:051;0.9576807;10.055647;-0.30645782
11:26:05:158;0.7278373;9.653421;0.095768064
11:26:05:158;0.7278373;9.653421;0.095768064
11:26:05:158;0.7278373;9.653421;0.095768064
11:26:05:158;0.7278373;9.653421;0.095768064
11:26:05:158;0.7278373;9.653421;0.095768064
11:26:05:158;0.7278373;9.653421;0.095768064
11:26:05:158;0.7278373;9.653421;0.095768064
11:26:05:158;0.7278373;9.653421;0.095768064
11:26:05:158;0.7278373;9.653421;0.095768064
11:26:05:158;0.7278373;9.653421;0.095768064
11:26:05:158;0.7278373;9.653421;0.095768064
11:26:05:158;0.7278373;9.653421;0.095768064
11:26:05:158;0.7278373;9.653421;0.095768064
11:26:05:158;0.7278373;9.653421;0.095768064
11:26:05:158;0.7278373;9.653421;0.095768064
11:26:05:276;0.9576807;10.132261;-0.6895301
11:26:05:276;0.9576807;10.132261;-0.6895301
11:26:05:276;0.9576807;10.132261;-0.6895301
11:26:05:276;0.9576807;10.132261;-0.6895301
11:26:05:276;0.9576807;10.132261;-0.6895301
11:26:05:276;0.9576807;10.132261;-0.6895301
11:26:05:276;0.9576807;10.132261;-0.6895301
11:26:05:276;0.9576807;10.132261;-0.6895301
11:26:05:276;0.9576807;10.132261;-0.6895301
11:26:05:276;0.9576807;10.132261;-0.6895301
11:26:05:276;0.9576807;10.132261;-0.6895301
11:26:05:276;0.9576807;10.132261;-0.6895301
11:26:05:276;0.9576807;10.132261;-0.6895301
11:26:05:276;0.9576807;10.132261;-0.6895301
11:26:05:276;0.9576807;10.132261;-0.6895301
11:26:05:392;0.6703765;10.093954;0.32561144
11:26:05:392;0.6703765;10.093954;0.32561144
11:26:05:392;0.6703765;10.093954;0.32561144
11:26:05:392;0.6703765;10.093954;0.32561144
11:26:05:392;0.6703765;10.093954;0.32561144
11:26:05:392;0.6703765;10.093954;0.32561144
11:26:05:392;0.6703765;10.093954;0.32561144
11:26:05:392;0.6703765;10.093954;0.32561144
11:26:05:392;0.6703765;10.093954;0.32561144
11:26:05:392;0.6703765;10.093954;0.32561144
11:26:05:392;0.6703765;10.093954;0.32561144
11:26:05:392;0.6703765;10.093954;0.32561144
11:26:05:392;0.6703765;10.093954;0.32561144
11:26:05:392;0.6703765;10.093954;0.32561144
11:26:05:392;0.6703765;10.093954;0.32561144
11:26:05:509;0.32561144;10.611102;-0.8810662
11:26:05:509;0.32561144;10.611102;-0.8810662
11:26:05:509;0.32561144;10.611102;-0.8810662
11:26:05:509;0.32561144;10.611102;-0.8810662
11:26:05:509;0.32561144;10.611102;-0.8810662
11:26:05:509;0.32561144;10.611102;-0.8810662
11:26:05:509;0.32561144;10.611102;-0.8810662
11:26:05:509;0.32561144;10.611102;-0.8810662
11:26:05:509;0.32561144;10.611102;-0.8810662
11:26:05:509;0.32561144;10.611102;-0.8810662
11:26:05:509;0.32561144;10.611102;-0.8810662
11:26:05:509;0.32561144;10.611102;-0.8810662
11:26:05:509;0.32561144;10.611102;-0.8810662
11:26:05:509;0.32561144;10.611102;-0.8810662
11:26:05:509;0.32561144;10.611102;-0.8810662
11:26:05:509;0.32561144;10.611102;-0.8810662
11:26:05:509;0.32561144;10.611102;-0.8810662
11:26:05:509;0.32561144;10.611102;-0.8810662
11:26:05:649;0.51714754;9.730036;0.15322891
11:26:05:649;0.51714754;9.730036;0.15322891
11:26:05:649;0.51714754;9.730036;0.15322891
11:26:05:649;0.51714754;9.730036;0.15322891
11:26:05:649;0.51714754;9.730036;0.15322891
11:26:05:649;0.51714754;9.730036;0.15322891
11:26:05:649;0.51714754;9.730036;0.15322891
11:26:05:649;0.51714754;9.730036;0.15322891
11:26:05:649;0.51714754;9.730036;0.15322891
11:26:05:649;0.51714754;9.730036;0.15322891
11:26:05:649;0.51714754;9.730036;0.15322891
11:26:05:649;0.51714754;9.730036;0.15322891
11:26:05:649;0.51714754;9.730036;0.15322891
11:26:05:649;0.51714754;9.730036;0.15322891
11:26:05:763;0.7661445;9.461885;-0.4213795
11:26:05:763;0.7661445;9.461885;-0.4213795
11:26:05:763;0.7661445;9.461885;-0.4213795
11:26:05:763;0.7661445;9.461885;-0.4213795
11:26:05:763;0.7661445;9.461885;-0.4213795
11:26:05:763;0.7661445;9.461885;-0.4213795
11:26:05:763;0.7661445;9.461885;-0.4213795
11:26:05:763;0.7661445;9.461885;-0.4213795
11:26:05:763;0.7661445;9.461885;-0.4213795
11:26:05:763;0.7661445;9.461885;-0.4213795
11:26:05:763;0.7661445;9.461885;-0.4213795
11:26:05:763;0.7661445;9.461885;-0.4213795
11:26:05:763;0.7661445;9.461885;-0.4213795
11:26:05:763;0.7661445;9.461885;-0.4213795
11:26:05:763;0.7661445;9.461885;-0.4213795
11:26:05:881;0.7086837;10.228029;-1.0726024
11:26:05:881;0.7086837;10.228029;-1.0726024
11:26:05:881;0.7086837;10.228029;-1.0726024
11:26:05:881;0.7086837;10.228029;-1.0726024
11:26:05:881;0.7086837;10.228029;-1.0726024
11:26:05:881;0.7086837;10.228029;-1.0726024
11:26:05:881;0.7086837;10.228029;-1.0726024
11:26:05:881;0.7086837;10.228029;-1.0726024
11:26:05:881;0.7086837;10.228029;-1.0726024
11:26:05:881;0.7086837;10.228029;-1.0726024
11:26:05:881;0.7086837;10.228029;-1.0726024
11:26:05:881;0.7086837;10.228029;-1.0726024
11:26:05:881;0.7086837;10.228029;-1.0726024
11:26:05:881;0.7086837;10.228029;-1.0726024
11:26:05:881;0.7086837;10.228029;-1.0726024
11:26:05:999;0.24899697;10.91756;-1.1875241
11:26:05:999;0.24899697;10.91756;-1.1875241
11:26:05:999;0.24899697;10.91756;-1.1875241
11:26:05:999;0.24899697;10.91756;-1.1875241
11:26:05:999;0.24899697;10.91756;-1.1875241
11:26:05:999;0.24899697;10.91756;-1.1875241
11:26:05:999;0.24899697;10.91756;-1.1875241
11:26:05:999;0.24899697;10.91756;-1.1875241
11:26:05:999;0.24899697;10.91756;-1.1875241
11:26:05:999;0.24899697;10.91756;-1.1875241
11:26:05:999;0.24899697;10.91756;-1.1875241
11:26:05:999;0.24899697;10.91756;-1.1875241
11:26:05:999;0.24899697;10.91756;-1.1875241
11:26:05:999;0.24899697;10.91756;-1.1875241
11:26:05:999;0.24899697;10.91756;-1.1875241
11:26:06:111;0.095768064;10.879252;-0.7086837
11:26:06:111;0.095768064;10.879252;-0.7086837
11:26:06:111;0.095768064;10.879252;-0.7086837
11:26:06:111;0.095768064;10.879252;-0.7086837
11:26:06:111;0.095768064;10.879252;-0.7086837
11:26:06:111;0.095768064;10.879252;-0.7086837
11:26:06:111;0.095768064;10.879252;-0.7086837
11:26:06:111;0.095768064;10.879252;-0.7086837
11:26:06:111;0.095768064;10.879252;-0.7086837
11:26:06:111;0.095768064;10.879252;-0.7086837
11:26:06:111;0.095768064;10.879252;-0.7086837
11:26:06:111;0.095768064;10.879252;-0.7086837
11:26:06:111;0.095768064;10.879252;-0.7086837
11:26:06:111;0.095768064;10.879252;-0.7086837
11:26:06:111;0.095768064;10.879252;-0.7086837
11:26:06:228;1.1492168;10.151415;-0.82360536
11:26:06:228;1.1492168;10.151415;-0.82360536
11:26:06:228;1.1492168;10.151415;-0.82360536
11:26:06:228;1.1492168;10.151415;-0.82360536
11:26:06:228;1.1492168;10.151415;-0.82360536
11:26:06:228;1.1492168;10.151415;-0.82360536
11:26:06:228;1.1492168;10.151415;-0.82360536
11:26:06:228;1.1492168;10.151415;-0.82360536
11:26:06:228;1.1492168;10.151415;-0.82360536
11:26:06:228;1.1492168;10.151415;-0.82360536
11:26:06:228;1.1492168;10.151415;-0.82360536
11:26:06:228;1.1492168;10.151415;-0.82360536
11:26:06:228;1.1492168;10.151415;-0.82360536
11:26:06:329;0.7086837;9.749189;-0.38307226
11:26:06:329;0.7086837;9.749189;-0.38307226
11:26:06:329;0.7086837;9.749189;-0.38307226
11:26:06:329;0.7086837;9.749189;-0.38307226
11:26:06:329;0.7086837;9.749189;-0.38307226
11:26:06:329;0.7086837;9.749189;-0.38307226
11:26:06:329;0.7086837;9.749189;-0.38307226
11:26:06:329;0.7086837;9.749189;-0.38307226
11:26:06:329;0.7086837;9.749189;-0.38307226
11:26:06:329;0.7086837;9.749189;-0.38307226
11:26:06:329;0.7086837;9.749189;-0.38307226
11:26:06:329;0.7086837;9.749189;-0.38307226
11:26:06:329;0.7086837;9.749189;-0.38307226
11:26:06:329;0.7086837;9.749189;-0.38307226
11:26:06:329;0.7086837;9.749189;-0.38307226
11:26:06:448;0.076614454;9.9790325;-0.78529817
11:26:06:448;0.076614454;9.9790325;-0.78529817
11:26:06:448;0.076614454;9.9790325;-0.78529817
11:26:06:448;0.076614454;9.9790325;-0.78529817
11:26:06:448;0.076614454;9.9790325;-0.78529817
11:26:06:448;0.076614454;9.9790325;-0.78529817
11:26:06:448;0.076614454;9.9790325;-0.78529817
11:26:06:448;0.076614454;9.9790325;-0.78529817
11:26:06:448;0.076614454;9.9790325;-0.78529817
11:26:06:448;0.076614454;9.9790325;-0.78529817
11:26:06:448;0.076614454;9.9790325;-0.78529817
11:26:06:448;0.076614454;9.9790325;-0.78529817
11:26:06:448;0.076614454;9.9790325;-0.78529817
11:26:06:448;0.076614454;9.9790325;-0.78529817
11:26:06:448;0.076614454;9.9790325;-0.78529817
11:26:06:567;0.30645782;9.346964;-0.91937345
11:26:06:567;0.30645782;9.346964;-0.91937345
11:26:06:567;0.30645782;9.346964;-0.91937345
11:26:06:567;0.30645782;9.346964;-0.91937345
11:26:06:567;0.30645782;9.346964;-0.91937345
11:26:06:567;0.30645782;9.346964;-0.91937345
11:26:06:567;0.30645782;9.346964;-0.91937345
11:26:06:567;0.30645782;9.346964;-0.91937345
11:26:06:567;0.30645782;9.346964;-0.91937345
11:26:06:567;0.30645782;9.346964;-0.91937345
11:26:06:567;0.30645782;9.346964;-0.91937345
11:26:06:567;0.30645782;9.346964;-0.91937345
11:26:06:567;0.30645782;9.346964;-0.91937345
11:26:06:567;0.30645782;9.346964;-0.91937345
11:26:06:567;0.30645782;9.346964;-0.91937345
11:26:06:683;-0.095768064;10.496181;-1.2258313
11:26:06:683;-0.095768064;10.496181;-1.2258313
11:26:06:683;-0.095768064;10.496181;-1.2258313
11:26:06:683;-0.095768064;10.496181;-1.2258313
11:26:06:683;-0.095768064;10.496181;-1.2258313
11:26:06:683;-0.095768064;10.496181;-1.2258313
11:26:06:683;-0.095768064;10.496181;-1.2258313
11:26:06:683;-0.095768064;10.496181;-1.2258313
11:26:06:683;-0.095768064;10.496181;-1.2258313
11:26:06:683;-0.095768064;10.496181;-1.2258313
11:26:06:683;-0.095768064;10.496181;-1.2258313
11:26:06:683;-0.095768064;10.496181;-1.2258313
11:26:06:683;-0.095768064;10.496181;-1.2258313
11:26:06:683;-0.095768064;10.496181;-1.2258313
11:26:06:683;-0.095768064;10.496181;-1.2258313
11:26:06:800;1.0726024;10.5919485;-1.934515
11:26:06:800;1.0726024;10.5919485;-1.934515
11:26:06:800;1.0726024;10.5919485;-1.934515
11:26:06:800;1.0726024;10.5919485;-1.934515
11:26:06:800;1.0726024;10.5919485;-1.934515
11:26:06:800;1.0726024;10.5919485;-1.934515
11:26:06:800;1.0726024;10.5919485;-1.934515
11:26:06:800;1.0726024;10.5919485;-1.934515
11:26:06:800;1.0726024;10.5919485;-1.934515
11:26:06:800;1.0726024;10.5919485;-1.934515
11:26:06:800;1.0726024;10.5919485;-1.934515
11:26:06:800;1.0726024;10.5919485;-1.934515
11:26:06:800;1.0726024;10.5919485;-1.934515
11:26:06:902;0.45968673;10.91756;-1.8962077
11:26:06:902;0.45968673;10.91756;-1.8962077
11:26:06:902;0.45968673;10.91756;-1.8962077
11:26:06:902;0.45968673;10.91756;-1.8962077
11:26:06:902;0.45968673;10.91756;-1.8962077
11:26:06:902;0.45968673;10.91756;-1.8962077
11:26:06:902;0.45968673;10.91756;-1.8962077
11:26:06:902;0.45968673;10.91756;-1.8962077
11:26:06:902;0.45968673;10.91756;-1.8962077
11:26:06:902;0.45968673;10.91756;-1.8962077
11:26:06:902;0.45968673;10.91756;-1.8962077
11:26:06:902;0.45968673;10.91756;-1.8962077
11:26:06:902;0.45968673;10.91756;-1.8962077
11:26:06:902;0.45968673;10.91756;-1.8962077
11:26:06:902;0.45968673;10.91756;-1.8962077
11:26:07:017;0.7086837;10.036493;-1.0534488
11:26:07:017;0.7086837;10.036493;-1.0534488
11:26:07:017;0.7086837;10.036493;-1.0534488
11:26:07:017;0.7086837;10.036493;-1.0534488
11:26:07:017;0.7086837;10.036493;-1.0534488
11:26:07:017;0.7086837;10.036493;-1.0534488
11:26:07:017;0.7086837;10.036493;-1.0534488
11:26:07:017;0.7086837;10.036493;-1.0534488
11:26:07:017;0.7086837;10.036493;-1.0534488
11:26:07:017;0.7086837;10.036493;-1.0534488
11:26:07:017;0.7086837;10.036493;-1.0534488
11:26:07:017;0.7086837;10.036493;-1.0534488
11:26:07:017;0.7086837;10.036493;-1.0534488
11:26:07:017;0.7086837;10.036493;-1.0534488
11:26:07:017;0.7086837;10.036493;-1.0534488
11:26:07:137;-0.24899697;10.649409;-1.3024458
11:26:07:137;-0.24899697;10.649409;-1.3024458
11:26:07:137;-0.24899697;10.649409;-1.3024458
11:26:07:137;-0.24899697;10.649409;-1.3024458
11:26:07:137;-0.24899697;10.649409;-1.3024458
11:26:07:137;-0.24899697;10.649409;-1.3024458
11:26:07:137;-0.24899697;10.649409;-1.3024458
11:26:07:137;-0.24899697;10.649409;-1.3024458
11:26:07:137;-0.24899697;10.649409;-1.3024458
11:26:07:137;-0.24899697;10.649409;-1.3024458
11:26:07:137;-0.24899697;10.649409;-1.3024458
11:26:07:137;-0.24899697;10.649409;-1.3024458
11:26:07:137;-0.24899697;10.649409;-1.3024458
11:26:07:137;-0.24899697;10.649409;-1.3024458
11:26:07:137;-0.24899697;10.649409;-1.3024458
11:26:07:255;-0.076614454;10.247183;-1.283292
11:26:07:255;-0.076614454;10.247183;-1.283292
11:26:07:255;-0.076614454;10.247183;-1.283292
11:26:07:255;-0.076614454;10.247183;-1.283292
11:26:07:255;-0.076614454;10.247183;-1.283292
11:26:07:255;-0.076614454;10.247183;-1.283292
11:26:07:255;-0.076614454;10.247183;-1.283292
11:26:07:255;-0.076614454;10.247183;-1.283292
11:26:07:255;-0.076614454;10.247183;-1.283292
11:26:07:255;-0.076614454;10.247183;-1.283292
11:26:07:255;-0.076614454;10.247183;-1.283292
11:26:07:255;-0.076614454;10.247183;-1.283292
11:26:07:255;-0.076614454;10.247183;-1.283292
11:26:07:255;-0.076614454;10.247183;-1.283292
11:26:07:255;-0.076614454;10.247183;-1.283292
11:26:07:373;0.6703765;9.557653;-0.24899697
11:26:07:373;0.6703765;9.557653;-0.24899697
11:26:07:373;0.6703765;9.557653;-0.24899697
11:26:07:373;0.6703765;9.557653;-0.24899697
11:26:07:373;0.6703765;9.557653;-0.24899697
11:26:07:373;0.6703765;9.557653;-0.24899697
11:26:07:373;0.6703765;9.557653;-0.24899697
11:26:07:373;0.6703765;9.557653;-0.24899697
11:26:07:373;0.6703765;9.557653;-0.24899697
11:26:07:373;0.6703765;9.557653;-0.24899697
11:26:07:373;0.6703765;9.557653;-0.24899697
11:26:07:373;0.6703765;9.557653;-0.24899697
11:26:07:373;0.6703765;9.557653;-0.24899697
11:26:07:373;0.6703765;9.557653;-0.24899697
11:26:07:373;0.6703765;9.557653;-0.24899697
11:26:07:492;-0.59376204;10.362105;-2.030283
11:26:07:492;-0.59376204;10.362105;-2.030283
11:26:07:492;-0.59376204;10.362105;-2.030283
11:26:07:492;-0.59376204;10.362105;-2.030283
11:26:07:492;-0.59376204;10.362105;-2.030283
11:26:07:492;-0.59376204;10.362105;-2.030283
11:26:07:492;-0.59376204;10.362105;-2.030283
11:26:07:492;-0.59376204;10.362105;-2.030283
11:26:07:492;-0.59376204;10.362105;-2.030283
11:26:07:492;-0.59376204;10.362105;-2.030283
11:26:07:492;-0.59376204;10.362105;-2.030283
11:26:07:492;-0.59376204;10.362105;-2.030283
11:26:07:492;-0.59376204;10.362105;-2.030283
11:26:07:492;-0.59376204;10.362105;-2.030283
11:26:07:492;-0.59376204;10.362105;-2.030283
11:26:07:606;-0.5363012;9.825804;0.11492168
11:26:07:606;-0.5363012;9.825804;0.11492168
11:26:07:606;-0.5363012;9.825804;0.11492168
11:26:07:606;-0.5363012;9.825804;0.11492168
11:26:07:606;-0.5363012;9.825804;0.11492168
11:26:07:606;-0.5363012;9.825804;0.11492168
11:26:07:606;-0.5363012;9.825804;0.11492168
11:26:07:606;-0.5363012;9.825804;0.11492168
11:26:07:606;-0.5363012;9.825804;0.11492168
11:26:07:606;-0.5363012;9.825804;0.11492168
11:26:07:606;-0.5363012;9.825804;0.11492168
11:26:07:606;-0.5363012;9.825804;0.11492168
11:26:07:606;-0.5363012;9.825804;0.11492168
11:26:07:606;-0.5363012;9.825804;0.11492168
11:26:07:606;-0.5363012;9.825804;0.11492168
11:26:07:606;-0.5363012;9.825804;0.11492168
11:26:07:729;0.095768064;10.0748005;-0.78529817
11:26:07:729;0.095768064;10.0748005;-0.78529817
11:26:07:729;0.095768064;10.0748005;-0.78529817
11:26:07:729;0.095768064;10.0748005;-0.78529817
11:26:07:729;0.095768064;10.0748005;-0.78529817
11:26:07:729;0.095768064;10.0748005;-0.78529817
11:26:07:729;0.095768064;10.0748005;-0.78529817
11:26:07:729;0.095768064;10.0748005;-0.78529817
11:26:07:729;0.095768064;10.0748005;-0.78529817
11:26:07:729;0.095768064;10.0748005;-0.78529817
11:26:07:729;0.095768064;10.0748005;-0.78529817
11:26:07:729;0.095768064;10.0748005;-0.78529817
11:26:07:729;0.095768064;10.0748005;-0.78529817
11:26:07:729;0.095768064;10.0748005;-0.78529817
11:26:07:843;-0.45968673;10.630256;-1.3982137
11:26:07:843;-0.45968673;10.630256;-1.3982137
11:26:07:843;-0.45968673;10.630256;-1.3982137
11:26:07:843;-0.45968673;10.630256;-1.3982137
11:26:07:843;-0.45968673;10.630256;-1.3982137
11:26:07:843;-0.45968673;10.630256;-1.3982137
11:26:07:843;-0.45968673;10.630256;-1.3982137
11:26:07:843;-0.45968673;10.630256;-1.3982137
11:26:07:843;-0.45968673;10.630256;-1.3982137
11:26:07:843;-0.45968673;10.630256;-1.3982137
11:26:07:843;-0.45968673;10.630256;-1.3982137
11:26:07:843;-0.45968673;10.630256;-1.3982137
11:26:07:843;-0.45968673;10.630256;-1.3982137
11:26:07:843;-0.45968673;10.630256;-1.3982137
11:26:07:843;-0.45968673;10.630256;-1.3982137
11:26:07:843;-0.45968673;10.630256;-1.3982137
11:26:07:965;-0.6512229;10.457873;-0.59376204
11:26:07:965;-0.6512229;10.457873;-0.59376204
11:26:07:965;-0.6512229;10.457873;-0.59376204
11:26:07:965;-0.6512229;10.457873;-0.59376204
11:26:07:965;-0.6512229;10.457873;-0.59376204
11:26:07:965;-0.6512229;10.457873;-0.59376204
11:26:07:965;-0.6512229;10.457873;-0.59376204
11:26:07:965;-0.6512229;10.457873;-0.59376204
11:26:07:965;-0.6512229;10.457873;-0.59376204
11:26:07:965;-0.6512229;10.457873;-0.59376204
11:26:07:965;-0.6512229;10.457873;-0.59376204
11:26:07:965;-0.6512229;10.457873;-0.59376204
11:26:07:965;-0.6512229;10.457873;-0.59376204
11:26:07:965;-0.6512229;10.457873;-0.59376204
11:26:07:965;-0.6512229;10.457873;-0.59376204
11:26:08:081;-0.32561144;10.381259;-1.2641385
11:26:08:081;-0.32561144;10.381259;-1.2641385
11:26:08:081;-0.32561144;10.381259;-1.2641385
11:26:08:081;-0.32561144;10.381259;-1.2641385
11:26:08:081;-0.32561144;10.381259;-1.2641385
11:26:08:081;-0.32561144;10.381259;-1.2641385
11:26:08:081;-0.32561144;10.381259;-1.2641385
11:26:08:081;-0.32561144;10.381259;-1.2641385
11:26:08:081;-0.32561144;10.381259;-1.2641385
11:26:08:081;-0.32561144;10.381259;-1.2641385
11:26:08:081;-0.32561144;10.381259;-1.2641385
11:26:08:081;-0.32561144;10.381259;-1.2641385
11:26:08:081;-0.32561144;10.381259;-1.2641385
11:26:08:184;-0.15322891;9.193734;-0.8810662
11:26:08:184;-0.15322891;9.193734;-0.8810662
11:26:08:184;-0.15322891;9.193734;-0.8810662
11:26:08:184;-0.15322891;9.193734;-0.8810662
11:26:08:184;-0.15322891;9.193734;-0.8810662
11:26:08:184;-0.15322891;9.193734;-0.8810662
11:26:08:184;-0.15322891;9.193734;-0.8810662
11:26:08:184;-0.15322891;9.193734;-0.8810662
11:26:08:184;-0.15322891;9.193734;-0.8810662
11:26:08:184;-0.15322891;9.193734;-0.8810662
11:26:08:184;-0.15322891;9.193734;-0.8810662
11:26:08:184;-0.15322891;9.193734;-0.8810662
11:26:08:184;-0.15322891;9.193734;-0.8810662
11:26:08:184;-0.15322891;9.193734;-0.8810662
11:26:08:294;-0.7086837;10.247183;-1.3982137
11:26:08:294;-0.7086837;10.247183;-1.3982137
11:26:08:294;-0.7086837;10.247183;-1.3982137
11:26:08:294;-0.7086837;10.247183;-1.3982137
11:26:08:294;-0.7086837;10.247183;-1.3982137
11:26:08:294;-0.7086837;10.247183;-1.3982137
11:26:08:294;-0.7086837;10.247183;-1.3982137
11:26:08:294;-0.7086837;10.247183;-1.3982137
11:26:08:294;-0.7086837;10.247183;-1.3982137
11:26:08:294;-0.7086837;10.247183;-1.3982137
11:26:08:294;-0.7086837;10.247183;-1.3982137
11:26:08:294;-0.7086837;10.247183;-1.3982137
11:26:08:294;-0.7086837;10.247183;-1.3982137
11:26:08:294;-0.7086837;10.247183;-1.3982137
11:26:08:399;-0.80445176;10.630256;-0.842759
11:26:08:399;-0.80445176;10.630256;-0.842759
11:26:08:399;-0.80445176;10.630256;-0.842759
11:26:08:399;-0.80445176;10.630256;-0.842759
11:26:08:399;-0.80445176;10.630256;-0.842759
11:26:08:399;-0.80445176;10.630256;-0.842759
11:26:08:399;-0.80445176;10.630256;-0.842759
11:26:08:399;-0.80445176;10.630256;-0.842759
11:26:08:399;-0.80445176;10.630256;-0.842759
11:26:08:399;-0.80445176;10.630256;-0.842759
11:26:08:399;-0.80445176;10.630256;-0.842759
11:26:08:399;-0.80445176;10.630256;-0.842759
11:26:08:399;-0.80445176;10.630256;-0.842759
11:26:08:506;-0.59376204;10.266336;-0.15322891
11:26:08:506;-0.59376204;10.266336;-0.15322891
11:26:08:506;-0.59376204;10.266336;-0.15322891
11:26:08:506;-0.59376204;10.266336;-0.15322891
11:26:08:506;-0.59376204;10.266336;-0.15322891
11:26:08:506;-0.59376204;10.266336;-0.15322891
11:26:08:506;-0.59376204;10.266336;-0.15322891
11:26:08:506;-0.59376204;10.266336;-0.15322891
11:26:08:506;-0.59376204;10.266336;-0.15322891
11:26:08:506;-0.59376204;10.266336;-0.15322891
11:26:08:506;-0.59376204;10.266336;-0.15322891
11:26:08:506;-0.59376204;10.266336;-0.15322891
11:26:08:506;-0.59376204;10.266336;-0.15322891
11:26:08:607;-0.21068975;10.496181;-0.7086837
11:26:08:607;-0.21068975;10.496181;-0.7086837
11:26:08:607;-0.21068975;10.496181;-0.7086837
11:26:08:607;-0.21068975;10.496181;-0.7086837
11:26:08:607;-0.21068975;10.496181;-0.7086837
11:26:08:607;-0.21068975;10.496181;-0.7086837
11:26:08:607;-0.21068975;10.496181;-0.7086837
11:26:08:607;-0.21068975;10.496181;-0.7086837
11:26:08:607;-0.21068975;10.496181;-0.7086837
11:26:08:607;-0.21068975;10.496181;-0.7086837
11:26:08:607;-0.21068975;10.496181;-0.7086837
11:26:08:607;-0.21068975;10.496181;-0.7086837
11:26:08:607;-0.21068975;10.496181;-0.7086837
11:26:08:607;-0.21068975;10.496181;-0.7086837
11:26:08:607;-0.21068975;10.496181;-0.7086837
11:26:08:607;-0.21068975;10.496181;-0.7086837
11:26:08:727;-0.7661445;10.036493;-0.7469909
11:26:08:727;-0.7661445;10.036493;-0.7469909
11:26:08:727;-0.7661445;10.036493;-0.7469909
11:26:08:727;-0.7661445;10.036493;-0.7469909
11:26:08:727;-0.7661445;10.036493;-0.7469909
11:26:08:727;-0.7661445;10.036493;-0.7469909
11:26:08:727;-0.7661445;10.036493;-0.7469909
11:26:08:727;-0.7661445;10.036493;-0.7469909
11:26:08:727;-0.7661445;10.036493;-0.7469909
11:26:08:727;-0.7661445;10.036493;-0.7469909
11:26:08:727;-0.7661445;10.036493;-0.7469909
11:26:08:727;-0.7661445;10.036493;-0.7469909
11:26:08:727;-0.7661445;10.036493;-0.7469909
11:26:08:727;-0.7661445;10.036493;-0.7469909
11:26:08:843;-0.24899697;9.557653;-0.63206923
11:26:08:843;-0.24899697;9.557653;-0.63206923
11:26:08:843;-0.24899697;9.557653;-0.63206923
11:26:08:843;-0.24899697;9.557653;-0.63206923
11:26:08:843;-0.24899697;9.557653;-0.63206923
11:26:08:843;-0.24899697;9.557653;-0.63206923
11:26:08:843;-0.24899697;9.557653;-0.63206923
11:26:08:843;-0.24899697;9.557653;-0.63206923
11:26:08:843;-0.24899697;9.557653;-0.63206923
11:26:08:843;-0.24899697;9.557653;-0.63206923
11:26:08:843;-0.24899697;9.557653;-0.63206923
11:26:08:843;-0.24899697;9.557653;-0.63206923
11:26:08:843;-0.24899697;9.557653;-0.63206923
11:26:08:843;-0.24899697;9.557653;-0.63206923
11:26:08:843;-0.24899697;9.557653;-0.63206923
11:26:08:843;-0.24899697;9.557653;-0.63206923
11:26:08:961;0.78529817;10.266336;-0.9959879
11:26:08:961;0.78529817;10.266336;-0.9959879
11:26:08:961;0.78529817;10.266336;-0.9959879
11:26:08:961;0.78529817;10.266336;-0.9959879
11:26:08:961;0.78529817;10.266336;-0.9959879
11:26:08:961;0.78529817;10.266336;-0.9959879
11:26:08:961;0.78529817;10.266336;-0.9959879
11:26:08:961;0.78529817;10.266336;-0.9959879
11:26:08:961;0.78529817;10.266336;-0.9959879
11:26:08:961;0.78529817;10.266336;-0.9959879
11:26:08:961;0.78529817;10.266336;-0.9959879
11:26:08:961;0.78529817;10.266336;-0.9959879
11:26:08:961;0.78529817;10.266336;-0.9959879
11:26:08:961;0.78529817;10.266336;-0.9959879
11:26:08:961;0.78529817;10.266336;-0.9959879
11:26:08:961;0.78529817;10.266336;-0.9959879
11:26:09:089;-0.2873042;9.940725;0.5554548
11:26:09:089;-0.2873042;9.940725;0.5554548
11:26:09:089;-0.2873042;9.940725;0.5554548
11:26:09:089;-0.2873042;9.940725;0.5554548
11:26:09:089;-0.2873042;9.940725;0.5554548
11:26:09:089;-0.2873042;9.940725;0.5554548
11:26:09:089;-0.2873042;9.940725;0.5554548
11:26:09:089;-0.2873042;9.940725;0.5554548
11:26:09:089;-0.2873042;9.940725;0.5554548
11:26:09:089;-0.2873042;9.940725;0.5554548
11:26:09:089;-0.2873042;9.940725;0.5554548
11:26:09:089;-0.2873042;9.940725;0.5554548
11:26:09:089;-0.2873042;9.940725;0.5554548
11:26:09:089;-0.2873042;9.940725;0.5554548
11:26:09:199;-0.076614454;10.208876;0.9959879
11:26:09:199;-0.076614454;10.208876;0.9959879
11:26:09:199;-0.076614454;10.208876;0.9959879
11:26:09:199;-0.076614454;10.208876;0.9959879
11:26:09:199;-0.076614454;10.208876;0.9959879
11:26:09:199;-0.076614454;10.208876;0.9959879
11:26:09:199;-0.076614454;10.208876;0.9959879
11:26:09:199;-0.076614454;10.208876;0.9959879
11:26:09:199;-0.076614454;10.208876;0.9959879
11:26:09:199;-0.076614454;10.208876;0.9959879
11:26:09:199;-0.076614454;10.208876;0.9959879
11:26:09:199;-0.076614454;10.208876;0.9959879
11:26:09:199;-0.076614454;10.208876;0.9959879
11:26:09:199;-0.076614454;10.208876;0.9959879
11:26:09:199;-0.076614454;10.208876;0.9959879
11:26:09:317;-0.24899697;10.304645;0.05746084
11:26:09:317;-0.24899697;10.304645;0.05746084
11:26:09:317;-0.24899697;10.304645;0.05746084
11:26:09:317;-0.24899697;10.304645;0.05746084
11:26:09:317;-0.24899697;10.304645;0.05746084
11:26:09:317;-0.24899697;10.304645;0.05746084
11:26:09:317;-0.24899697;10.304645;0.05746084
11:26:09:317;-0.24899697;10.304645;0.05746084
11:26:09:317;-0.24899697;10.304645;0.05746084
11:26:09:317;-0.24899697;10.304645;0.05746084
11:26:09:317;-0.24899697;10.304645;0.05746084
11:26:09:317;-0.24899697;10.304645;0.05746084
11:26:09:317;-0.24899697;10.304645;0.05746084
11:26:09:317;-0.24899697;10.304645;0.05746084
11:26:09:317;-0.24899697;10.304645;0.05746084
11:26:09:433;-0.80445176;9.844957;0.5363012
11:26:09:433;-0.80445176;9.844957;0.5363012
11:26:09:433;-0.80445176;9.844957;0.5363012
11:26:09:433;-0.80445176;9.844957;0.5363012
11:26:09:433;-0.80445176;9.844957;0.5363012
11:26:09:433;-0.80445176;9.844957;0.5363012
11:26:09:433;-0.80445176;9.844957;0.5363012
11:26:09:433;-0.80445176;9.844957;0.5363012
11:26:09:433;-0.80445176;9.844957;0.5363012
11:26:09:433;-0.80445176;9.844957;0.5363012
11:26:09:433;-0.80445176;9.844957;0.5363012
11:26:09:433;-0.80445176;9.844957;0.5363012
11:26:09:433;-0.80445176;9.844957;0.5363012
11:26:09:535;0.1340753;9.9790325;-0.45968673
11:26:09:535;0.1340753;9.9790325;-0.45968673
11:26:09:535;0.1340753;9.9790325;-0.45968673
11:26:09:535;0.1340753;9.9790325;-0.45968673
11:26:09:535;0.1340753;9.9790325;-0.45968673
11:26:09:535;0.1340753;9.9790325;-0.45968673
11:26:09:535;0.1340753;9.9790325;-0.45968673
11:26:09:535;0.1340753;9.9790325;-0.45968673
11:26:09:535;0.1340753;9.9790325;-0.45968673
11:26:09:535;0.1340753;9.9790325;-0.45968673
11:26:09:535;0.1340753;9.9790325;-0.45968673
11:26:09:535;0.1340753;9.9790325;-0.45968673
11:26:09:535;0.1340753;9.9790325;-0.45968673
11:26:09:535;0.1340753;9.9790325;-0.45968673
11:26:09:535;0.1340753;9.9790325;-0.45968673
11:26:09:649;-0.8619126;9.634268;0.19153613
11:26:09:649;-0.8619126;9.634268;0.19153613
11:26:09:649;-0.8619126;9.634268;0.19153613
11:26:09:649;-0.8619126;9.634268;0.19153613
11:26:09:649;-0.8619126;9.634268;0.19153613
11:26:09:649;-0.8619126;9.634268;0.19153613
11:26:09:649;-0.8619126;9.634268;0.19153613
11:26:09:649;-0.8619126;9.634268;0.19153613
11:26:09:649;-0.8619126;9.634268;0.19153613
11:26:09:649;-0.8619126;9.634268;0.19153613
11:26:09:649;-0.8619126;9.634268;0.19153613
11:26:09:649;-0.8619126;9.634268;0.19153613
11:26:09:649;-0.8619126;9.634268;0.19153613
11:26:09:649;-0.8619126;9.634268;0.19153613
11:26:09:649;-0.8619126;9.634268;0.19153613
11:26:09:766;-0.40222588;9.80665;0.80445176
11:26:09:766;-0.40222588;9.80665;0.80445176
11:26:09:766;-0.40222588;9.80665;0.80445176
11:26:09:766;-0.40222588;9.80665;0.80445176
11:26:09:766;-0.40222588;9.80665;0.80445176
11:26:09:766;-0.40222588;9.80665;0.80445176
11:26:09:766;-0.40222588;9.80665;0.80445176
11:26:09:766;-0.40222588;9.80665;0.80445176
11:26:09:766;-0.40222588;9.80665;0.80445176
11:26:09:766;-0.40222588;9.80665;0.80445176
11:26:09:766;-0.40222588;9.80665;0.80445176
11:26:09:766;-0.40222588;9.80665;0.80445176
11:26:09:766;-0.40222588;9.80665;0.80445176
11:26:09:766;-0.40222588;9.80665;0.80445176
11:26:09:766;-0.40222588;9.80665;0.80445176
11:26:09:884;-0.59376204;10.304645;1.4173675
11:26:09:884;-0.59376204;10.304645;1.4173675
11:26:09:884;-0.59376204;10.304645;1.4173675
11:26:09:884;-0.59376204;10.304645;1.4173675
11:26:09:884;-0.59376204;10.304645;1.4173675
11:26:09:884;-0.59376204;10.304645;1.4173675
11:26:09:884;-0.59376204;10.304645;1.4173675
11:26:09:884;-0.59376204;10.304645;1.4173675
11:26:09:884;-0.59376204;10.304645;1.4173675
11:26:09:884;-0.59376204;10.304645;1.4173675
11:26:09:884;-0.59376204;10.304645;1.4173675
11:26:09:884;-0.59376204;10.304645;1.4173675
11:26:09:884;-0.59376204;10.304645;1.4173675
11:26:09:990;-0.47884035;10.362105;1.3024458
11:26:09:990;-0.47884035;10.362105;1.3024458
11:26:09:990;-0.47884035;10.362105;1.3024458
11:26:09:990;-0.47884035;10.362105;1.3024458
11:26:09:990;-0.47884035;10.362105;1.3024458
11:26:09:990;-0.47884035;10.362105;1.3024458
11:26:09:990;-0.47884035;10.362105;1.3024458
11:26:09:990;-0.47884035;10.362105;1.3024458
11:26:09:990;-0.47884035;10.362105;1.3024458
11:26:09:990;-0.47884035;10.362105;1.3024458
11:26:09:990;-0.47884035;10.362105;1.3024458
11:26:09:990;-0.47884035;10.362105;1.3024458
11:26:09:990;-0.47884035;10.362105;1.3024458
11:26:09:990;-0.47884035;10.362105;1.3024458
11:26:09:990;-0.47884035;10.362105;1.3024458
11:26:10:104;0.22984336;10.821792;0.59376204
11:26:10:104;0.22984336;10.821792;0.59376204
11:26:10:104;0.22984336;10.821792;0.59376204
11:26:10:104;0.22984336;10.821792;0.59376204
11:26:10:104;0.22984336;10.821792;0.59376204
11:26:10:104;0.22984336;10.821792;0.59376204
11:26:10:104;0.22984336;10.821792;0.59376204
11:26:10:104;0.22984336;10.821792;0.59376204
11:26:10:104;0.22984336;10.821792;0.59376204
11:26:10:104;0.22984336;10.821792;0.59376204
11:26:10:104;0.22984336;10.821792;0.59376204
11:26:10:104;0.22984336;10.821792;0.59376204
11:26:10:104;0.22984336;10.821792;0.59376204
11:26:10:104;0.22984336;10.821792;0.59376204
11:26:10:215;0.2681506;9.940725;-0.038307227
11:26:10:215;0.2681506;9.940725;-0.038307227
11:26:10:215;0.2681506;9.940725;-0.038307227
11:26:10:215;0.2681506;9.940725;-0.038307227
11:26:10:215;0.2681506;9.940725;-0.038307227
11:26:10:215;0.2681506;9.940725;-0.038307227
11:26:10:215;0.2681506;9.940725;-0.038307227
11:26:10:215;0.2681506;9.940725;-0.038307227
11:26:10:215;0.2681506;9.940725;-0.038307227
11:26:10:215;0.2681506;9.940725;-0.038307227
11:26:10:215;0.2681506;9.940725;-0.038307227
11:26:10:215;0.2681506;9.940725;-0.038307227
11:26:10:215;0.2681506;9.940725;-0.038307227
11:26:10:215;0.2681506;9.940725;-0.038307227
11:26:10:215;0.2681506;9.940725;-0.038307227
11:26:10:215;0.2681506;9.940725;-0.038307227
11:26:10:215;0.2681506;9.940725;-0.038307227
11:26:10:215;0.2681506;9.940725;-0.038307227
11:26:10:357;0.2873042;9.519346;0.59376204
11:26:10:357;0.2873042;9.519346;0.59376204
11:26:10:357;0.2873042;9.519346;0.59376204
11:26:10:357;0.2873042;9.519346;0.59376204
11:26:10:357;0.2873042;9.519346;0.59376204
11:26:10:357;0.2873042;9.519346;0.59376204
11:26:10:357;0.2873042;9.519346;0.59376204
11:26:10:357;0.2873042;9.519346;0.59376204
11:26:10:357;0.2873042;9.519346;0.59376204
11:26:10:357;0.2873042;9.519346;0.59376204
11:26:10:357;0.2873042;9.519346;0.59376204
11:26:10:357;0.2873042;9.519346;0.59376204
11:26:10:357;0.2873042;9.519346;0.59376204
11:26:10:357;0.2873042;9.519346;0.59376204
11:26:10:357;0.2873042;9.519346;0.59376204
11:26:10:469;-0.11492168;10.630256;0.63206923
11:26:10:469;-0.11492168;10.630256;0.63206923
11:26:10:469;-0.11492168;10.630256;0.63206923
11:26:10:469;-0.11492168;10.630256;0.63206923
11:26:10:469;-0.11492168;10.630256;0.63206923
11:26:10:469;-0.11492168;10.630256;0.63206923
11:26:10:469;-0.11492168;10.630256;0.63206923
11:26:10:469;-0.11492168;10.630256;0.63206923
11:26:10:469;-0.11492168;10.630256;0.63206923
11:26:10:469;-0.11492168;10.630256;0.63206923
11:26:10:469;-0.11492168;10.630256;0.63206923
11:26:10:469;-0.11492168;10.630256;0.63206923
11:26:10:469;-0.11492168;10.630256;0.63206923
11:26:10:469;-0.11492168;10.630256;0.63206923
11:26:10:469;-0.11492168;10.630256;0.63206923
11:26:10:469;-0.11492168;10.630256;0.63206923
11:26:10:594;-0.30645782;10.477027;0.80445176
11:26:10:594;-0.30645782;10.477027;0.80445176
11:26:10:594;-0.30645782;10.477027;0.80445176
11:26:10:594;-0.30645782;10.477027;0.80445176
11:26:10:594;-0.30645782;10.477027;0.80445176
11:26:10:594;-0.30645782;10.477027;0.80445176
11:26:10:594;-0.30645782;10.477027;0.80445176
11:26:10:594;-0.30645782;10.477027;0.80445176
11:26:10:594;-0.30645782;10.477027;0.80445176
11:26:10:594;-0.30645782;10.477027;0.80445176
11:26:10:594;-0.30645782;10.477027;0.80445176
11:26:10:594;-0.30645782;10.477027;0.80445176
11:26:10:594;-0.30645782;10.477027;0.80445176
11:26:10:594;-0.30645782;10.477027;0.80445176
11:26:10:706;0.1340753;9.902418;1.1300632
11:26:10:706;0.1340753;9.902418;1.1300632
11:26:10:706;0.1340753;9.902418;1.1300632
11:26:10:706;0.1340753;9.902418;1.1300632
11:26:10:706;0.1340753;9.902418;1.1300632
11:26:10:706;0.1340753;9.902418;1.1300632
11:26:10:706;0.1340753;9.902418;1.1300632
11:26:10:706;0.1340753;9.902418;1.1300632
11:26:10:706;0.1340753;9.902418;1.1300632
11:26:10:706;0.1340753;9.902418;1.1300632
11:26:10:706;0.1340753;9.902418;1.1300632
11:26:10:706;0.1340753;9.902418;1.1300632
11:26:10:706;0.1340753;9.902418;1.1300632
11:26:10:706;0.1340753;9.902418;1.1300632
11:26:10:706;0.1340753;9.902418;1.1300632
11:26:10:823;0.095768064;10.228029;1.5131354
11:26:10:823;0.095768064;10.228029;1.5131354
11:26:10:823;0.095768064;10.228029;1.5131354
11:26:10:823;0.095768064;10.228029;1.5131354
11:26:10:823;0.095768064;10.228029;1.5131354
11:26:10:823;0.095768064;10.228029;1.5131354
11:26:10:823;0.095768064;10.228029;1.5131354
11:26:10:823;0.095768064;10.228029;1.5131354
11:26:10:823;0.095768064;10.228029;1.5131354
11:26:10:823;0.095768064;10.228029;1.5131354
11:26:10:823;0.095768064;10.228029;1.5131354
11:26:10:823;0.095768064;10.228029;1.5131354
11:26:10:823;0.095768064;10.228029;1.5131354
11:26:10:823;0.095768064;10.228029;1.5131354
11:26:10:823;0.095768064;10.228029;1.5131354
11:26:10:942;0.22984336;9.270349;2.6431987
11:26:10:942;0.22984336;9.270349;2.6431987
11:26:10:942;0.22984336;9.270349;2.6431987
11:26:10:942;0.22984336;9.270349;2.6431987
11:26:10:942;0.22984336;9.270349;2.6431987
11:26:10:942;0.22984336;9.270349;2.6431987
11:26:10:942;0.22984336;9.270349;2.6431987
11:26:10:942;0.22984336;9.270349;2.6431987
11:26:10:942;0.22984336;9.270349;2.6431987
11:26:10:942;0.22984336;9.270349;2.6431987
11:26:10:942;0.22984336;9.270349;2.6431987
11:26:10:942;0.22984336;9.270349;2.6431987
11:26:10:942;0.22984336;9.270349;2.6431987
11:26:10:942;0.22984336;9.270349;2.6431987
11:26:10:942;0.22984336;9.270349;2.6431987
11:26:11:059;-0.076614454;9.998186;2.087744
11:26:11:059;-0.076614454;9.998186;2.087744
11:26:11:059;-0.076614454;9.998186;2.087744
11:26:11:059;-0.076614454;9.998186;2.087744
11:26:11:059;-0.076614454;9.998186;2.087744
11:26:11:059;-0.076614454;9.998186;2.087744
11:26:11:059;-0.076614454;9.998186;2.087744
11:26:11:059;-0.076614454;9.998186;2.087744
11:26:11:059;-0.076614454;9.998186;2.087744
11:26:11:059;-0.076614454;9.998186;2.087744
11:26:11:059;-0.076614454;9.998186;2.087744
11:26:11:059;-0.076614454;9.998186;2.087744
11:26:11:059;-0.076614454;9.998186;2.087744
11:26:11:059;-0.076614454;9.998186;2.087744
11:26:11:059;-0.076614454;9.998186;2.087744
11:26:11:175;0.2873042;9.346964;2.6048915
11:26:11:175;0.2873042;9.346964;2.6048915
11:26:11:175;0.2873042;9.346964;2.6048915
11:26:11:175;0.2873042;9.346964;2.6048915
11:26:11:175;0.2873042;9.346964;2.6048915
11:26:11:175;0.2873042;9.346964;2.6048915
11:26:11:175;0.2873042;9.346964;2.6048915
11:26:11:175;0.2873042;9.346964;2.6048915
11:26:11:175;0.2873042;9.346964;2.6048915
11:26:11:175;0.2873042;9.346964;2.6048915
11:26:11:175;0.2873042;9.346964;2.6048915
11:26:11:175;0.2873042;9.346964;2.6048915
11:26:11:175;0.2873042;9.346964;2.6048915
11:26:11:175;0.2873042;9.346964;2.6048915
11:26:11:175;0.2873042;9.346964;2.6048915
11:26:11:292;0.40222588;10.132261;2.1068976
11:26:11:292;0.40222588;10.132261;2.1068976
11:26:11:292;0.40222588;10.132261;2.1068976
11:26:11:292;0.40222588;10.132261;2.1068976
11:26:11:292;0.40222588;10.132261;2.1068976
11:26:11:292;0.40222588;10.132261;2.1068976
11:26:11:292;0.40222588;10.132261;2.1068976
11:26:11:292;0.40222588;10.132261;2.1068976
11:26:11:292;0.40222588;10.132261;2.1068976
11:26:11:292;0.40222588;10.132261;2.1068976
11:26:11:292;0.40222588;10.132261;2.1068976
11:26:11:292;0.40222588;10.132261;2.1068976
11:26:11:292;0.40222588;10.132261;2.1068976
11:26:11:292;0.40222588;10.132261;2.1068976
11:26:11:292;0.40222588;10.132261;2.1068976
11:26:11:412;-0.038307227;10.189722;2.585738
11:26:11:412;-0.038307227;10.189722;2.585738
11:26:11:412;-0.038307227;10.189722;2.585738
11:26:11:412;-0.038307227;10.189722;2.585738
11:26:11:412;-0.038307227;10.189722;2.585738
11:26:11:412;-0.038307227;10.189722;2.585738
11:26:11:412;-0.038307227;10.189722;2.585738
11:26:11:412;-0.038307227;10.189722;2.585738
11:26:11:412;-0.038307227;10.189722;2.585738
11:26:11:412;-0.038307227;10.189722;2.585738
11:26:11:412;-0.038307227;10.189722;2.585738
11:26:11:412;-0.038307227;10.189722;2.585738
11:26:11:412;-0.038307227;10.189722;2.585738
11:26:11:412;-0.038307227;10.189722;2.585738
11:26:11:412;-0.038307227;10.189722;2.585738
11:26:11:529;1.0342951;9.653421;2.5091233
11:26:11:529;1.0342951;9.653421;2.5091233
11:26:11:529;1.0342951;9.653421;2.5091233
11:26:11:529;1.0342951;9.653421;2.5091233
11:26:11:529;1.0342951;9.653421;2.5091233
11:26:11:529;1.0342951;9.653421;2.5091233
11:26:11:529;1.0342951;9.653421;2.5091233
11:26:11:529;1.0342951;9.653421;2.5091233
11:26:11:529;1.0342951;9.653421;2.5091233
11:26:11:529;1.0342951;9.653421;2.5091233
11:26:11:529;1.0342951;9.653421;2.5091233
11:26:11:529;1.0342951;9.653421;2.5091233
11:26:11:529;1.0342951;9.653421;2.5091233
11:26:11:529;1.0342951;9.653421;2.5091233
11:26:11:529;1.0342951;9.653421;2.5091233
11:26:11:647;-0.17238252;10.208876;2.087744
11:26:11:647;-0.17238252;10.208876;2.087744
11:26:11:647;-0.17238252;10.208876;2.087744
11:26:11:647;-0.17238252;10.208876;2.087744
11:26:11:647;-0.17238252;10.208876;2.087744
11:26:11:647;-0.17238252;10.208876;2.087744
11:26:11:647;-0.17238252;10.208876;2.087744
11:26:11:647;-0.17238252;10.208876;2.087744
11:26:11:647;-0.17238252;10.208876;2.087744
11:26:11:647;-0.17238252;10.208876;2.087744
11:26:11:647;-0.17238252;10.208876;2.087744
11:26:11:647;-0.17238252;10.208876;2.087744
11:26:11:647;-0.17238252;10.208876;2.087744
11:26:11:647;-0.17238252;10.208876;2.087744
11:26:11:647;-0.17238252;10.208876;2.087744
11:26:11:763;0.2681506;9.902418;2.5474305
11:26:11:763;0.2681506;9.902418;2.5474305
11:26:11:763;0.2681506;9.902418;2.5474305
11:26:11:763;0.2681506;9.902418;2.5474305
11:26:11:763;0.2681506;9.902418;2.5474305
11:26:11:763;0.2681506;9.902418;2.5474305
11:26:11:763;0.2681506;9.902418;2.5474305
11:26:11:763;0.2681506;9.902418;2.5474305
11:26:11:763;0.2681506;9.902418;2.5474305
11:26:11:763;0.2681506;9.902418;2.5474305
11:26:11:763;0.2681506;9.902418;2.5474305
11:26:11:763;0.2681506;9.902418;2.5474305
11:26:11:763;0.2681506;9.902418;2.5474305
11:26:11:763;0.2681506;9.902418;2.5474305
11:26:11:763;0.2681506;9.902418;2.5474305
11:26:11:881;0.24899697;10.649409;0.8619126
11:26:11:881;0.24899697;10.649409;0.8619126
11:26:11:881;0.24899697;10.649409;0.8619126
11:26:11:881;0.24899697;10.649409;0.8619126
11:26:11:881;0.24899697;10.649409;0.8619126
11:26:11:881;0.24899697;10.649409;0.8619126
11:26:11:881;0.24899697;10.649409;0.8619126
11:26:11:881;0.24899697;10.649409;0.8619126
11:26:11:881;0.24899697;10.649409;0.8619126
11:26:11:881;0.24899697;10.649409;0.8619126
11:26:11:881;0.24899697;10.649409;0.8619126
11:26:11:881;0.24899697;10.649409;0.8619126
11:26:11:881;0.24899697;10.649409;0.8619126
11:26:11:881;0.24899697;10.649409;0.8619126
11:26:11:881;0.24899697;10.649409;0.8619126
11:26:11:998;0.4213795;9.193734;3.1028855
11:26:11:998;0.4213795;9.193734;3.1028855
11:26:11:998;0.4213795;9.193734;3.1028855
11:26:11:998;0.4213795;9.193734;3.1028855
11:26:11:998;0.4213795;9.193734;3.1028855
11:26:11:998;0.4213795;9.193734;3.1028855
11:26:11:998;0.4213795;9.193734;3.1028855
11:26:11:998;0.4213795;9.193734;3.1028855
11:26:11:998;0.4213795;9.193734;3.1028855
11:26:11:998;0.4213795;9.193734;3.1028855
11:26:11:998;0.4213795;9.193734;3.1028855
11:26:11:998;0.4213795;9.193734;3.1028855
11:26:11:998;0.4213795;9.193734;3.1028855
11:26:11:998;0.4213795;9.193734;3.1028855
11:26:11:998;0.4213795;9.193734;3.1028855
11:26:11:998;0.4213795;9.193734;3.1028855
11:26:12:120;0.2681506;10.649409;1.1492168
11:26:12:120;0.2681506;10.649409;1.1492168
11:26:12:120;0.2681506;10.649409;1.1492168
11:26:12:120;0.2681506;10.649409;1.1492168
11:26:12:120;0.2681506;10.649409;1.1492168
11:26:12:120;0.2681506;10.649409;1.1492168
11:26:12:120;0.2681506;10.649409;1.1492168
11:26:12:120;0.2681506;10.649409;1.1492168
11:26:12:120;0.2681506;10.649409;1.1492168
11:26:12:120;0.2681506;10.649409;1.1492168
11:26:12:120;0.2681506;10.649409;1.1492168
11:26:12:120;0.2681506;10.649409;1.1492168
11:26:12:120;0.2681506;10.649409;1.1492168
11:26:12:120;0.2681506;10.649409;1.1492168
11:26:12:120;0.2681506;10.649409;1.1492168
11:26:12:236;-0.17238252;9.442732;3.9264908
11:26:12:236;-0.17238252;9.442732;3.9264908
11:26:12:236;-0.17238252;9.442732;3.9264908
11:26:12:236;-0.17238252;9.442732;3.9264908
11:26:12:236;-0.17238252;9.442732;3.9264908
11:26:12:236;-0.17238252;9.442732;3.9264908
11:26:12:236;-0.17238252;9.442732;3.9264908
11:26:12:236;-0.17238252;9.442732;3.9264908
11:26:12:236;-0.17238252;9.442732;3.9264908
11:26:12:236;-0.17238252;9.442732;3.9264908
11:26:12:236;-0.17238252;9.442732;3.9264908
11:26:12:236;-0.17238252;9.442732;3.9264908
11:26:12:236;-0.17238252;9.442732;3.9264908
11:26:12:338;-0.076614454;9.672575;3.0262709
11:26:12:338;-0.076614454;9.672575;3.0262709
11:26:12:338;-0.076614454;9.672575;3.0262709
11:26:12:338;-0.076614454;9.672575;3.0262709
11:26:12:338;-0.076614454;9.672575;3.0262709
11:26:12:338;-0.076614454;9.672575;3.0262709
11:26:12:338;-0.076614454;9.672575;3.0262709
11:26:12:338;-0.076614454;9.672575;3.0262709
11:26:12:338;-0.076614454;9.672575;3.0262709
11:26:12:338;-0.076614454;9.672575;3.0262709
11:26:12:338;-0.076614454;9.672575;3.0262709
11:26:12:338;-0.076614454;9.672575;3.0262709
11:26:12:338;-0.076614454;9.672575;3.0262709
11:26:12:338;-0.076614454;9.672575;3.0262709
11:26:12:452;0.30645782;10.879252;0.7661445
11:26:12:452;0.30645782;10.879252;0.7661445
11:26:12:452;0.30645782;10.879252;0.7661445
11:26:12:452;0.30645782;10.879252;0.7661445
11:26:12:452;0.30645782;10.879252;0.7661445
11:26:12:452;0.30645782;10.879252;0.7661445
11:26:12:452;0.30645782;10.879252;0.7661445
11:26:12:452;0.30645782;10.879252;0.7661445
11:26:12:452;0.30645782;10.879252;0.7661445
11:26:12:452;0.30645782;10.879252;0.7661445
11:26:12:452;0.30645782;10.879252;0.7661445
11:26:12:452;0.30645782;10.879252;0.7661445
11:26:12:452;0.30645782;10.879252;0.7661445
11:26:12:553;0.63206923;10.247183;1.1109096
11:26:12:553;0.63206923;10.247183;1.1109096
11:26:12:553;0.63206923;10.247183;1.1109096
11:26:12:553;0.63206923;10.247183;1.1109096
11:26:12:553;0.63206923;10.247183;1.1109096
11:26:12:553;0.63206923;10.247183;1.1109096
11:26:12:553;0.63206923;10.247183;1.1109096
11:26:12:553;0.63206923;10.247183;1.1109096
11:26:12:553;0.63206923;10.247183;1.1109096
11:26:12:553;0.63206923;10.247183;1.1109096
11:26:12:553;0.63206923;10.247183;1.1109096
11:26:12:553;0.63206923;10.247183;1.1109096
11:26:12:553;0.63206923;10.247183;1.1109096
11:26:12:553;0.63206923;10.247183;1.1109096
11:26:12:553;0.63206923;10.247183;1.1109096
11:26:12:669;0.15322891;8.714894;2.9879637
11:26:12:669;0.15322891;8.714894;2.9879637
11:26:12:669;0.15322891;8.714894;2.9879637
11:26:12:669;0.15322891;8.714894;2.9879637
11:26:12:669;0.15322891;8.714894;2.9879637
11:26:12:669;0.15322891;8.714894;2.9879637
11:26:12:669;0.15322891;8.714894;2.9879637
11:26:12:669;0.15322891;8.714894;2.9879637
11:26:12:669;0.15322891;8.714894;2.9879637
11:26:12:669;0.15322891;8.714894;2.9879637
11:26:12:669;0.15322891;8.714894;2.9879637
11:26:12:669;0.15322891;8.714894;2.9879637
11:26:12:669;0.15322891;8.714894;2.9879637
11:26:12:669;0.15322891;8.714894;2.9879637
11:26:12:669;0.15322891;8.714894;2.9879637
11:26:12:786;0.4213795;10.534488;0.6512229
11:26:12:786;0.4213795;10.534488;0.6512229
11:26:12:786;0.4213795;10.534488;0.6512229
11:26:12:786;0.4213795;10.534488;0.6512229
11:26:12:786;0.4213795;10.534488;0.6512229
11:26:12:786;0.4213795;10.534488;0.6512229
11:26:12:786;0.4213795;10.534488;0.6512229
11:26:12:786;0.4213795;10.534488;0.6512229
11:26:12:786;0.4213795;10.534488;0.6512229
11:26:12:786;0.4213795;10.534488;0.6512229
11:26:12:786;0.4213795;10.534488;0.6512229
11:26:12:786;0.4213795;10.534488;0.6512229
11:26:12:786;0.4213795;10.534488;0.6512229
11:26:12:786;0.4213795;10.534488;0.6512229
11:26:12:786;0.4213795;10.534488;0.6512229
11:26:12:904;0.34476504;9.902418;2.3558946
11:26:12:904;0.34476504;9.902418;2.3558946
11:26:12:904;0.34476504;9.902418;2.3558946
11:26:12:904;0.34476504;9.902418;2.3558946
11:26:12:904;0.34476504;9.902418;2.3558946
11:26:12:904;0.34476504;9.902418;2.3558946
11:26:12:904;0.34476504;9.902418;2.3558946
11:26:12:904;0.34476504;9.902418;2.3558946
11:26:12:904;0.34476504;9.902418;2.3558946
11:26:12:904;0.34476504;9.902418;2.3558946
11:26:12:904;0.34476504;9.902418;2.3558946
11:26:12:904;0.34476504;9.902418;2.3558946
11:26:12:904;0.34476504;9.902418;2.3558946
11:26:12:904;0.34476504;9.902418;2.3558946
11:26:12:904;0.34476504;9.902418;2.3558946
11:26:13:020;0.40222588;10.726024;1.6663644
11:26:13:020;0.40222588;10.726024;1.6663644
11:26:13:020;0.40222588;10.726024;1.6663644
11:26:13:020;0.40222588;10.726024;1.6663644
11:26:13:020;0.40222588;10.726024;1.6663644
11:26:13:020;0.40222588;10.726024;1.6663644
11:26:13:020;0.40222588;10.726024;1.6663644
11:26:13:020;0.40222588;10.726024;1.6663644
11:26:13:020;0.40222588;10.726024;1.6663644
11:26:13:020;0.40222588;10.726024;1.6663644
11:26:13:020;0.40222588;10.726024;1.6663644
11:26:13:020;0.40222588;10.726024;1.6663644
11:26:13:020;0.40222588;10.726024;1.6663644
11:26:13:020;0.40222588;10.726024;1.6663644
11:26:13:020;0.40222588;10.726024;1.6663644
11:26:13:139;0.30645782;9.825804;1.9536686
11:26:13:139;0.30645782;9.825804;1.9536686
11:26:13:139;0.30645782;9.825804;1.9536686
11:26:13:139;0.30645782;9.825804;1.9536686
11:26:13:139;0.30645782;9.825804;1.9536686
11:26:13:139;0.30645782;9.825804;1.9536686
11:26:13:139;0.30645782;9.825804;1.9536686
11:26:13:139;0.30645782;9.825804;1.9536686
11:26:13:139;0.30645782;9.825804;1.9536686
11:26:13:139;0.30645782;9.825804;1.9536686
11:26:13:139;0.30645782;9.825804;1.9536686
11:26:13:139;0.30645782;9.825804;1.9536686
11:26:13:139;0.30645782;9.825804;1.9536686
11:26:13:139;0.30645782;9.825804;1.9536686
11:26:13:139;0.30645782;9.825804;1.9536686
11:26:13:139;0.30645782;9.825804;1.9536686
11:26:13:258;0.36391866;9.576807;2.030283
11:26:13:258;0.36391866;9.576807;2.030283
11:26:13:258;0.36391866;9.576807;2.030283
11:26:13:258;0.36391866;9.576807;2.030283
11:26:13:258;0.36391866;9.576807;2.030283
11:26:13:258;0.36391866;9.576807;2.030283
11:26:13:258;0.36391866;9.576807;2.030283
11:26:13:258;0.36391866;9.576807;2.030283
11:26:13:258;0.36391866;9.576807;2.030283
11:26:13:258;0.36391866;9.576807;2.030283
11:26:13:258;0.36391866;9.576807;2.030283
11:26:13:258;0.36391866;9.576807;2.030283
11:26:13:258;0.36391866;9.576807;2.030283
11:26:13:258;0.36391866;9.576807;2.030283
11:26:13:258;0.36391866;9.576807;2.030283
11:26:13:376;0.5746084;9.404425;1.1109096
11:26:13:376;0.5746084;9.404425;1.1109096
11:26:13:376;0.5746084;9.404425;1.1109096
11:26:13:376;0.5746084;9.404425;1.1109096
11:26:13:376;0.5746084;9.404425;1.1109096
11:26:13:376;0.5746084;9.404425;1.1109096
11:26:13:376;0.5746084;9.404425;1.1109096
11:26:13:376;0.5746084;9.404425;1.1109096
11:26:13:376;0.5746084;9.404425;1.1109096
11:26:13:376;0.5746084;9.404425;1.1109096
11:26:13:376;0.5746084;9.404425;1.1109096
11:26:13:376;0.5746084;9.404425;1.1109096
11:26:13:376;0.5746084;9.404425;1.1109096
11:26:13:477;0.05746084;10.6877165;1.6089035
11:26:13:477;0.05746084;10.6877165;1.6089035
11:26:13:477;0.05746084;10.6877165;1.6089035
11:26:13:477;0.05746084;10.6877165;1.6089035
11:26:13:477;0.05746084;10.6877165;1.6089035
11:26:13:477;0.05746084;10.6877165;1.6089035
11:26:13:477;0.05746084;10.6877165;1.6089035
11:26:13:477;0.05746084;10.6877165;1.6089035
11:26:13:477;0.05746084;10.6877165;1.6089035
11:26:13:477;0.05746084;10.6877165;1.6089035
11:26:13:477;0.05746084;10.6877165;1.6089035
11:26:13:477;0.05746084;10.6877165;1.6089035
11:26:13:477;0.05746084;10.6877165;1.6089035
11:26:13:477;0.05746084;10.6877165;1.6089035
11:26:13:477;0.05746084;10.6877165;1.6089035
11:26:13:596;0.17238252;9.883265;2.528277
11:26:13:596;0.17238252;9.883265;2.528277
11:26:13:596;0.17238252;9.883265;2.528277
11:26:13:596;0.17238252;9.883265;2.528277
11:26:13:596;0.17238252;9.883265;2.528277
11:26:13:596;0.17238252;9.883265;2.528277
11:26:13:596;0.17238252;9.883265;2.528277
11:26:13:596;0.17238252;9.883265;2.528277
11:26:13:596;0.17238252;9.883265;2.528277
11:26:13:596;0.17238252;9.883265;2.528277
11:26:13:596;0.17238252;9.883265;2.528277
11:26:13:596;0.17238252;9.883265;2.528277
11:26:13:596;0.17238252;9.883265;2.528277
11:26:13:596;0.17238252;9.883265;2.528277
11:26:13:596;0.17238252;9.883265;2.528277
11:26:13:711;0.4405331;10.323798;1.4939818
11:26:13:711;0.4405331;10.323798;1.4939818
11:26:13:711;0.4405331;10.323798;1.4939818
11:26:13:711;0.4405331;10.323798;1.4939818
11:26:13:711;0.4405331;10.323798;1.4939818
11:26:13:711;0.4405331;10.323798;1.4939818
11:26:13:711;0.4405331;10.323798;1.4939818
11:26:13:711;0.4405331;10.323798;1.4939818
11:26:13:711;0.4405331;10.323798;1.4939818
11:26:13:711;0.4405331;10.323798;1.4939818
11:26:13:711;0.4405331;10.323798;1.4939818
11:26:13:711;0.4405331;10.323798;1.4939818
11:26:13:711;0.4405331;10.323798;1.4939818
11:26:13:711;0.4405331;10.323798;1.4939818
11:26:13:828;-0.1340753;9.423578;2.930503
11:26:13:828;-0.1340753;9.423578;2.930503
11:26:13:828;-0.1340753;9.423578;2.930503
11:26:13:828;-0.1340753;9.423578;2.930503
11:26:13:828;-0.1340753;9.423578;2.930503
11:26:13:828;-0.1340753;9.423578;2.930503
11:26:13:828;-0.1340753;9.423578;2.930503
11:26:13:828;-0.1340753;9.423578;2.930503
11:26:13:828;-0.1340753;9.423578;2.930503
11:26:13:828;-0.1340753;9.423578;2.930503
11:26:13:828;-0.1340753;9.423578;2.930503
11:26:13:828;-0.1340753;9.423578;2.930503
11:26:13:828;-0.1340753;9.423578;2.930503
11:26:13:828;-0.1340753;9.423578;2.930503
11:26:13:828;-0.1340753;9.423578;2.930503
11:26:13:828;-0.1340753;9.423578;2.930503
11:26:13:946;0.095768064;11.224017;-0.095768064
11:26:13:946;0.095768064;11.224017;-0.095768064
11:26:13:946;0.095768064;11.224017;-0.095768064
11:26:13:946;0.095768064;11.224017;-0.095768064
11:26:13:946;0.095768064;11.224017;-0.095768064
11:26:13:946;0.095768064;11.224017;-0.095768064
11:26:13:946;0.095768064;11.224017;-0.095768064
11:26:13:946;0.095768064;11.224017;-0.095768064
11:26:13:946;0.095768064;11.224017;-0.095768064
11:26:13:946;0.095768064;11.224017;-0.095768064
11:26:13:946;0.095768064;11.224017;-0.095768064
11:26:13:946;0.095768064;11.224017;-0.095768064
11:26:13:946;0.095768064;11.224017;-0.095768064
11:26:13:946;0.095768064;11.224017;-0.095768064
11:26:14:062;-0.2873042;9.595961;3.0071173
11:26:14:062;-0.2873042;9.595961;3.0071173
11:26:14:062;-0.2873042;9.595961;3.0071173
11:26:14:062;-0.2873042;9.595961;3.0071173
11:26:14:062;-0.2873042;9.595961;3.0071173
11:26:14:062;-0.2873042;9.595961;3.0071173
11:26:14:062;-0.2873042;9.595961;3.0071173
11:26:14:062;-0.2873042;9.595961;3.0071173
11:26:14:062;-0.2873042;9.595961;3.0071173
11:26:14:062;-0.2873042;9.595961;3.0071173
11:26:14:062;-0.2873042;9.595961;3.0071173
11:26:14:062;-0.2873042;9.595961;3.0071173
11:26:14:062;-0.2873042;9.595961;3.0071173
11:26:14:062;-0.2873042;9.595961;3.0071173
11:26:14:062;-0.2873042;9.595961;3.0071173
11:26:14:062;-0.2873042;9.595961;3.0071173
11:26:14:181;0.5363012;10.745177;0.59376204
11:26:14:181;0.5363012;10.745177;0.59376204
11:26:14:181;0.5363012;10.745177;0.59376204
11:26:14:181;0.5363012;10.745177;0.59376204
11:26:14:181;0.5363012;10.745177;0.59376204
11:26:14:181;0.5363012;10.745177;0.59376204
11:26:14:181;0.5363012;10.745177;0.59376204
11:26:14:181;0.5363012;10.745177;0.59376204
11:26:14:181;0.5363012;10.745177;0.59376204
11:26:14:181;0.5363012;10.745177;0.59376204
11:26:14:181;0.5363012;10.745177;0.59376204
11:26:14:181;0.5363012;10.745177;0.59376204
11:26:14:181;0.5363012;10.745177;0.59376204
11:26:14:181;0.5363012;10.745177;0.59376204
11:26:14:181;0.5363012;10.745177;0.59376204
11:26:14:298;0.095768064;8.90643;3.7732618
11:26:14:298;0.095768064;8.90643;3.7732618
11:26:14:298;0.095768064;8.90643;3.7732618
11:26:14:298;0.095768064;8.90643;3.7732618
11:26:14:298;0.095768064;8.90643;3.7732618
11:26:14:298;0.095768064;8.90643;3.7732618
11:26:14:298;0.095768064;8.90643;3.7732618
11:26:14:298;0.095768064;8.90643;3.7732618
11:26:14:298;0.095768064;8.90643;3.7732618
11:26:14:298;0.095768064;8.90643;3.7732618
11:26:14:298;0.095768064;8.90643;3.7732618
11:26:14:298;0.095768064;8.90643;3.7732618
11:26:14:298;0.095768064;8.90643;3.7732618
11:26:14:298;0.095768064;8.90643;3.7732618
11:26:14:414;0.45968673;10.611102;0.842759
11:26:14:414;0.45968673;10.611102;0.842759
11:26:14:414;0.45968673;10.611102;0.842759
11:26:14:414;0.45968673;10.611102;0.842759
11:26:14:414;0.45968673;10.611102;0.842759
11:26:14:414;0.45968673;10.611102;0.842759
11:26:14:414;0.45968673;10.611102;0.842759
11:26:14:414;0.45968673;10.611102;0.842759
11:26:14:414;0.45968673;10.611102;0.842759
11:26:14:414;0.45968673;10.611102;0.842759
11:26:14:414;0.45968673;10.611102;0.842759
11:26:14:414;0.45968673;10.611102;0.842759
11:26:14:414;0.45968673;10.611102;0.842759
11:26:14:414;0.45968673;10.611102;0.842759
11:26:14:414;0.45968673;10.611102;0.842759
11:26:14:531;0.21068975;9.500193;2.2026656
11:26:14:531;0.21068975;9.500193;2.2026656
11:26:14:531;0.21068975;9.500193;2.2026656
11:26:14:531;0.21068975;9.500193;2.2026656
11:26:14:531;0.21068975;9.500193;2.2026656
11:26:14:531;0.21068975;9.500193;2.2026656
11:26:14:531;0.21068975;9.500193;2.2026656
11:26:14:531;0.21068975;9.500193;2.2026656
11:26:14:531;0.21068975;9.500193;2.2026656
11:26:14:531;0.21068975;9.500193;2.2026656
11:26:14:531;0.21068975;9.500193;2.2026656
11:26:14:531;0.21068975;9.500193;2.2026656
11:26:14:531;0.21068975;9.500193;2.2026656
11:26:14:531;0.21068975;9.500193;2.2026656
11:26:14:531;0.21068975;9.500193;2.2026656
11:26:14:531;0.21068975;9.500193;2.2026656
11:26:14:649;0.36391866;9.32781;2.7006595
11:26:14:649;0.36391866;9.32781;2.7006595
11:26:14:649;0.36391866;9.32781;2.7006595
11:26:14:649;0.36391866;9.32781;2.7006595
11:26:14:649;0.36391866;9.32781;2.7006595
11:26:14:649;0.36391866;9.32781;2.7006595
11:26:14:649;0.36391866;9.32781;2.7006595
11:26:14:649;0.36391866;9.32781;2.7006595
11:26:14:649;0.36391866;9.32781;2.7006595
11:26:14:649;0.36391866;9.32781;2.7006595
11:26:14:649;0.36391866;9.32781;2.7006595
11:26:14:649;0.36391866;9.32781;2.7006595
11:26:14:649;0.36391866;9.32781;2.7006595
11:26:14:649;0.36391866;9.32781;2.7006595
11:26:14:765;0.51714754;10.860099;0.2681506
11:26:14:765;0.51714754;10.860099;0.2681506
11:26:14:765;0.51714754;10.860099;0.2681506
11:26:14:765;0.51714754;10.860099;0.2681506
11:26:14:765;0.51714754;10.860099;0.2681506
11:26:14:765;0.51714754;10.860099;0.2681506
11:26:14:765;0.51714754;10.860099;0.2681506
11:26:14:765;0.51714754;10.860099;0.2681506
11:26:14:765;0.51714754;10.860099;0.2681506
11:26:14:765;0.51714754;10.860099;0.2681506
11:26:14:765;0.51714754;10.860099;0.2681506
11:26:14:765;0.51714754;10.860099;0.2681506
11:26:14:765;0.51714754;10.860099;0.2681506
11:26:14:765;0.51714754;10.860099;0.2681506
11:26:14:765;0.51714754;10.860099;0.2681506
11:26:14:765;0.51714754;10.860099;0.2681506
11:26:14:883;-0.32561144;9.308656;3.1986535
11:26:14:883;-0.32561144;9.308656;3.1986535
11:26:14:883;-0.32561144;9.308656;3.1986535
11:26:14:883;-0.32561144;9.308656;3.1986535
11:26:14:883;-0.32561144;9.308656;3.1986535
11:26:14:883;-0.32561144;9.308656;3.1986535
11:26:14:883;-0.32561144;9.308656;3.1986535
11:26:14:883;-0.32561144;9.308656;3.1986535
11:26:14:883;-0.32561144;9.308656;3.1986535
11:26:14:883;-0.32561144;9.308656;3.1986535
11:26:14:883;-0.32561144;9.308656;3.1986535
11:26:14:883;-0.32561144;9.308656;3.1986535
11:26:14:883;-0.32561144;9.308656;3.1986535
11:26:14:883;-0.32561144;9.308656;3.1986535
11:26:14:883;-0.32561144;9.308656;3.1986535
11:26:15:001;0.47884035;10.745177;0.61291564
11:26:15:001;0.47884035;10.745177;0.61291564
11:26:15:001;0.47884035;10.745177;0.61291564
11:26:15:001;0.47884035;10.745177;0.61291564
11:26:15:001;0.47884035;10.745177;0.61291564
11:26:15:001;0.47884035;10.745177;0.61291564
11:26:15:001;0.47884035;10.745177;0.61291564
11:26:15:001;0.47884035;10.745177;0.61291564
11:26:15:001;0.47884035;10.745177;0.61291564
11:26:15:001;0.47884035;10.745177;0.61291564
11:26:15:001;0.47884035;10.745177;0.61291564
11:26:15:001;0.47884035;10.745177;0.61291564
11:26:15:001;0.47884035;10.745177;0.61291564
11:26:15:001;0.47884035;10.745177;0.61291564
11:26:15:001;0.47884035;10.745177;0.61291564
11:26:15:119;-0.2681506;9.461885;2.815581
11:26:15:119;-0.2681506;9.461885;2.815581
11:26:15:119;-0.2681506;9.461885;2.815581
11:26:15:119;-0.2681506;9.461885;2.815581
11:26:15:119;-0.2681506;9.461885;2.815581
11:26:15:119;-0.2681506;9.461885;2.815581
11:26:15:119;-0.2681506;9.461885;2.815581
11:26:15:119;-0.2681506;9.461885;2.815581
11:26:15:119;-0.2681506;9.461885;2.815581
11:26:15:119;-0.2681506;9.461885;2.815581
11:26:15:119;-0.2681506;9.461885;2.815581
11:26:15:119;-0.2681506;9.461885;2.815581
11:26:15:119;-0.2681506;9.461885;2.815581
11:26:15:119;-0.2681506;9.461885;2.815581
11:26:15:119;-0.2681506;9.461885;2.815581
11:26:15:237;0.22984336;10.91756;0.5554548
11:26:15:237;0.22984336;10.91756;0.5554548
11:26:15:237;0.22984336;10.91756;0.5554548
11:26:15:237;0.22984336;10.91756;0.5554548
11:26:15:237;0.22984336;10.91756;0.5554548
11:26:15:237;0.22984336;10.91756;0.5554548
11:26:15:237;0.22984336;10.91756;0.5554548
11:26:15:237;0.22984336;10.91756;0.5554548
11:26:15:237;0.22984336;10.91756;0.5554548
11:26:15:237;0.22984336;10.91756;0.5554548
11:26:15:237;0.22984336;10.91756;0.5554548
11:26:15:237;0.22984336;10.91756;0.5554548
11:26:15:237;0.22984336;10.91756;0.5554548
11:26:15:237;0.22984336;10.91756;0.5554548
11:26:15:237;0.22984336;10.91756;0.5554548
11:26:15:358;0.05746084;9.289502;2.9113493
11:26:15:358;0.05746084;9.289502;2.9113493
11:26:15:358;0.05746084;9.289502;2.9113493
11:26:15:358;0.05746084;9.289502;2.9113493
11:26:15:358;0.05746084;9.289502;2.9113493
11:26:15:358;0.05746084;9.289502;2.9113493
11:26:15:358;0.05746084;9.289502;2.9113493
11:26:15:358;0.05746084;9.289502;2.9113493
11:26:15:358;0.05746084;9.289502;2.9113493
11:26:15:358;0.05746084;9.289502;2.9113493
11:26:15:358;0.05746084;9.289502;2.9113493
11:26:15:358;0.05746084;9.289502;2.9113493
11:26:15:358;0.05746084;9.289502;2.9113493
11:26:15:358;0.05746084;9.289502;2.9113493
11:26:15:358;0.05746084;9.289502;2.9113493
11:26:15:471;0.47884035;10.630256;0.9576807
11:26:15:471;0.47884035;10.630256;0.9576807
11:26:15:471;0.47884035;10.630256;0.9576807
11:26:15:471;0.47884035;10.630256;0.9576807
11:26:15:471;0.47884035;10.630256;0.9576807
11:26:15:471;0.47884035;10.630256;0.9576807
11:26:15:471;0.47884035;10.630256;0.9576807
11:26:15:471;0.47884035;10.630256;0.9576807
11:26:15:471;0.47884035;10.630256;0.9576807
11:26:15:471;0.47884035;10.630256;0.9576807
11:26:15:471;0.47884035;10.630256;0.9576807
11:26:15:471;0.47884035;10.630256;0.9576807
11:26:15:471;0.47884035;10.630256;0.9576807
11:26:15:471;0.47884035;10.630256;0.9576807
11:26:15:471;0.47884035;10.630256;0.9576807
11:26:15:471;0.47884035;10.630256;0.9576807
11:26:15:471;0.47884035;10.630256;0.9576807
11:26:15:471;0.47884035;10.630256;0.9576807
11:26:15:471;0.47884035;10.630256;0.9576807
11:26:15:471;0.47884035;10.630256;0.9576807
11:26:15:626;0.22984336;9.634268;1.7238252
11:26:15:626;0.22984336;9.634268;1.7238252
11:26:15:626;0.22984336;9.634268;1.7238252
11:26:15:626;0.22984336;9.634268;1.7238252
11:26:15:626;0.22984336;9.634268;1.7238252
11:26:15:626;0.22984336;9.634268;1.7238252
11:26:15:626;0.22984336;9.634268;1.7238252
11:26:15:626;0.22984336;9.634268;1.7238252
11:26:15:626;0.22984336;9.634268;1.7238252
11:26:15:626;0.22984336;9.634268;1.7238252
11:26:15:626;0.22984336;9.634268;1.7238252
11:26:15:626;0.22984336;9.634268;1.7238252
11:26:15:626;0.22984336;9.634268;1.7238252
11:26:15:731;0.15322891;9.653421;1.1300632
11:26:15:731;0.15322891;9.653421;1.1300632
11:26:15:731;0.15322891;9.653421;1.1300632
11:26:15:731;0.15322891;9.653421;1.1300632
11:26:15:731;0.15322891;9.653421;1.1300632
11:26:15:731;0.15322891;9.653421;1.1300632
11:26:15:731;0.15322891;9.653421;1.1300632
11:26:15:731;0.15322891;9.653421;1.1300632
11:26:15:731;0.15322891;9.653421;1.1300632
11:26:15:731;0.15322891;9.653421;1.1300632
11:26:15:731;0.15322891;9.653421;1.1300632
11:26:15:731;0.15322891;9.653421;1.1300632
11:26:15:731;0.15322891;9.653421;1.1300632
11:26:15:731;0.15322891;9.653421;1.1300632
11:26:15:842;0.40222588;9.998186;1.1300632
11:26:15:842;0.40222588;9.998186;1.1300632
11:26:15:842;0.40222588;9.998186;1.1300632
11:26:15:842;0.40222588;9.998186;1.1300632
11:26:15:842;0.40222588;9.998186;1.1300632
11:26:15:842;0.40222588;9.998186;1.1300632
11:26:15:842;0.40222588;9.998186;1.1300632
11:26:15:842;0.40222588;9.998186;1.1300632
11:26:15:842;0.40222588;9.998186;1.1300632
11:26:15:842;0.40222588;9.998186;1.1300632
11:26:15:842;0.40222588;9.998186;1.1300632
11:26:15:842;0.40222588;9.998186;1.1300632
11:26:15:842;0.40222588;9.998186;1.1300632
11:26:15:943;0.2873042;9.576807;1.1683705
11:26:15:943;0.2873042;9.576807;1.1683705
11:26:15:943;0.2873042;9.576807;1.1683705
11:26:15:943;0.2873042;9.576807;1.1683705
11:26:15:943;0.2873042;9.576807;1.1683705
11:26:15:943;0.2873042;9.576807;1.1683705
11:26:15:943;0.2873042;9.576807;1.1683705
11:26:15:943;0.2873042;9.576807;1.1683705
11:26:15:943;0.2873042;9.576807;1.1683705
11:26:15:943;0.2873042;9.576807;1.1683705
11:26:15:943;0.2873042;9.576807;1.1683705
11:26:15:943;0.2873042;9.576807;1.1683705
11:26:15:943;0.2873042;9.576807;1.1683705
11:26:15:943;0.2873042;9.576807;1.1683705
11:26:15:943;0.2873042;9.576807;1.1683705
11:26:16:059;0.21068975;10.496181;0.2873042
11:26:16:059;0.21068975;10.496181;0.2873042
11:26:16:059;0.21068975;10.496181;0.2873042
11:26:16:059;0.21068975;10.496181;0.2873042
11:26:16:059;0.21068975;10.496181;0.2873042
11:26:16:059;0.21068975;10.496181;0.2873042
11:26:16:059;0.21068975;10.496181;0.2873042
11:26:16:059;0.21068975;10.496181;0.2873042
11:26:16:059;0.21068975;10.496181;0.2873042
11:26:16:059;0.21068975;10.496181;0.2873042
11:26:16:059;0.21068975;10.496181;0.2873042
11:26:16:059;0.21068975;10.496181;0.2873042
11:26:16:059;0.21068975;10.496181;0.2873042
11:26:16:059;0.21068975;10.496181;0.2873042
11:26:16:059;0.21068975;10.496181;0.2873042
11:26:16:176;0.30645782;9.11712;2.27928
11:26:16:176;0.30645782;9.11712;2.27928
11:26:16:176;0.30645782;9.11712;2.27928
11:26:16:176;0.30645782;9.11712;2.27928
11:26:16:176;0.30645782;9.11712;2.27928
11:26:16:176;0.30645782;9.11712;2.27928
11:26:16:176;0.30645782;9.11712;2.27928
11:26:16:176;0.30645782;9.11712;2.27928
11:26:16:176;0.30645782;9.11712;2.27928
11:26:16:176;0.30645782;9.11712;2.27928
11:26:16:176;0.30645782;9.11712;2.27928
11:26:16:176;0.30645782;9.11712;2.27928
11:26:16:176;0.30645782;9.11712;2.27928
11:26:16:176;0.30645782;9.11712;2.27928
11:26:16:176;0.30645782;9.11712;2.27928
11:26:16:296;0.076614454;10.955867;-0.30645782
11:26:16:296;0.076614454;10.955867;-0.30645782
11:26:16:296;0.076614454;10.955867;-0.30645782
11:26:16:296;0.076614454;10.955867;-0.30645782
11:26:16:296;0.076614454;10.955867;-0.30645782
11:26:16:296;0.076614454;10.955867;-0.30645782
11:26:16:296;0.076614454;10.955867;-0.30645782
11:26:16:296;0.076614454;10.955867;-0.30645782
11:26:16:296;0.076614454;10.955867;-0.30645782
11:26:16:296;0.076614454;10.955867;-0.30645782
11:26:16:296;0.076614454;10.955867;-0.30645782
11:26:16:296;0.076614454;10.955867;-0.30645782
11:26:16:296;0.076614454;10.955867;-0.30645782
11:26:16:296;0.076614454;10.955867;-0.30645782
11:26:16:296;0.076614454;10.955867;-0.30645782
11:26:16:410;-0.095768064;9.097966;2.2984335
11:26:16:410;-0.095768064;9.097966;2.2984335
11:26:16:410;-0.095768064;9.097966;2.2984335
11:26:16:410;-0.095768064;9.097966;2.2984335
11:26:16:410;-0.095768064;9.097966;2.2984335
11:26:16:410;-0.095768064;9.097966;2.2984335
11:26:16:410;-0.095768064;9.097966;2.2984335
11:26:16:410;-0.095768064;9.097966;2.2984335
11:26:16:410;-0.095768064;9.097966;2.2984335
11:26:16:410;-0.095768064;9.097966;2.2984335
11:26:16:410;-0.095768064;9.097966;2.2984335
11:26:16:410;-0.095768064;9.097966;2.2984335
11:26:16:410;-0.095768064;9.097966;2.2984335
11:26:16:410;-0.095768064;9.097966;2.2984335
11:26:16:410;-0.095768064;9.097966;2.2984335
11:26:16:529;0.21068975;10.898406;-0.5554548
11:26:16:529;0.21068975;10.898406;-0.5554548
11:26:16:529;0.21068975;10.898406;-0.5554548
11:26:16:529;0.21068975;10.898406;-0.5554548
11:26:16:529;0.21068975;10.898406;-0.5554548
11:26:16:529;0.21068975;10.898406;-0.5554548
11:26:16:529;0.21068975;10.898406;-0.5554548
11:26:16:529;0.21068975;10.898406;-0.5554548
11:26:16:529;0.21068975;10.898406;-0.5554548
11:26:16:529;0.21068975;10.898406;-0.5554548
11:26:16:529;0.21068975;10.898406;-0.5554548
11:26:16:529;0.21068975;10.898406;-0.5554548
11:26:16:529;0.21068975;10.898406;-0.5554548
11:26:16:529;0.21068975;10.898406;-0.5554548
11:26:16:529;0.21068975;10.898406;-0.5554548
11:26:16:645;-0.05746084;9.557653;2.0111294
11:26:16:645;-0.05746084;9.557653;2.0111294
11:26:16:645;-0.05746084;9.557653;2.0111294
11:26:16:645;-0.05746084;9.557653;2.0111294
11:26:16:645;-0.05746084;9.557653;2.0111294
11:26:16:645;-0.05746084;9.557653;2.0111294
11:26:16:645;-0.05746084;9.557653;2.0111294
11:26:16:645;-0.05746084;9.557653;2.0111294
11:26:16:645;-0.05746084;9.557653;2.0111294
11:26:16:645;-0.05746084;9.557653;2.0111294
11:26:16:645;-0.05746084;9.557653;2.0111294
11:26:16:645;-0.05746084;9.557653;2.0111294
11:26:16:645;-0.05746084;9.557653;2.0111294
11:26:16:645;-0.05746084;9.557653;2.0111294
11:26:16:645;-0.05746084;9.557653;2.0111294
11:26:16:762;0.38307226;10.266336;0.63206923
11:26:16:762;0.38307226;10.266336;0.63206923
11:26:16:762;0.38307226;10.266336;0.63206923
11:26:16:762;0.38307226;10.266336;0.63206923
11:26:16:762;0.38307226;10.266336;0.63206923
11:26:16:762;0.38307226;10.266336;0.63206923
11:26:16:762;0.38307226;10.266336;0.63206923
11:26:16:762;0.38307226;10.266336;0.63206923
11:26:16:762;0.38307226;10.266336;0.63206923
11:26:16:762;0.38307226;10.266336;0.63206923
11:26:16:762;0.38307226;10.266336;0.63206923
11:26:16:762;0.38307226;10.266336;0.63206923
11:26:16:762;0.38307226;10.266336;0.63206923
11:26:16:762;0.38307226;10.266336;0.63206923
11:26:16:762;0.38307226;10.266336;0.63206923
11:26:16:879;0.21068975;10.208876;0.78529817
11:26:16:879;0.21068975;10.208876;0.78529817
11:26:16:879;0.21068975;10.208876;0.78529817
11:26:16:879;0.21068975;10.208876;0.78529817
11:26:16:879;0.21068975;10.208876;0.78529817
11:26:16:879;0.21068975;10.208876;0.78529817
11:26:16:879;0.21068975;10.208876;0.78529817
11:26:16:879;0.21068975;10.208876;0.78529817
11:26:16:879;0.21068975;10.208876;0.78529817
11:26:16:879;0.21068975;10.208876;0.78529817
11:26:16:879;0.21068975;10.208876;0.78529817
11:26:16:879;0.21068975;10.208876;0.78529817
11:26:16:879;0.21068975;10.208876;0.78529817
11:26:16:879;0.21068975;10.208876;0.78529817
11:26:16:879;0.21068975;10.208876;0.78529817
11:26:16:996;0.51714754;9.5385;1.6280571
11:26:16:996;0.51714754;9.5385;1.6280571
11:26:16:996;0.51714754;9.5385;1.6280571
11:26:16:996;0.51714754;9.5385;1.6280571
11:26:16:996;0.51714754;9.5385;1.6280571
11:26:16:996;0.51714754;9.5385;1.6280571
11:26:16:996;0.51714754;9.5385;1.6280571
11:26:16:996;0.51714754;9.5385;1.6280571
11:26:16:996;0.51714754;9.5385;1.6280571
11:26:16:996;0.51714754;9.5385;1.6280571
11:26:16:996;0.51714754;9.5385;1.6280571
11:26:16:996;0.51714754;9.5385;1.6280571
11:26:16:996;0.51714754;9.5385;1.6280571
11:26:16:996;0.51714754;9.5385;1.6280571
11:26:16:996;0.51714754;9.5385;1.6280571
11:26:17:113;0.19153613;10.802638;-0.15322891
11:26:17:113;0.19153613;10.802638;-0.15322891
11:26:17:113;0.19153613;10.802638;-0.15322891
11:26:17:113;0.19153613;10.802638;-0.15322891
11:26:17:113;0.19153613;10.802638;-0.15322891
11:26:17:113;0.19153613;10.802638;-0.15322891
11:26:17:113;0.19153613;10.802638;-0.15322891
11:26:17:113;0.19153613;10.802638;-0.15322891
11:26:17:113;0.19153613;10.802638;-0.15322891
11:26:17:113;0.19153613;10.802638;-0.15322891
11:26:17:113;0.19153613;10.802638;-0.15322891
11:26:17:113;0.19153613;10.802638;-0.15322891
11:26:17:113;0.19153613;10.802638;-0.15322891
11:26:17:113;0.19153613;10.802638;-0.15322891
11:26:17:113;0.19153613;10.802638;-0.15322891
11:26:17:230;-0.2681506;9.11712;2.3558946
11:26:17:230;-0.2681506;9.11712;2.3558946
11:26:17:230;-0.2681506;9.11712;2.3558946
11:26:17:230;-0.2681506;9.11712;2.3558946
11:26:17:230;-0.2681506;9.11712;2.3558946
11:26:17:230;-0.2681506;9.11712;2.3558946
11:26:17:230;-0.2681506;9.11712;2.3558946
11:26:17:230;-0.2681506;9.11712;2.3558946
11:26:17:230;-0.2681506;9.11712;2.3558946
11:26:17:230;-0.2681506;9.11712;2.3558946
11:26:17:230;-0.2681506;9.11712;2.3558946
11:26:17:230;-0.2681506;9.11712;2.3558946
11:26:17:230;-0.2681506;9.11712;2.3558946
11:26:17:230;-0.2681506;9.11712;2.3558946
11:26:17:230;-0.2681506;9.11712;2.3558946
11:26:17:348;0.1340753;11.070788;-0.7086837
11:26:17:348;0.1340753;11.070788;-0.7086837
11:26:17:348;0.1340753;11.070788;-0.7086837
11:26:17:348;0.1340753;11.070788;-0.7086837
11:26:17:348;0.1340753;11.070788;-0.7086837
11:26:17:348;0.1340753;11.070788;-0.7086837
11:26:17:348;0.1340753;11.070788;-0.7086837
11:26:17:348;0.1340753;11.070788;-0.7086837
11:26:17:348;0.1340753;11.070788;-0.7086837
11:26:17:348;0.1340753;11.070788;-0.7086837
11:26:17:348;0.1340753;11.070788;-0.7086837
11:26:17:348;0.1340753;11.070788;-0.7086837
11:26:17:348;0.1340753;11.070788;-0.7086837
11:26:17:348;0.1340753;11.070788;-0.7086837
11:26:17:348;0.1340753;11.070788;-0.7086837
11:26:17:465;-0.19153613;9.155427;2.432509
11:26:17:465;-0.19153613;9.155427;2.432509
11:26:17:465;-0.19153613;9.155427;2.432509
11:26:17:465;-0.19153613;9.155427;2.432509
11:26:17:465;-0.19153613;9.155427;2.432509
11:26:17:465;-0.19153613;9.155427;2.432509
11:26:17:465;-0.19153613;9.155427;2.432509
11:26:17:465;-0.19153613;9.155427;2.432509
11:26:17:465;-0.19153613;9.155427;2.432509
11:26:17:465;-0.19153613;9.155427;2.432509
11:26:17:465;-0.19153613;9.155427;2.432509
11:26:17:465;-0.19153613;9.155427;2.432509
11:26:17:465;-0.19153613;9.155427;2.432509
11:26:17:465;-0.19153613;9.155427;2.432509
11:26:17:465;-0.19153613;9.155427;2.432509
11:26:17:465;-0.19153613;9.155427;2.432509
11:26:17:592;0.51714754;10.572795;-0.22984336
11:26:17:592;0.51714754;10.572795;-0.22984336
11:26:17:592;0.51714754;10.572795;-0.22984336
11:26:17:592;0.51714754;10.572795;-0.22984336
11:26:17:592;0.51714754;10.572795;-0.22984336
11:26:17:592;0.51714754;10.572795;-0.22984336
11:26:17:592;0.51714754;10.572795;-0.22984336
11:26:17:592;0.51714754;10.572795;-0.22984336
11:26:17:592;0.51714754;10.572795;-0.22984336
11:26:17:592;0.51714754;10.572795;-0.22984336
11:26:17:592;0.51714754;10.572795;-0.22984336
11:26:17:592;0.51714754;10.572795;-0.22984336
11:26:17:592;0.51714754;10.572795;-0.22984336
11:26:17:592;0.51714754;10.572795;-0.22984336
11:26:17:699;0.19153613;9.423578;1.6663644
11:26:17:699;0.19153613;9.423578;1.6663644
11:26:17:699;0.19153613;9.423578;1.6663644
11:26:17:699;0.19153613;9.423578;1.6663644
11:26:17:699;0.19153613;9.423578;1.6663644
11:26:17:699;0.19153613;9.423578;1.6663644
11:26:17:699;0.19153613;9.423578;1.6663644
11:26:17:699;0.19153613;9.423578;1.6663644
11:26:17:699;0.19153613;9.423578;1.6663644
11:26:17:699;0.19153613;9.423578;1.6663644
11:26:17:699;0.19153613;9.423578;1.6663644
11:26:17:699;0.19153613;9.423578;1.6663644
11:26:17:699;0.19153613;9.423578;1.6663644
11:26:17:699;0.19153613;9.423578;1.6663644
11:26:17:699;0.19153613;9.423578;1.6663644
11:26:17:816;0.4213795;10.342952;1.1109096
11:26:17:816;0.4213795;10.342952;1.1109096
11:26:17:816;0.4213795;10.342952;1.1109096
11:26:17:816;0.4213795;10.342952;1.1109096
11:26:17:816;0.4213795;10.342952;1.1109096
11:26:17:816;0.4213795;10.342952;1.1109096
11:26:17:816;0.4213795;10.342952;1.1109096
11:26:17:816;0.4213795;10.342952;1.1109096
11:26:17:816;0.4213795;10.342952;1.1109096
11:26:17:816;0.4213795;10.342952;1.1109096
11:26:17:816;0.4213795;10.342952;1.1109096
11:26:17:816;0.4213795;10.342952;1.1109096
11:26:17:816;0.4213795;10.342952;1.1109096
11:26:17:816;0.4213795;10.342952;1.1109096
11:26:17:816;0.4213795;10.342952;1.1109096
11:26:17:937;0.30645782;9.998186;0.5363012
11:26:17:937;0.30645782;9.998186;0.5363012
11:26:17:937;0.30645782;9.998186;0.5363012
11:26:17:937;0.30645782;9.998186;0.5363012
11:26:17:937;0.30645782;9.998186;0.5363012
11:26:17:937;0.30645782;9.998186;0.5363012
11:26:17:937;0.30645782;9.998186;0.5363012
11:26:17:937;0.30645782;9.998186;0.5363012
11:26:17:937;0.30645782;9.998186;0.5363012
11:26:17:937;0.30645782;9.998186;0.5363012
11:26:17:937;0.30645782;9.998186;0.5363012
11:26:17:937;0.30645782;9.998186;0.5363012
11:26:17:937;0.30645782;9.998186;0.5363012
11:26:17:937;0.30645782;9.998186;0.5363012
11:26:17:937;0.30645782;9.998186;0.5363012
11:26:18:053;0.4213795;9.940725;1.6280571
11:26:18:053;0.4213795;9.940725;1.6280571
11:26:18:053;0.4213795;9.940725;1.6280571
11:26:18:053;0.4213795;9.940725;1.6280571
11:26:18:053;0.4213795;9.940725;1.6280571
11:26:18:053;0.4213795;9.940725;1.6280571
11:26:18:053;0.4213795;9.940725;1.6280571
11:26:18:053;0.4213795;9.940725;1.6280571
11:26:18:053;0.4213795;9.940725;1.6280571
11:26:18:053;0.4213795;9.940725;1.6280571
11:26:18:053;0.4213795;9.940725;1.6280571
11:26:18:053;0.4213795;9.940725;1.6280571
11:26:18:053;0.4213795;9.940725;1.6280571
11:26:18:053;0.4213795;9.940725;1.6280571
11:26:18:053;0.4213795;9.940725;1.6280571
11:26:18:053;0.4213795;9.940725;1.6280571
11:26:18:172;0.34476504;10.783484;-0.32561144
11:26:18:172;0.34476504;10.783484;-0.32561144
11:26:18:172;0.34476504;10.783484;-0.32561144
11:26:18:172;0.34476504;10.783484;-0.32561144
11:26:18:172;0.34476504;10.783484;-0.32561144
11:26:18:172;0.34476504;10.783484;-0.32561144
11:26:18:172;0.34476504;10.783484;-0.32561144
11:26:18:172;0.34476504;10.783484;-0.32561144
11:26:18:172;0.34476504;10.783484;-0.32561144
11:26:18:172;0.34476504;10.783484;-0.32561144
11:26:18:172;0.34476504;10.783484;-0.32561144
11:26:18:172;0.34476504;10.783484;-0.32561144
11:26:18:172;0.34476504;10.783484;-0.32561144
11:26:18:172;0.34476504;10.783484;-0.32561144
11:26:18:287;-0.095768064;9.097966;2.2026656
11:26:18:287;-0.095768064;9.097966;2.2026656
11:26:18:287;-0.095768064;9.097966;2.2026656
11:26:18:287;-0.095768064;9.097966;2.2026656
11:26:18:287;-0.095768064;9.097966;2.2026656
11:26:18:287;-0.095768064;9.097966;2.2026656
11:26:18:287;-0.095768064;9.097966;2.2026656
11:26:18:287;-0.095768064;9.097966;2.2026656
11:26:18:287;-0.095768064;9.097966;2.2026656
11:26:18:287;-0.095768064;9.097966;2.2026656
11:26:18:287;-0.095768064;9.097966;2.2026656
11:26:18:287;-0.095768064;9.097966;2.2026656
11:26:18:287;-0.095768064;9.097966;2.2026656
11:26:18:287;-0.095768064;9.097966;2.2026656
11:26:18:287;-0.095768064;9.097966;2.2026656
11:26:18:406;0.51714754;10.879252;-0.9959879
11:26:18:406;0.51714754;10.879252;-0.9959879
11:26:18:406;0.51714754;10.879252;-0.9959879
11:26:18:406;0.51714754;10.879252;-0.9959879
11:26:18:406;0.51714754;10.879252;-0.9959879
11:26:18:406;0.51714754;10.879252;-0.9959879
11:26:18:406;0.51714754;10.879252;-0.9959879
11:26:18:406;0.51714754;10.879252;-0.9959879
11:26:18:406;0.51714754;10.879252;-0.9959879
11:26:18:406;0.51714754;10.879252;-0.9959879
11:26:18:406;0.51714754;10.879252;-0.9959879
11:26:18:406;0.51714754;10.879252;-0.9959879
11:26:18:406;0.51714754;10.879252;-0.9959879
11:26:18:406;0.51714754;10.879252;-0.9959879
11:26:18:406;0.51714754;10.879252;-0.9959879
11:26:18:522;-0.038307227;9.059659;2.183512
11:26:18:522;-0.038307227;9.059659;2.183512
11:26:18:522;-0.038307227;9.059659;2.183512
11:26:18:522;-0.038307227;9.059659;2.183512
11:26:18:522;-0.038307227;9.059659;2.183512
11:26:18:522;-0.038307227;9.059659;2.183512
11:26:18:522;-0.038307227;9.059659;2.183512
11:26:18:522;-0.038307227;9.059659;2.183512
11:26:18:522;-0.038307227;9.059659;2.183512
11:26:18:522;-0.038307227;9.059659;2.183512
11:26:18:522;-0.038307227;9.059659;2.183512
11:26:18:522;-0.038307227;9.059659;2.183512
11:26:18:522;-0.038307227;9.059659;2.183512
11:26:18:522;-0.038307227;9.059659;2.183512
11:26:18:522;-0.038307227;9.059659;2.183512
11:26:18:639;0.22984336;11.051635;-0.59376204
11:26:18:639;0.22984336;11.051635;-0.59376204
11:26:18:639;0.22984336;11.051635;-0.59376204
11:26:18:639;0.22984336;11.051635;-0.59376204
11:26:18:639;0.22984336;11.051635;-0.59376204
11:26:18:639;0.22984336;11.051635;-0.59376204
11:26:18:639;0.22984336;11.051635;-0.59376204
11:26:18:639;0.22984336;11.051635;-0.59376204
11:26:18:639;0.22984336;11.051635;-0.59376204
11:26:18:639;0.22984336;11.051635;-0.59376204
11:26:18:639;0.22984336;11.051635;-0.59376204
11:26:18:639;0.22984336;11.051635;-0.59376204
11:26:18:639;0.22984336;11.051635;-0.59376204
11:26:18:639;0.22984336;11.051635;-0.59376204
11:26:18:639;0.22984336;11.051635;-0.59376204
11:26:18:756;0.40222588;9.155427;1.9728222
11:26:18:756;0.40222588;9.155427;1.9728222
11:26:18:756;0.40222588;9.155427;1.9728222
11:26:18:756;0.40222588;9.155427;1.9728222
11:26:18:756;0.40222588;9.155427;1.9728222
11:26:18:756;0.40222588;9.155427;1.9728222
11:26:18:756;0.40222588;9.155427;1.9728222
11:26:18:756;0.40222588;9.155427;1.9728222
11:26:18:756;0.40222588;9.155427;1.9728222
11:26:18:756;0.40222588;9.155427;1.9728222
11:26:18:756;0.40222588;9.155427;1.9728222
11:26:18:756;0.40222588;9.155427;1.9728222
11:26:18:756;0.40222588;9.155427;1.9728222
11:26:18:756;0.40222588;9.155427;1.9728222
11:26:18:756;0.40222588;9.155427;1.9728222
11:26:18:756;0.40222588;9.155427;1.9728222
11:26:18:756;0.40222588;9.155427;1.9728222
11:26:18:756;0.40222588;9.155427;1.9728222
11:26:18:756;0.40222588;9.155427;1.9728222
11:26:18:905;0.30645782;10.457873;0.22984336
11:26:18:905;0.30645782;10.457873;0.22984336
11:26:18:905;0.30645782;10.457873;0.22984336
11:26:18:905;0.30645782;10.457873;0.22984336
11:26:18:905;0.30645782;10.457873;0.22984336
11:26:18:905;0.30645782;10.457873;0.22984336
11:26:18:905;0.30645782;10.457873;0.22984336
11:26:18:905;0.30645782;10.457873;0.22984336
11:26:18:905;0.30645782;10.457873;0.22984336
11:26:18:905;0.30645782;10.457873;0.22984336
11:26:18:905;0.30645782;10.457873;0.22984336
11:26:18:905;0.30645782;10.457873;0.22984336
11:26:18:905;0.30645782;10.457873;0.22984336
11:26:18:905;0.30645782;10.457873;0.22984336
11:26:19:010;0.22984336;10.6877165;0.019153614
11:26:19:010;0.22984336;10.6877165;0.019153614
11:26:19:010;0.22984336;10.6877165;0.019153614
11:26:19:010;0.22984336;10.6877165;0.019153614
11:26:19:010;0.22984336;10.6877165;0.019153614
11:26:19:010;0.22984336;10.6877165;0.019153614
11:26:19:010;0.22984336;10.6877165;0.019153614
11:26:19:010;0.22984336;10.6877165;0.019153614
11:26:19:010;0.22984336;10.6877165;0.019153614
11:26:19:010;0.22984336;10.6877165;0.019153614
11:26:19:010;0.22984336;10.6877165;0.019153614
11:26:19:010;0.22984336;10.6877165;0.019153614
11:26:19:010;0.22984336;10.6877165;0.019153614
11:26:19:010;0.22984336;10.6877165;0.019153614
11:26:19:010;0.22984336;10.6877165;0.019153614
11:26:19:010;0.22984336;10.6877165;0.019153614
11:26:19:010;0.22984336;10.6877165;0.019153614
11:26:19:010;0.22984336;10.6877165;0.019153614
11:26:19:010;0.22984336;10.6877165;0.019153614
11:26:19:010;0.22984336;10.6877165;0.019153614
11:26:19:166;0.2873042;9.80665;0.9576807
11:26:19:166;0.2873042;9.80665;0.9576807
11:26:19:166;0.2873042;9.80665;0.9576807
11:26:19:166;0.2873042;9.80665;0.9576807
11:26:19:166;0.2873042;9.80665;0.9576807
11:26:19:166;0.2873042;9.80665;0.9576807
11:26:19:166;0.2873042;9.80665;0.9576807
11:26:19:166;0.2873042;9.80665;0.9576807
11:26:19:166;0.2873042;9.80665;0.9576807
11:26:19:166;0.2873042;9.80665;0.9576807
11:26:19:166;0.2873042;9.80665;0.9576807
11:26:19:166;0.2873042;9.80665;0.9576807
11:26:19:166;0.2873042;9.80665;0.9576807
11:26:19:166;0.2873042;9.80665;0.9576807
11:26:19:166;0.2873042;9.80665;0.9576807
11:26:19:283;0.47884035;10.5919485;-0.076614454
11:26:19:283;0.47884035;10.5919485;-0.076614454
11:26:19:283;0.47884035;10.5919485;-0.076614454
11:26:19:283;0.47884035;10.5919485;-0.076614454
11:26:19:283;0.47884035;10.5919485;-0.076614454
11:26:19:283;0.47884035;10.5919485;-0.076614454
11:26:19:283;0.47884035;10.5919485;-0.076614454
11:26:19:283;0.47884035;10.5919485;-0.076614454
11:26:19:283;0.47884035;10.5919485;-0.076614454
11:26:19:283;0.47884035;10.5919485;-0.076614454
11:26:19:283;0.47884035;10.5919485;-0.076614454
11:26:19:283;0.47884035;10.5919485;-0.076614454
11:26:19:283;0.47884035;10.5919485;-0.076614454
11:26:19:283;0.47884035;10.5919485;-0.076614454
11:26:19:283;0.47884035;10.5919485;-0.076614454
11:26:19:401;0.36391866;9.787497;1.3790601
11:26:19:401;0.36391866;9.787497;1.3790601
11:26:19:401;0.36391866;9.787497;1.3790601
11:26:19:401;0.36391866;9.787497;1.3790601
11:26:19:401;0.36391866;9.787497;1.3790601
11:26:19:401;0.36391866;9.787497;1.3790601
11:26:19:401;0.36391866;9.787497;1.3790601
11:26:19:401;0.36391866;9.787497;1.3790601
11:26:19:401;0.36391866;9.787497;1.3790601
11:26:19:401;0.36391866;9.787497;1.3790601
11:26:19:401;0.36391866;9.787497;1.3790601
11:26:19:401;0.36391866;9.787497;1.3790601
11:26:19:401;0.36391866;9.787497;1.3790601
11:26:19:401;0.36391866;9.787497;1.3790601
11:26:19:401;0.36391866;9.787497;1.3790601
11:26:19:517;0.2873042;9.998186;1.2258313
11:26:19:517;0.2873042;9.998186;1.2258313
11:26:19:517;0.2873042;9.998186;1.2258313
11:26:19:517;0.2873042;9.998186;1.2258313
11:26:19:517;0.2873042;9.998186;1.2258313
11:26:19:517;0.2873042;9.998186;1.2258313
11:26:19:517;0.2873042;9.998186;1.2258313
11:26:19:517;0.2873042;9.998186;1.2258313
11:26:19:517;0.2873042;9.998186;1.2258313
11:26:19:517;0.2873042;9.998186;1.2258313
11:26:19:517;0.2873042;9.998186;1.2258313
11:26:19:517;0.2873042;9.998186;1.2258313
11:26:19:517;0.2873042;9.998186;1.2258313
11:26:19:517;0.2873042;9.998186;1.2258313
11:26:19:517;0.2873042;9.998186;1.2258313
11:26:19:517;0.2873042;9.998186;1.2258313
11:26:19:642;0.095768064;10.496181;0.1340753
11:26:19:642;0.095768064;10.496181;0.1340753
11:26:19:642;0.095768064;10.496181;0.1340753
11:26:19:642;0.095768064;10.496181;0.1340753
11:26:19:642;0.095768064;10.496181;0.1340753
11:26:19:642;0.095768064;10.496181;0.1340753
11:26:19:642;0.095768064;10.496181;0.1340753
11:26:19:642;0.095768064;10.496181;0.1340753
11:26:19:642;0.095768064;10.496181;0.1340753
11:26:19:642;0.095768064;10.496181;0.1340753
11:26:19:642;0.095768064;10.496181;0.1340753
11:26:19:642;0.095768064;10.496181;0.1340753
11:26:19:642;0.095768064;10.496181;0.1340753
11:26:19:642;0.095768064;10.496181;0.1340753
11:26:19:751;0.15322891;9.346964;1.934515
11:26:19:751;0.15322891;9.346964;1.934515
11:26:19:751;0.15322891;9.346964;1.934515
11:26:19:751;0.15322891;9.346964;1.934515
11:26:19:751;0.15322891;9.346964;1.934515
11:26:19:751;0.15322891;9.346964;1.934515
11:26:19:751;0.15322891;9.346964;1.934515
11:26:19:751;0.15322891;9.346964;1.934515
11:26:19:751;0.15322891;9.346964;1.934515
11:26:19:751;0.15322891;9.346964;1.934515
11:26:19:751;0.15322891;9.346964;1.934515
11:26:19:751;0.15322891;9.346964;1.934515
11:26:19:751;0.15322891;9.346964;1.934515
11:26:19:751;0.15322891;9.346964;1.934515
11:26:19:751;0.15322891;9.346964;1.934515
11:26:19:869;0.24899697;10.70687;-0.7278373
11:26:19:869;0.24899697;10.70687;-0.7278373
11:26:19:869;0.24899697;10.70687;-0.7278373
11:26:19:869;0.24899697;10.70687;-0.7278373
11:26:19:869;0.24899697;10.70687;-0.7278373
11:26:19:869;0.24899697;10.70687;-0.7278373
11:26:19:869;0.24899697;10.70687;-0.7278373
11:26:19:869;0.24899697;10.70687;-0.7278373
11:26:19:869;0.24899697;10.70687;-0.7278373
11:26:19:869;0.24899697;10.70687;-0.7278373
11:26:19:869;0.24899697;10.70687;-0.7278373
11:26:19:869;0.24899697;10.70687;-0.7278373
11:26:19:869;0.24899697;10.70687;-0.7278373
11:26:19:869;0.24899697;10.70687;-0.7278373
11:26:19:869;0.24899697;10.70687;-0.7278373
11:26:19:869;0.24899697;10.70687;-0.7278373
11:26:19:997;0.36391866;10.802638;-0.2873042
11:26:19:997;0.36391866;10.802638;-0.2873042
11:26:19:997;0.36391866;10.802638;-0.2873042
11:26:19:997;0.36391866;10.802638;-0.2873042
11:26:19:997;0.36391866;10.802638;-0.2873042
11:26:19:997;0.36391866;10.802638;-0.2873042
11:26:19:997;0.36391866;10.802638;-0.2873042
11:26:19:997;0.36391866;10.802638;-0.2873042
11:26:19:997;0.36391866;10.802638;-0.2873042
11:26:19:997;0.36391866;10.802638;-0.2873042
11:26:19:997;0.36391866;10.802638;-0.2873042
11:26:19:997;0.36391866;10.802638;-0.2873042
11:26:19:997;0.36391866;10.802638;-0.2873042
11:26:19:997;0.36391866;10.802638;-0.2873042
11:26:20:104;0.36391866;10.840945;-0.47884035
11:26:20:104;0.36391866;10.840945;-0.47884035
11:26:20:104;0.36391866;10.840945;-0.47884035
11:26:20:104;0.36391866;10.840945;-0.47884035
11:26:20:104;0.36391866;10.840945;-0.47884035
11:26:20:104;0.36391866;10.840945;-0.47884035
11:26:20:104;0.36391866;10.840945;-0.47884035
11:26:20:104;0.36391866;10.840945;-0.47884035
11:26:20:104;0.36391866;10.840945;-0.47884035
11:26:20:104;0.36391866;10.840945;-0.47884035
11:26:20:104;0.36391866;10.840945;-0.47884035
11:26:20:104;0.36391866;10.840945;-0.47884035
11:26:20:104;0.36391866;10.840945;-0.47884035
11:26:20:104;0.36391866;10.840945;-0.47884035
11:26:20:104;0.36391866;10.840945;-0.47884035
11:26:20:104;0.36391866;10.840945;-0.47884035
11:26:20:104;0.36391866;10.840945;-0.47884035
11:26:20:104;0.36391866;10.840945;-0.47884035
11:26:20:104;0.36391866;10.840945;-0.47884035
11:26:20:104;0.36391866;10.840945;-0.47884035
11:26:20:104;0.36391866;10.840945;-0.47884035
11:26:20:104;0.36391866;10.840945;-0.47884035
11:26:20:104;0.36391866;10.840945;-0.47884035
11:26:20:104;0.36391866;10.840945;-0.47884035
11:26:20:104;0.36391866;10.840945;-0.47884035
11:26:20:301;0.1340753;9.251195;1.8195933
11:26:20:301;0.1340753;9.251195;1.8195933
11:26:20:301;0.1340753;9.251195;1.8195933
11:26:20:301;0.1340753;9.251195;1.8195933
11:26:20:301;0.1340753;9.251195;1.8195933
11:26:20:301;0.1340753;9.251195;1.8195933
11:26:20:301;0.1340753;9.251195;1.8195933
11:26:20:301;0.1340753;9.251195;1.8195933
11:26:20:301;0.1340753;9.251195;1.8195933
11:26:20:301;0.1340753;9.251195;1.8195933
11:26:20:301;0.1340753;9.251195;1.8195933
11:26:20:301;0.1340753;9.251195;1.8195933
11:26:20:301;0.1340753;9.251195;1.8195933
11:26:20:301;0.1340753;9.251195;1.8195933
11:26:20:301;0.1340753;9.251195;1.8195933
11:26:20:417;0.1340753;10.70687;-0.61291564
11:26:20:417;0.1340753;10.70687;-0.61291564
11:26:20:417;0.1340753;10.70687;-0.61291564
11:26:20:417;0.1340753;10.70687;-0.61291564
11:26:20:417;0.1340753;10.70687;-0.61291564
11:26:20:417;0.1340753;10.70687;-0.61291564
11:26:20:417;0.1340753;10.70687;-0.61291564
11:26:20:417;0.1340753;10.70687;-0.61291564
11:26:20:417;0.1340753;10.70687;-0.61291564
11:26:20:417;0.1340753;10.70687;-0.61291564
11:26:20:417;0.1340753;10.70687;-0.61291564
11:26:20:417;0.1340753;10.70687;-0.61291564
11:26:20:417;0.1340753;10.70687;-0.61291564
11:26:20:518;0.17238252;10.726024;-0.59376204
11:26:20:518;0.17238252;10.726024;-0.59376204
11:26:20:518;0.17238252;10.726024;-0.59376204
11:26:20:518;0.17238252;10.726024;-0.59376204
11:26:20:518;0.17238252;10.726024;-0.59376204
11:26:20:518;0.17238252;10.726024;-0.59376204
11:26:20:518;0.17238252;10.726024;-0.59376204
11:26:20:518;0.17238252;10.726024;-0.59376204
11:26:20:518;0.17238252;10.726024;-0.59376204
11:26:20:518;0.17238252;10.726024;-0.59376204
11:26:20:518;0.17238252;10.726024;-0.59376204
11:26:20:518;0.17238252;10.726024;-0.59376204
11:26:20:518;0.17238252;10.726024;-0.59376204
11:26:20:518;0.17238252;10.726024;-0.59376204
11:26:20:518;0.17238252;10.726024;-0.59376204
11:26:20:635;0.36391866;9.270349;1.6089035
11:26:20:635;0.36391866;9.270349;1.6089035
11:26:20:635;0.36391866;9.270349;1.6089035
11:26:20:635;0.36391866;9.270349;1.6089035
11:26:20:635;0.36391866;9.270349;1.6089035
11:26:20:635;0.36391866;9.270349;1.6089035
11:26:20:635;0.36391866;9.270349;1.6089035
11:26:20:635;0.36391866;9.270349;1.6089035
11:26:20:635;0.36391866;9.270349;1.6089035
11:26:20:635;0.36391866;9.270349;1.6089035
11:26:20:635;0.36391866;9.270349;1.6089035
11:26:20:635;0.36391866;9.270349;1.6089035
11:26:20:635;0.36391866;9.270349;1.6089035
11:26:20:635;0.36391866;9.270349;1.6089035
11:26:20:635;0.36391866;9.270349;1.6089035
11:26:20:752;0.34476504;10.860099;-0.93852705
11:26:20:752;0.34476504;10.860099;-0.93852705
11:26:20:752;0.34476504;10.860099;-0.93852705
11:26:20:752;0.34476504;10.860099;-0.93852705
11:26:20:752;0.34476504;10.860099;-0.93852705
11:26:20:752;0.34476504;10.860099;-0.93852705
11:26:20:752;0.34476504;10.860099;-0.93852705
11:26:20:752;0.34476504;10.860099;-0.93852705
11:26:20:752;0.34476504;10.860099;-0.93852705
11:26:20:752;0.34476504;10.860099;-0.93852705
11:26:20:752;0.34476504;10.860099;-0.93852705
11:26:20:752;0.34476504;10.860099;-0.93852705
11:26:20:752;0.34476504;10.860099;-0.93852705
11:26:20:752;0.34476504;10.860099;-0.93852705
11:26:20:752;0.34476504;10.860099;-0.93852705
11:26:20:870;0.21068975;9.097966;1.4939818
11:26:20:870;0.21068975;9.097966;1.4939818
11:26:20:870;0.21068975;9.097966;1.4939818
11:26:20:870;0.21068975;9.097966;1.4939818
11:26:20:870;0.21068975;9.097966;1.4939818
11:26:20:870;0.21068975;9.097966;1.4939818
11:26:20:870;0.21068975;9.097966;1.4939818
11:26:20:870;0.21068975;9.097966;1.4939818
11:26:20:870;0.21068975;9.097966;1.4939818
11:26:20:870;0.21068975;9.097966;1.4939818
11:26:20:870;0.21068975;9.097966;1.4939818
11:26:20:870;0.21068975;9.097966;1.4939818
11:26:20:870;0.21068975;9.097966;1.4939818
11:26:20:870;0.21068975;9.097966;1.4939818
11:26:20:984;0.2681506;9.634268;0.7086837
11:26:20:984;0.2681506;9.634268;0.7086837
11:26:20:984;0.2681506;9.634268;0.7086837
11:26:20:984;0.2681506;9.634268;0.7086837
11:26:20:984;0.2681506;9.634268;0.7086837
11:26:20:984;0.2681506;9.634268;0.7086837
11:26:20:984;0.2681506;9.634268;0.7086837
11:26:20:984;0.2681506;9.634268;0.7086837
11:26:20:984;0.2681506;9.634268;0.7086837
11:26:20:984;0.2681506;9.634268;0.7086837
11:26:20:984;0.2681506;9.634268;0.7086837
11:26:20:984;0.2681506;9.634268;0.7086837
11:26:20:984;0.2681506;9.634268;0.7086837
11:26:21:085;0.22984336;9.940725;0.6512229
11:26:21:085;0.22984336;9.940725;0.6512229
11:26:21:085;0.22984336;9.940725;0.6512229
11:26:21:085;0.22984336;9.940725;0.6512229
11:26:21:085;0.22984336;9.940725;0.6512229
11:26:21:085;0.22984336;9.940725;0.6512229
11:26:21:085;0.22984336;9.940725;0.6512229
11:26:21:085;0.22984336;9.940725;0.6512229
11:26:21:085;0.22984336;9.940725;0.6512229
11:26:21:085;0.22984336;9.940725;0.6512229
11:26:21:085;0.22984336;9.940725;0.6512229
11:26:21:085;0.22984336;9.940725;0.6512229
11:26:21:085;0.22984336;9.940725;0.6512229
11:26:21:085;0.22984336;9.940725;0.6512229
11:26:21:085;0.22984336;9.940725;0.6512229
11:26:21:201;0.2873042;10.362105;-0.15322891
11:26:21:201;0.2873042;10.362105;-0.15322891
11:26:21:201;0.2873042;10.362105;-0.15322891
11:26:21:201;0.2873042;10.362105;-0.15322891
11:26:21:201;0.2873042;10.362105;-0.15322891
11:26:21:201;0.2873042;10.362105;-0.15322891
11:26:21:201;0.2873042;10.362105;-0.15322891
11:26:21:201;0.2873042;10.362105;-0.15322891
11:26:21:201;0.2873042;10.362105;-0.15322891
11:26:21:201;0.2873042;10.362105;-0.15322891
11:26:21:201;0.2873042;10.362105;-0.15322891
11:26:21:201;0.2873042;10.362105;-0.15322891
11:26:21:201;0.2873042;10.362105;-0.15322891
11:26:21:303;0.05746084;10.764331;-0.5746084
11:26:21:303;0.05746084;10.764331;-0.5746084
11:26:21:303;0.05746084;10.764331;-0.5746084
11:26:21:303;0.05746084;10.764331;-0.5746084
11:26:21:303;0.05746084;10.764331;-0.5746084
11:26:21:303;0.05746084;10.764331;-0.5746084
11:26:21:303;0.05746084;10.764331;-0.5746084
11:26:21:303;0.05746084;10.764331;-0.5746084
11:26:21:303;0.05746084;10.764331;-0.5746084
11:26:21:303;0.05746084;10.764331;-0.5746084
11:26:21:303;0.05746084;10.764331;-0.5746084
11:26:21:303;0.05746084;10.764331;-0.5746084
11:26:21:303;0.05746084;10.764331;-0.5746084
11:26:21:303;0.05746084;10.764331;-0.5746084
11:26:21:303;0.05746084;10.764331;-0.5746084
11:26:21:418;0.1340753;9.270349;1.7621324
11:26:21:418;0.1340753;9.270349;1.7621324
11:26:21:418;0.1340753;9.270349;1.7621324
11:26:21:418;0.1340753;9.270349;1.7621324
11:26:21:418;0.1340753;9.270349;1.7621324
11:26:21:418;0.1340753;9.270349;1.7621324
11:26:21:418;0.1340753;9.270349;1.7621324
11:26:21:418;0.1340753;9.270349;1.7621324
11:26:21:418;0.1340753;9.270349;1.7621324
11:26:21:418;0.1340753;9.270349;1.7621324
11:26:21:418;0.1340753;9.270349;1.7621324
11:26:21:418;0.1340753;9.270349;1.7621324
11:26:21:418;0.1340753;9.270349;1.7621324
11:26:21:418;0.1340753;9.270349;1.7621324
11:26:21:528;0.36391866;10.6877165;-0.45968673
11:26:21:528;0.36391866;10.6877165;-0.45968673
11:26:21:528;0.36391866;10.6877165;-0.45968673
11:26:21:528;0.36391866;10.6877165;-0.45968673
11:26:21:528;0.36391866;10.6877165;-0.45968673
11:26:21:528;0.36391866;10.6877165;-0.45968673
11:26:21:528;0.36391866;10.6877165;-0.45968673
11:26:21:528;0.36391866;10.6877165;-0.45968673
11:26:21:528;0.36391866;10.6877165;-0.45968673
11:26:21:528;0.36391866;10.6877165;-0.45968673
11:26:21:528;0.36391866;10.6877165;-0.45968673
11:26:21:528;0.36391866;10.6877165;-0.45968673
11:26:21:528;0.36391866;10.6877165;-0.45968673
11:26:21:528;0.36391866;10.6877165;-0.45968673
11:26:21:640;0.2681506;10.572795;-0.5554548
11:26:21:640;0.2681506;10.572795;-0.5554548
11:26:21:640;0.2681506;10.572795;-0.5554548
11:26:21:640;0.2681506;10.572795;-0.5554548
11:26:21:640;0.2681506;10.572795;-0.5554548
11:26:21:640;0.2681506;10.572795;-0.5554548
11:26:21:640;0.2681506;10.572795;-0.5554548
11:26:21:640;0.2681506;10.572795;-0.5554548
11:26:21:640;0.2681506;10.572795;-0.5554548
11:26:21:640;0.2681506;10.572795;-0.5554548
11:26:21:640;0.2681506;10.572795;-0.5554548
11:26:21:640;0.2681506;10.572795;-0.5554548
11:26:21:640;0.2681506;10.572795;-0.5554548
11:26:21:640;0.2681506;10.572795;-0.5554548
11:26:21:640;0.2681506;10.572795;-0.5554548
11:26:21:757;0.2681506;9.768343;0.076614454
11:26:21:757;0.2681506;9.768343;0.076614454
11:26:21:757;0.2681506;9.768343;0.076614454
11:26:21:757;0.2681506;9.768343;0.076614454
11:26:21:757;0.2681506;9.768343;0.076614454
11:26:21:757;0.2681506;9.768343;0.076614454
11:26:21:757;0.2681506;9.768343;0.076614454
11:26:21:757;0.2681506;9.768343;0.076614454
11:26:21:757;0.2681506;9.768343;0.076614454
11:26:21:757;0.2681506;9.768343;0.076614454
11:26:21:757;0.2681506;9.768343;0.076614454
11:26:21:757;0.2681506;9.768343;0.076614454
11:26:21:757;0.2681506;9.768343;0.076614454
11:26:21:757;0.2681506;9.768343;0.076614454
11:26:21:757;0.2681506;9.768343;0.076614454
11:26:21:868;0.32561144;9.844957;0.038307227
11:26:21:868;0.32561144;9.844957;0.038307227
11:26:21:868;0.32561144;9.844957;0.038307227
11:26:21:868;0.32561144;9.844957;0.038307227
11:26:21:868;0.32561144;9.844957;0.038307227
11:26:21:868;0.32561144;9.844957;0.038307227
11:26:21:868;0.32561144;9.844957;0.038307227
11:26:21:868;0.32561144;9.844957;0.038307227
11:26:21:868;0.32561144;9.844957;0.038307227
11:26:21:868;0.32561144;9.844957;0.038307227
11:26:21:868;0.32561144;9.844957;0.038307227
11:26:21:868;0.32561144;9.844957;0.038307227
11:26:21:868;0.32561144;9.844957;0.038307227
11:26:21:868;0.32561144;9.844957;0.038307227
11:26:21:868;0.32561144;9.844957;0.038307227
11:26:21:985;0.38307226;10.6877165;-1.7621324
11:26:21:985;0.38307226;10.6877165;-1.7621324
11:26:21:985;0.38307226;10.6877165;-1.7621324
11:26:21:985;0.38307226;10.6877165;-1.7621324
11:26:21:985;0.38307226;10.6877165;-1.7621324
11:26:21:985;0.38307226;10.6877165;-1.7621324
11:26:21:985;0.38307226;10.6877165;-1.7621324
11:26:21:985;0.38307226;10.6877165;-1.7621324
11:26:21:985;0.38307226;10.6877165;-1.7621324
11:26:21:985;0.38307226;10.6877165;-1.7621324
11:26:21:985;0.38307226;10.6877165;-1.7621324
11:26:21:985;0.38307226;10.6877165;-1.7621324
11:26:21:985;0.38307226;10.6877165;-1.7621324
11:26:21:985;0.38307226;10.6877165;-1.7621324
11:26:21:985;0.38307226;10.6877165;-1.7621324
11:26:22:102;-0.076614454;9.3661175;1.3790601
11:26:22:102;-0.076614454;9.3661175;1.3790601
11:26:22:102;-0.076614454;9.3661175;1.3790601
11:26:22:102;-0.076614454;9.3661175;1.3790601
11:26:22:102;-0.076614454;9.3661175;1.3790601
11:26:22:102;-0.076614454;9.3661175;1.3790601
11:26:22:102;-0.076614454;9.3661175;1.3790601
11:26:22:102;-0.076614454;9.3661175;1.3790601
11:26:22:102;-0.076614454;9.3661175;1.3790601
11:26:22:102;-0.076614454;9.3661175;1.3790601
11:26:22:102;-0.076614454;9.3661175;1.3790601
11:26:22:102;-0.076614454;9.3661175;1.3790601
11:26:22:102;-0.076614454;9.3661175;1.3790601
11:26:22:102;-0.076614454;9.3661175;1.3790601
11:26:22:102;-0.076614454;9.3661175;1.3790601
11:26:22:219;0.2681506;10.764331;-1.5897499
11:26:22:219;0.2681506;10.764331;-1.5897499
11:26:22:219;0.2681506;10.764331;-1.5897499
11:26:22:219;0.2681506;10.764331;-1.5897499
11:26:22:219;0.2681506;10.764331;-1.5897499
11:26:22:219;0.2681506;10.764331;-1.5897499
11:26:22:219;0.2681506;10.764331;-1.5897499
11:26:22:219;0.2681506;10.764331;-1.5897499
11:26:22:219;0.2681506;10.764331;-1.5897499
11:26:22:219;0.2681506;10.764331;-1.5897499
11:26:22:219;0.2681506;10.764331;-1.5897499
11:26:22:219;0.2681506;10.764331;-1.5897499
11:26:22:219;0.2681506;10.764331;-1.5897499
11:26:22:219;0.2681506;10.764331;-1.5897499
11:26:22:219;0.2681506;10.764331;-1.5897499
11:26:22:337;0.038307227;9.193734;0.78529817
11:26:22:337;0.038307227;9.193734;0.78529817
11:26:22:337;0.038307227;9.193734;0.78529817
11:26:22:337;0.038307227;9.193734;0.78529817
11:26:22:337;0.038307227;9.193734;0.78529817
11:26:22:337;0.038307227;9.193734;0.78529817
11:26:22:337;0.038307227;9.193734;0.78529817
11:26:22:337;0.038307227;9.193734;0.78529817
11:26:22:337;0.038307227;9.193734;0.78529817
11:26:22:337;0.038307227;9.193734;0.78529817
11:26:22:337;0.038307227;9.193734;0.78529817
11:26:22:337;0.038307227;9.193734;0.78529817
11:26:22:337;0.038307227;9.193734;0.78529817
11:26:22:337;0.038307227;9.193734;0.78529817
11:26:22:453;0.4213795;10.457873;-1.1492168
11:26:22:453;0.4213795;10.457873;-1.1492168
11:26:22:453;0.4213795;10.457873;-1.1492168
11:26:22:453;0.4213795;10.457873;-1.1492168
11:26:22:453;0.4213795;10.457873;-1.1492168
11:26:22:453;0.4213795;10.457873;-1.1492168
11:26:22:453;0.4213795;10.457873;-1.1492168
11:26:22:453;0.4213795;10.457873;-1.1492168
11:26:22:453;0.4213795;10.457873;-1.1492168
11:26:22:453;0.4213795;10.457873;-1.1492168
11:26:22:453;0.4213795;10.457873;-1.1492168
11:26:22:453;0.4213795;10.457873;-1.1492168
11:26:22:453;0.4213795;10.457873;-1.1492168
11:26:22:453;0.4213795;10.457873;-1.1492168
11:26:22:453;0.4213795;10.457873;-1.1492168
11:26:22:570;0.095768064;9.691729;0.38307226
11:26:22:570;0.095768064;9.691729;0.38307226
11:26:22:570;0.095768064;9.691729;0.38307226
11:26:22:570;0.095768064;9.691729;0.38307226
11:26:22:570;0.095768064;9.691729;0.38307226
11:26:22:570;0.095768064;9.691729;0.38307226
11:26:22:570;0.095768064;9.691729;0.38307226
11:26:22:570;0.095768064;9.691729;0.38307226
11:26:22:570;0.095768064;9.691729;0.38307226
11:26:22:570;0.095768064;9.691729;0.38307226
11:26:22:570;0.095768064;9.691729;0.38307226
11:26:22:570;0.095768064;9.691729;0.38307226
11:26:22:570;0.095768064;9.691729;0.38307226
11:26:22:570;0.095768064;9.691729;0.38307226
11:26:22:570;0.095768064;9.691729;0.38307226
11:26:22:570;0.095768064;9.691729;0.38307226
11:26:22:688;0.2681506;10.113108;-0.15322891
11:26:22:688;0.2681506;10.113108;-0.15322891
11:26:22:688;0.2681506;10.113108;-0.15322891
11:26:22:688;0.2681506;10.113108;-0.15322891
11:26:22:688;0.2681506;10.113108;-0.15322891
11:26:22:688;0.2681506;10.113108;-0.15322891
11:26:22:688;0.2681506;10.113108;-0.15322891
11:26:22:688;0.2681506;10.113108;-0.15322891
11:26:22:688;0.2681506;10.113108;-0.15322891
11:26:22:688;0.2681506;10.113108;-0.15322891
11:26:22:688;0.2681506;10.113108;-0.15322891
11:26:22:688;0.2681506;10.113108;-0.15322891
11:26:22:688;0.2681506;10.113108;-0.15322891
11:26:22:688;0.2681506;10.113108;-0.15322891
11:26:22:804;0.2873042;10.342952;-0.91937345
11:26:22:804;0.2873042;10.342952;-0.91937345
11:26:22:804;0.2873042;10.342952;-0.91937345
11:26:22:804;0.2873042;10.342952;-0.91937345
11:26:22:804;0.2873042;10.342952;-0.91937345
11:26:22:804;0.2873042;10.342952;-0.91937345
11:26:22:804;0.2873042;10.342952;-0.91937345
11:26:22:804;0.2873042;10.342952;-0.91937345
11:26:22:804;0.2873042;10.342952;-0.91937345
11:26:22:804;0.2873042;10.342952;-0.91937345
11:26:22:804;0.2873042;10.342952;-0.91937345
11:26:22:804;0.2873042;10.342952;-0.91937345
11:26:22:804;0.2873042;10.342952;-0.91937345
11:26:22:804;0.2873042;10.342952;-0.91937345
11:26:22:804;0.2873042;10.342952;-0.91937345
11:26:22:804;0.2873042;10.342952;-0.91937345
11:26:22:922;0.1340753;9.500193;0.8810662
11:26:22:922;0.1340753;9.500193;0.8810662
11:26:22:922;0.1340753;9.500193;0.8810662
11:26:22:922;0.1340753;9.500193;0.8810662
11:26:22:922;0.1340753;9.500193;0.8810662
11:26:22:922;0.1340753;9.500193;0.8810662
11:26:22:922;0.1340753;9.500193;0.8810662
11:26:22:922;0.1340753;9.500193;0.8810662
11:26:22:922;0.1340753;9.500193;0.8810662
11:26:22:922;0.1340753;9.500193;0.8810662
11:26:22:922;0.1340753;9.500193;0.8810662
11:26:22:922;0.1340753;9.500193;0.8810662
11:26:22:922;0.1340753;9.500193;0.8810662
11:26:22:922;0.1340753;9.500193;0.8810662
11:26:23:039;0.2681506;10.745177;-1.7046716
11:26:23:039;0.2681506;10.745177;-1.7046716
11:26:23:039;0.2681506;10.745177;-1.7046716
11:26:23:039;0.2681506;10.745177;-1.7046716
11:26:23:039;0.2681506;10.745177;-1.7046716
11:26:23:039;0.2681506;10.745177;-1.7046716
11:26:23:039;0.2681506;10.745177;-1.7046716
11:26:23:039;0.2681506;10.745177;-1.7046716
11:26:23:039;0.2681506;10.745177;-1.7046716
11:26:23:039;0.2681506;10.745177;-1.7046716
11:26:23:039;0.2681506;10.745177;-1.7046716
11:26:23:039;0.2681506;10.745177;-1.7046716
11:26:23:039;0.2681506;10.745177;-1.7046716
11:26:23:039;0.2681506;10.745177;-1.7046716
11:26:23:039;0.2681506;10.745177;-1.7046716
11:26:23:039;0.2681506;10.745177;-1.7046716
11:26:23:158;-0.05746084;9.097966;1.1109096
11:26:23:158;-0.05746084;9.097966;1.1109096
11:26:23:158;-0.05746084;9.097966;1.1109096
11:26:23:158;-0.05746084;9.097966;1.1109096
11:26:23:158;-0.05746084;9.097966;1.1109096
11:26:23:158;-0.05746084;9.097966;1.1109096
11:26:23:158;-0.05746084;9.097966;1.1109096
11:26:23:158;-0.05746084;9.097966;1.1109096
11:26:23:158;-0.05746084;9.097966;1.1109096
11:26:23:158;-0.05746084;9.097966;1.1109096
11:26:23:158;-0.05746084;9.097966;1.1109096
11:26:23:158;-0.05746084;9.097966;1.1109096
11:26:23:158;-0.05746084;9.097966;1.1109096
11:26:23:158;-0.05746084;9.097966;1.1109096
11:26:23:158;-0.05746084;9.097966;1.1109096
11:26:23:275;0.15322891;10.726024;-1.6089035
11:26:23:275;0.15322891;10.726024;-1.6089035
11:26:23:275;0.15322891;10.726024;-1.6089035
11:26:23:275;0.15322891;10.726024;-1.6089035
11:26:23:275;0.15322891;10.726024;-1.6089035
11:26:23:275;0.15322891;10.726024;-1.6089035
11:26:23:275;0.15322891;10.726024;-1.6089035
11:26:23:275;0.15322891;10.726024;-1.6089035
11:26:23:275;0.15322891;10.726024;-1.6089035
11:26:23:275;0.15322891;10.726024;-1.6089035
11:26:23:275;0.15322891;10.726024;-1.6089035
11:26:23:275;0.15322891;10.726024;-1.6089035
11:26:23:275;0.15322891;10.726024;-1.6089035
11:26:23:275;0.15322891;10.726024;-1.6089035
11:26:23:275;0.15322891;10.726024;-1.6089035
11:26:23:391;0.36391866;9.346964;0.82360536
11:26:23:391;0.36391866;9.346964;0.82360536
11:26:23:391;0.36391866;9.346964;0.82360536
11:26:23:391;0.36391866;9.346964;0.82360536
11:26:23:391;0.36391866;9.346964;0.82360536
11:26:23:391;0.36391866;9.346964;0.82360536
11:26:23:391;0.36391866;9.346964;0.82360536
11:26:23:391;0.36391866;9.346964;0.82360536
11:26:23:391;0.36391866;9.346964;0.82360536
11:26:23:391;0.36391866;9.346964;0.82360536
11:26:23:391;0.36391866;9.346964;0.82360536
11:26:23:391;0.36391866;9.346964;0.82360536
11:26:23:391;0.36391866;9.346964;0.82360536
11:26:23:391;0.36391866;9.346964;0.82360536
11:26:23:507;0.4213795;10.362105;-0.82360536
11:26:23:507;0.4213795;10.362105;-0.82360536
11:26:23:507;0.4213795;10.362105;-0.82360536
11:26:23:507;0.4213795;10.362105;-0.82360536
11:26:23:507;0.4213795;10.362105;-0.82360536
11:26:23:507;0.4213795;10.362105;-0.82360536
11:26:23:507;0.4213795;10.362105;-0.82360536
11:26:23:507;0.4213795;10.362105;-0.82360536
11:26:23:507;0.4213795;10.362105;-0.82360536
11:26:23:507;0.4213795;10.362105;-0.82360536
11:26:23:507;0.4213795;10.362105;-0.82360536
11:26:23:507;0.4213795;10.362105;-0.82360536
11:26:23:507;0.4213795;10.362105;-0.82360536
11:26:23:507;0.4213795;10.362105;-0.82360536
11:26:23:507;0.4213795;10.362105;-0.82360536
11:26:23:507;0.4213795;10.362105;-0.82360536
11:26:23:631;0.22984336;9.634268;-0.2873042
11:26:23:631;0.22984336;9.634268;-0.2873042
11:26:23:631;0.22984336;9.634268;-0.2873042
11:26:23:631;0.22984336;9.634268;-0.2873042
11:26:23:631;0.22984336;9.634268;-0.2873042
11:26:23:631;0.22984336;9.634268;-0.2873042
11:26:23:631;0.22984336;9.634268;-0.2873042
11:26:23:631;0.22984336;9.634268;-0.2873042
11:26:23:631;0.22984336;9.634268;-0.2873042
11:26:23:631;0.22984336;9.634268;-0.2873042
11:26:23:631;0.22984336;9.634268;-0.2873042
11:26:23:631;0.22984336;9.634268;-0.2873042
11:26:23:631;0.22984336;9.634268;-0.2873042
11:26:23:631;0.22984336;9.634268;-0.2873042
11:26:23:742;0.2681506;9.864111;0.15322891
11:26:23:742;0.2681506;9.864111;0.15322891
11:26:23:742;0.2681506;9.864111;0.15322891
11:26:23:742;0.2681506;9.864111;0.15322891
11:26:23:742;0.2681506;9.864111;0.15322891
11:26:23:742;0.2681506;9.864111;0.15322891
11:26:23:742;0.2681506;9.864111;0.15322891
11:26:23:742;0.2681506;9.864111;0.15322891
11:26:23:742;0.2681506;9.864111;0.15322891
11:26:23:742;0.2681506;9.864111;0.15322891
11:26:23:742;0.2681506;9.864111;0.15322891
11:26:23:742;0.2681506;9.864111;0.15322891
11:26:23:742;0.2681506;9.864111;0.15322891
11:26:23:843;0.21068975;9.615114;0.49799395
11:26:23:843;0.21068975;9.615114;0.49799395
11:26:23:843;0.21068975;9.615114;0.49799395
11:26:23:843;0.21068975;9.615114;0.49799395
11:26:23:843;0.21068975;9.615114;0.49799395
11:26:23:843;0.21068975;9.615114;0.49799395
11:26:23:843;0.21068975;9.615114;0.49799395
11:26:23:843;0.21068975;9.615114;0.49799395
11:26:23:843;0.21068975;9.615114;0.49799395
11:26:23:843;0.21068975;9.615114;0.49799395
11:26:23:843;0.21068975;9.615114;0.49799395
11:26:23:843;0.21068975;9.615114;0.49799395
11:26:23:843;0.21068975;9.615114;0.49799395
