Time_Biotrace;Time_Accel;AccelX;AccelY;AccelZ
14:55:45:398;14:55:45:362;-0.6895301;9.940725;-0.7469909
14:55:45:406;14:55:45:362;-0.6895301;9.940725;-0.7469909
14:55:45:414;14:55:45:362;-0.6895301;9.940725;-0.7469909
14:55:45:421;14:55:45:362;-0.6895301;9.940725;-0.7469909
14:55:45:429;14:55:45:362;-0.6895301;9.940725;-0.7469909
14:55:45:437;14:55:45:362;-0.6895301;9.940725;-0.7469909
14:55:45:445;14:55:45:362;-0.6895301;9.940725;-0.7469909
14:55:45:453;14:55:45:362;-0.6895301;9.940725;-0.7469909
14:55:45:460;14:55:45:362;-0.6895301;9.940725;-0.7469909
14:55:45:468;14:55:45:362;-0.6895301;9.940725;-0.7469909
14:55:45:476;14:55:45:362;-0.6895301;9.940725;-0.7469909
14:55:45:484;14:55:45:362;-0.6895301;9.940725;-0.7469909
14:55:45:492;14:55:45:362;-0.6895301;9.940725;-0.7469909
14:55:45:500;14:55:45:494;-0.80445176;9.557653;-0.45968673
14:55:45:507;14:55:45:494;-0.80445176;9.557653;-0.45968673
14:55:45:515;14:55:45:494;-0.80445176;9.557653;-0.45968673
14:55:45:523;14:55:45:494;-0.80445176;9.557653;-0.45968673
14:55:45:531;14:55:45:494;-0.80445176;9.557653;-0.45968673
14:55:45:539;14:55:45:494;-0.80445176;9.557653;-0.45968673
14:55:45:546;14:55:45:494;-0.80445176;9.557653;-0.45968673
14:55:45:554;14:55:45:494;-0.80445176;9.557653;-0.45968673
14:55:45:562;14:55:45:494;-0.80445176;9.557653;-0.45968673
14:55:45:570;14:55:45:494;-0.80445176;9.557653;-0.45968673
14:55:45:578;14:55:45:494;-0.80445176;9.557653;-0.45968673
14:55:45:585;14:55:45:494;-0.80445176;9.557653;-0.45968673
14:55:45:593;14:55:45:494;-0.80445176;9.557653;-0.45968673
14:55:45:601;14:55:45:494;-0.80445176;9.557653;-0.45968673
14:55:45:609;14:55:45:494;-0.80445176;9.557653;-0.45968673
14:55:45:617;14:55:45:612;-0.7278373;9.481039;0.7469909
14:55:45:625;14:55:45:612;-0.7278373;9.481039;0.7469909
14:55:45:632;14:55:45:612;-0.7278373;9.481039;0.7469909
14:55:45:640;14:55:45:612;-0.7278373;9.481039;0.7469909
14:55:45:648;14:55:45:612;-0.7278373;9.481039;0.7469909
14:55:45:656;14:55:45:612;-0.7278373;9.481039;0.7469909
14:55:45:664;14:55:45:612;-0.7278373;9.481039;0.7469909
14:55:45:671;14:55:45:612;-0.7278373;9.481039;0.7469909
14:55:45:679;14:55:45:612;-0.7278373;9.481039;0.7469909
14:55:45:687;14:55:45:612;-0.7278373;9.481039;0.7469909
14:55:45:695;14:55:45:612;-0.7278373;9.481039;0.7469909
14:55:45:703;14:55:45:612;-0.7278373;9.481039;0.7469909
14:55:45:710;14:55:45:612;-0.7278373;9.481039;0.7469909
14:55:45:718;14:55:45:612;-0.7278373;9.481039;0.7469909
14:55:45:726;14:55:45:612;-0.7278373;9.481039;0.7469909
14:55:45:734;14:55:45:731;-1.0726024;10.821792;-0.21068975
14:55:45:742;14:55:45:731;-1.0726024;10.821792;-0.21068975
14:55:45:750;14:55:45:731;-1.0726024;10.821792;-0.21068975
14:55:45:757;14:55:45:731;-1.0726024;10.821792;-0.21068975
14:55:45:765;14:55:45:731;-1.0726024;10.821792;-0.21068975
14:55:45:773;14:55:45:731;-1.0726024;10.821792;-0.21068975
14:55:45:781;14:55:45:731;-1.0726024;10.821792;-0.21068975
14:55:45:789;14:55:45:731;-1.0726024;10.821792;-0.21068975
14:55:45:796;14:55:45:731;-1.0726024;10.821792;-0.21068975
14:55:45:804;14:55:45:731;-1.0726024;10.821792;-0.21068975
14:55:45:812;14:55:45:731;-1.0726024;10.821792;-0.21068975
14:55:45:820;14:55:45:731;-1.0726024;10.821792;-0.21068975
14:55:45:828;14:55:45:731;-1.0726024;10.821792;-0.21068975
14:55:45:835;14:55:45:731;-1.0726024;10.821792;-0.21068975
14:55:45:843;14:55:45:731;-1.0726024;10.821792;-0.21068975
14:55:45:851;14:55:45:850;-0.40222588;10.01734;0.30645782
14:55:45:859;14:55:45:850;-0.40222588;10.01734;0.30645782
14:55:45:867;14:55:45:850;-0.40222588;10.01734;0.30645782
14:55:45:875;14:55:45:850;-0.40222588;10.01734;0.30645782
14:55:45:882;14:55:45:850;-0.40222588;10.01734;0.30645782
14:55:45:890;14:55:45:850;-0.40222588;10.01734;0.30645782
14:55:45:898;14:55:45:850;-0.40222588;10.01734;0.30645782
14:55:45:906;14:55:45:850;-0.40222588;10.01734;0.30645782
14:55:45:914;14:55:45:850;-0.40222588;10.01734;0.30645782
14:55:45:921;14:55:45:850;-0.40222588;10.01734;0.30645782
14:55:45:929;14:55:45:850;-0.40222588;10.01734;0.30645782
14:55:45:937;14:55:45:850;-0.40222588;10.01734;0.30645782
14:55:45:945;14:55:45:850;-0.40222588;10.01734;0.30645782
14:55:45:953;14:55:45:850;-0.40222588;10.01734;0.30645782
14:55:45:960;14:55:45:850;-0.40222588;10.01734;0.30645782
14:55:45:968;14:55:45:850;-0.40222588;10.01734;0.30645782
14:55:45:976;14:55:45:850;-0.40222588;10.01734;0.30645782
14:55:45:984;14:55:45:978;-0.5363012;9.9790325;0.11492168
14:55:45:992;14:55:45:978;-0.5363012;9.9790325;0.11492168
14:55:46:000;14:55:45:978;-0.5363012;9.9790325;0.11492168
14:55:46:007;14:55:45:978;-0.5363012;9.9790325;0.11492168
14:55:46:015;14:55:45:978;-0.5363012;9.9790325;0.11492168
14:55:46:023;14:55:45:978;-0.5363012;9.9790325;0.11492168
14:55:46:031;14:55:45:978;-0.5363012;9.9790325;0.11492168
14:55:46:039;14:55:45:978;-0.5363012;9.9790325;0.11492168
14:55:46:046;14:55:45:978;-0.5363012;9.9790325;0.11492168
14:55:46:054;14:55:45:978;-0.5363012;9.9790325;0.11492168
14:55:46:062;14:55:45:978;-0.5363012;9.9790325;0.11492168
14:55:46:070;14:55:45:978;-0.5363012;9.9790325;0.11492168
14:55:46:078;14:55:45:978;-0.5363012;9.9790325;0.11492168
14:55:46:085;14:55:45:978;-0.5363012;9.9790325;0.11492168
14:55:46:093;14:55:45:978;-0.5363012;9.9790325;0.11492168
14:55:46:101;14:55:46:094;-0.59376204;9.998186;-0.32561144
14:55:46:109;14:55:46:094;-0.59376204;9.998186;-0.32561144
14:55:46:117;14:55:46:094;-0.59376204;9.998186;-0.32561144
14:55:46:125;14:55:46:094;-0.59376204;9.998186;-0.32561144
14:55:46:132;14:55:46:094;-0.59376204;9.998186;-0.32561144
14:55:46:140;14:55:46:094;-0.59376204;9.998186;-0.32561144
14:55:46:148;14:55:46:094;-0.59376204;9.998186;-0.32561144
14:55:46:156;14:55:46:094;-0.59376204;9.998186;-0.32561144
14:55:46:164;14:55:46:094;-0.59376204;9.998186;-0.32561144
14:55:46:171;14:55:46:094;-0.59376204;9.998186;-0.32561144
14:55:46:179;14:55:46:094;-0.59376204;9.998186;-0.32561144
14:55:46:187;14:55:46:094;-0.59376204;9.998186;-0.32561144
14:55:46:195;14:55:46:094;-0.59376204;9.998186;-0.32561144
14:55:46:203;14:55:46:094;-0.59376204;9.998186;-0.32561144
14:55:46:210;14:55:46:094;-0.59376204;9.998186;-0.32561144
14:55:46:218;14:55:46:213;-1.3215994;9.404425;0.5363012
14:55:46:226;14:55:46:213;-1.3215994;9.404425;0.5363012
14:55:46:234;14:55:46:213;-1.3215994;9.404425;0.5363012
14:55:46:242;14:55:46:213;-1.3215994;9.404425;0.5363012
14:55:46:250;14:55:46:213;-1.3215994;9.404425;0.5363012
14:55:46:257;14:55:46:213;-1.3215994;9.404425;0.5363012
14:55:46:265;14:55:46:213;-1.3215994;9.404425;0.5363012
14:55:46:273;14:55:46:213;-1.3215994;9.404425;0.5363012
14:55:46:281;14:55:46:213;-1.3215994;9.404425;0.5363012
14:55:46:289;14:55:46:213;-1.3215994;9.404425;0.5363012
14:55:46:296;14:55:46:213;-1.3215994;9.404425;0.5363012
14:55:46:304;14:55:46:213;-1.3215994;9.404425;0.5363012
14:55:46:312;14:55:46:213;-1.3215994;9.404425;0.5363012
14:55:46:320;14:55:46:213;-1.3215994;9.404425;0.5363012
14:55:46:328;14:55:46:322;-1.5514427;10.093954;0.1340753
14:55:46:335;14:55:46:322;-1.5514427;10.093954;0.1340753
14:55:46:343;14:55:46:322;-1.5514427;10.093954;0.1340753
14:55:46:351;14:55:46:322;-1.5514427;10.093954;0.1340753
14:55:46:359;14:55:46:322;-1.5514427;10.093954;0.1340753
14:55:46:367;14:55:46:322;-1.5514427;10.093954;0.1340753
14:55:46:375;14:55:46:322;-1.5514427;10.093954;0.1340753
14:55:46:382;14:55:46:322;-1.5514427;10.093954;0.1340753
14:55:46:390;14:55:46:322;-1.5514427;10.093954;0.1340753
14:55:46:398;14:55:46:322;-1.5514427;10.093954;0.1340753
14:55:46:406;14:55:46:322;-1.5514427;10.093954;0.1340753
14:55:46:414;14:55:46:322;-1.5514427;10.093954;0.1340753
14:55:46:421;14:55:46:322;-1.5514427;10.093954;0.1340753
14:55:46:429;14:55:46:322;-1.5514427;10.093954;0.1340753
14:55:46:437;14:55:46:322;-1.5514427;10.093954;0.1340753
14:55:46:445;14:55:46:440;-1.3790601;10.093954;0.076614454
14:55:46:453;14:55:46:440;-1.3790601;10.093954;0.076614454
14:55:46:460;14:55:46:440;-1.3790601;10.093954;0.076614454
14:55:46:468;14:55:46:440;-1.3790601;10.093954;0.076614454
14:55:46:476;14:55:46:440;-1.3790601;10.093954;0.076614454
14:55:46:484;14:55:46:440;-1.3790601;10.093954;0.076614454
14:55:46:492;14:55:46:440;-1.3790601;10.093954;0.076614454
14:55:46:500;14:55:46:440;-1.3790601;10.093954;0.076614454
14:55:46:507;14:55:46:440;-1.3790601;10.093954;0.076614454
14:55:46:515;14:55:46:440;-1.3790601;10.093954;0.076614454
14:55:46:523;14:55:46:440;-1.3790601;10.093954;0.076614454
14:55:46:531;14:55:46:440;-1.3790601;10.093954;0.076614454
14:55:46:539;14:55:46:440;-1.3790601;10.093954;0.076614454
14:55:46:546;14:55:46:541;-0.93852705;9.595961;-0.095768064
14:55:46:554;14:55:46:541;-0.93852705;9.595961;-0.095768064
14:55:46:562;14:55:46:541;-0.93852705;9.595961;-0.095768064
14:55:46:570;14:55:46:541;-0.93852705;9.595961;-0.095768064
14:55:46:578;14:55:46:541;-0.93852705;9.595961;-0.095768064
14:55:46:585;14:55:46:541;-0.93852705;9.595961;-0.095768064
14:55:46:593;14:55:46:541;-0.93852705;9.595961;-0.095768064
14:55:46:601;14:55:46:541;-0.93852705;9.595961;-0.095768064
14:55:46:609;14:55:46:541;-0.93852705;9.595961;-0.095768064
14:55:46:617;14:55:46:541;-0.93852705;9.595961;-0.095768064
14:55:46:625;14:55:46:541;-0.93852705;9.595961;-0.095768064
14:55:46:632;14:55:46:541;-0.93852705;9.595961;-0.095768064
14:55:46:640;14:55:46:541;-0.93852705;9.595961;-0.095768064
14:55:46:648;14:55:46:541;-0.93852705;9.595961;-0.095768064
14:55:46:656;14:55:46:541;-0.93852705;9.595961;-0.095768064
14:55:46:664;14:55:46:659;-1.0726024;10.247183;0.34476504
14:55:46:671;14:55:46:659;-1.0726024;10.247183;0.34476504
14:55:46:679;14:55:46:659;-1.0726024;10.247183;0.34476504
14:55:46:687;14:55:46:659;-1.0726024;10.247183;0.34476504
14:55:46:695;14:55:46:659;-1.0726024;10.247183;0.34476504
14:55:46:703;14:55:46:659;-1.0726024;10.247183;0.34476504
14:55:46:710;14:55:46:659;-1.0726024;10.247183;0.34476504
14:55:46:718;14:55:46:659;-1.0726024;10.247183;0.34476504
14:55:46:726;14:55:46:659;-1.0726024;10.247183;0.34476504
14:55:46:734;14:55:46:659;-1.0726024;10.247183;0.34476504
14:55:46:742;14:55:46:659;-1.0726024;10.247183;0.34476504
14:55:46:750;14:55:46:659;-1.0726024;10.247183;0.34476504
14:55:46:757;14:55:46:659;-1.0726024;10.247183;0.34476504
14:55:46:765;14:55:46:760;-1.091756;9.80665;0.24899697
14:55:46:773;14:55:46:760;-1.091756;9.80665;0.24899697
14:55:46:781;14:55:46:760;-1.091756;9.80665;0.24899697
14:55:46:789;14:55:46:760;-1.091756;9.80665;0.24899697
14:55:46:796;14:55:46:760;-1.091756;9.80665;0.24899697
14:55:46:804;14:55:46:760;-1.091756;9.80665;0.24899697
14:55:46:812;14:55:46:760;-1.091756;9.80665;0.24899697
14:55:46:820;14:55:46:760;-1.091756;9.80665;0.24899697
14:55:46:828;14:55:46:760;-1.091756;9.80665;0.24899697
14:55:46:835;14:55:46:760;-1.091756;9.80665;0.24899697
14:55:46:843;14:55:46:760;-1.091756;9.80665;0.24899697
14:55:46:851;14:55:46:760;-1.091756;9.80665;0.24899697
14:55:46:859;14:55:46:760;-1.091756;9.80665;0.24899697
14:55:46:867;14:55:46:760;-1.091756;9.80665;0.24899697
14:55:46:875;14:55:46:760;-1.091756;9.80665;0.24899697
14:55:46:882;14:55:46:876;-1.1300632;10.01734;0.34476504
14:55:46:890;14:55:46:876;-1.1300632;10.01734;0.34476504
14:55:46:898;14:55:46:876;-1.1300632;10.01734;0.34476504
14:55:46:906;14:55:46:876;-1.1300632;10.01734;0.34476504
14:55:46:914;14:55:46:876;-1.1300632;10.01734;0.34476504
14:55:46:921;14:55:46:876;-1.1300632;10.01734;0.34476504
14:55:46:929;14:55:46:876;-1.1300632;10.01734;0.34476504
14:55:46:937;14:55:46:876;-1.1300632;10.01734;0.34476504
14:55:46:945;14:55:46:876;-1.1300632;10.01734;0.34476504
14:55:46:953;14:55:46:876;-1.1300632;10.01734;0.34476504
14:55:46:960;14:55:46:876;-1.1300632;10.01734;0.34476504
14:55:46:968;14:55:46:876;-1.1300632;10.01734;0.34476504
14:55:46:976;14:55:46:876;-1.1300632;10.01734;0.34476504
14:55:46:984;14:55:46:876;-1.1300632;10.01734;0.34476504
14:55:46:992;14:55:46:992;-0.9768343;9.825804;0.34476504
14:55:47:000;14:55:46:992;-0.9768343;9.825804;0.34476504
14:55:47:007;14:55:46:992;-0.9768343;9.825804;0.34476504
14:55:47:015;14:55:46:992;-0.9768343;9.825804;0.34476504
14:55:47:023;14:55:46:992;-0.9768343;9.825804;0.34476504
14:55:47:031;14:55:46:992;-0.9768343;9.825804;0.34476504
14:55:47:039;14:55:46:992;-0.9768343;9.825804;0.34476504
14:55:47:046;14:55:46:992;-0.9768343;9.825804;0.34476504
14:55:47:054;14:55:46:992;-0.9768343;9.825804;0.34476504
14:55:47:062;14:55:46:992;-0.9768343;9.825804;0.34476504
14:55:47:070;14:55:46:992;-0.9768343;9.825804;0.34476504
14:55:47:078;14:55:46:992;-0.9768343;9.825804;0.34476504
14:55:47:085;14:55:46:992;-0.9768343;9.825804;0.34476504
14:55:47:093;14:55:46:992;-0.9768343;9.825804;0.34476504
14:55:47:101;14:55:47:096;-1.091756;9.576807;0.5746084
14:55:47:109;14:55:47:096;-1.091756;9.576807;0.5746084
14:55:47:117;14:55:47:096;-1.091756;9.576807;0.5746084
14:55:47:125;14:55:47:096;-1.091756;9.576807;0.5746084
14:55:47:132;14:55:47:096;-1.091756;9.576807;0.5746084
14:55:47:140;14:55:47:096;-1.091756;9.576807;0.5746084
14:55:47:148;14:55:47:096;-1.091756;9.576807;0.5746084
14:55:47:156;14:55:47:096;-1.091756;9.576807;0.5746084
14:55:47:164;14:55:47:096;-1.091756;9.576807;0.5746084
14:55:47:171;14:55:47:096;-1.091756;9.576807;0.5746084
14:55:47:179;14:55:47:096;-1.091756;9.576807;0.5746084
14:55:47:187;14:55:47:096;-1.091756;9.576807;0.5746084
14:55:47:195;14:55:47:096;-1.091756;9.576807;0.5746084
14:55:47:203;14:55:47:096;-1.091756;9.576807;0.5746084
14:55:47:210;14:55:47:210;-0.36391866;9.730036;0.4213795
14:55:47:218;14:55:47:210;-0.36391866;9.730036;0.4213795
14:55:47:226;14:55:47:210;-0.36391866;9.730036;0.4213795
14:55:47:234;14:55:47:210;-0.36391866;9.730036;0.4213795
14:55:47:242;14:55:47:210;-0.36391866;9.730036;0.4213795
14:55:47:250;14:55:47:210;-0.36391866;9.730036;0.4213795
14:55:47:257;14:55:47:210;-0.36391866;9.730036;0.4213795
14:55:47:265;14:55:47:210;-0.36391866;9.730036;0.4213795
14:55:47:273;14:55:47:210;-0.36391866;9.730036;0.4213795
14:55:47:281;14:55:47:210;-0.36391866;9.730036;0.4213795
14:55:47:289;14:55:47:210;-0.36391866;9.730036;0.4213795
14:55:47:296;14:55:47:210;-0.36391866;9.730036;0.4213795
14:55:47:304;14:55:47:210;-0.36391866;9.730036;0.4213795
14:55:47:312;14:55:47:210;-0.36391866;9.730036;0.4213795
14:55:47:320;14:55:47:317;-0.34476504;9.9790325;0.30645782
14:55:47:328;14:55:47:317;-0.34476504;9.9790325;0.30645782
14:55:47:335;14:55:47:317;-0.34476504;9.9790325;0.30645782
14:55:47:343;14:55:47:317;-0.34476504;9.9790325;0.30645782
14:55:47:351;14:55:47:317;-0.34476504;9.9790325;0.30645782
14:55:47:359;14:55:47:317;-0.34476504;9.9790325;0.30645782
14:55:47:367;14:55:47:317;-0.34476504;9.9790325;0.30645782
14:55:47:375;14:55:47:317;-0.34476504;9.9790325;0.30645782
14:55:47:382;14:55:47:317;-0.34476504;9.9790325;0.30645782
14:55:47:390;14:55:47:317;-0.34476504;9.9790325;0.30645782
14:55:47:398;14:55:47:317;-0.34476504;9.9790325;0.30645782
14:55:47:406;14:55:47:317;-0.34476504;9.9790325;0.30645782
14:55:47:414;14:55:47:317;-0.34476504;9.9790325;0.30645782
14:55:47:421;14:55:47:317;-0.34476504;9.9790325;0.30645782
14:55:47:429;14:55:47:317;-0.34476504;9.9790325;0.30645782
14:55:47:437;14:55:47:434;-0.47884035;9.998186;-0.36391866
14:55:47:445;14:55:47:434;-0.47884035;9.998186;-0.36391866
14:55:47:453;14:55:47:434;-0.47884035;9.998186;-0.36391866
14:55:47:460;14:55:47:434;-0.47884035;9.998186;-0.36391866
14:55:47:468;14:55:47:434;-0.47884035;9.998186;-0.36391866
14:55:47:476;14:55:47:434;-0.47884035;9.998186;-0.36391866
14:55:47:484;14:55:47:434;-0.47884035;9.998186;-0.36391866
14:55:47:492;14:55:47:434;-0.47884035;9.998186;-0.36391866
14:55:47:500;14:55:47:434;-0.47884035;9.998186;-0.36391866
14:55:47:507;14:55:47:434;-0.47884035;9.998186;-0.36391866
14:55:47:515;14:55:47:434;-0.47884035;9.998186;-0.36391866
14:55:47:523;14:55:47:434;-0.47884035;9.998186;-0.36391866
14:55:47:531;14:55:47:434;-0.47884035;9.998186;-0.36391866
14:55:47:539;14:55:47:535;0.076614454;10.323798;0.24899697
14:55:47:546;14:55:47:535;0.076614454;10.323798;0.24899697
14:55:47:554;14:55:47:535;0.076614454;10.323798;0.24899697
14:55:47:562;14:55:47:535;0.076614454;10.323798;0.24899697
14:55:47:570;14:55:47:535;0.076614454;10.323798;0.24899697
14:55:47:578;14:55:47:535;0.076614454;10.323798;0.24899697
14:55:47:585;14:55:47:535;0.076614454;10.323798;0.24899697
14:55:47:593;14:55:47:535;0.076614454;10.323798;0.24899697
14:55:47:601;14:55:47:535;0.076614454;10.323798;0.24899697
14:55:47:609;14:55:47:535;0.076614454;10.323798;0.24899697
14:55:47:617;14:55:47:535;0.076614454;10.323798;0.24899697
14:55:47:625;14:55:47:535;0.076614454;10.323798;0.24899697
14:55:47:632;14:55:47:535;0.076614454;10.323798;0.24899697
14:55:47:640;14:55:47:636;-0.34476504;9.481039;0.63206923
14:55:47:648;14:55:47:636;-0.34476504;9.481039;0.63206923
14:55:47:656;14:55:47:636;-0.34476504;9.481039;0.63206923
14:55:47:664;14:55:47:636;-0.34476504;9.481039;0.63206923
14:55:47:671;14:55:47:636;-0.34476504;9.481039;0.63206923
14:55:47:679;14:55:47:636;-0.34476504;9.481039;0.63206923
14:55:47:687;14:55:47:636;-0.34476504;9.481039;0.63206923
14:55:47:695;14:55:47:636;-0.34476504;9.481039;0.63206923
14:55:47:703;14:55:47:636;-0.34476504;9.481039;0.63206923
14:55:47:710;14:55:47:636;-0.34476504;9.481039;0.63206923
14:55:47:718;14:55:47:636;-0.34476504;9.481039;0.63206923
14:55:47:726;14:55:47:636;-0.34476504;9.481039;0.63206923
14:55:47:734;14:55:47:636;-0.34476504;9.481039;0.63206923
14:55:47:742;14:55:47:636;-0.34476504;9.481039;0.63206923
14:55:47:750;14:55:47:636;-0.34476504;9.481039;0.63206923
14:55:47:757;14:55:47:753;-0.4405331;9.768343;-0.11492168
14:55:47:765;14:55:47:753;-0.4405331;9.768343;-0.11492168
14:55:47:773;14:55:47:753;-0.4405331;9.768343;-0.11492168
14:55:47:781;14:55:47:753;-0.4405331;9.768343;-0.11492168
14:55:47:789;14:55:47:753;-0.4405331;9.768343;-0.11492168
14:55:47:796;14:55:47:753;-0.4405331;9.768343;-0.11492168
14:55:47:804;14:55:47:753;-0.4405331;9.768343;-0.11492168
14:55:47:812;14:55:47:753;-0.4405331;9.768343;-0.11492168
14:55:47:820;14:55:47:753;-0.4405331;9.768343;-0.11492168
14:55:47:828;14:55:47:753;-0.4405331;9.768343;-0.11492168
14:55:47:835;14:55:47:753;-0.4405331;9.768343;-0.11492168
14:55:47:843;14:55:47:753;-0.4405331;9.768343;-0.11492168
14:55:47:851;14:55:47:753;-0.4405331;9.768343;-0.11492168
14:55:47:859;14:55:47:753;-0.4405331;9.768343;-0.11492168
14:55:47:867;14:55:47:866;-0.17238252;10.266336;-0.21068975
14:55:47:875;14:55:47:866;-0.17238252;10.266336;-0.21068975
14:55:47:882;14:55:47:866;-0.17238252;10.266336;-0.21068975
14:55:47:890;14:55:47:866;-0.17238252;10.266336;-0.21068975
14:55:47:898;14:55:47:866;-0.17238252;10.266336;-0.21068975
14:55:47:906;14:55:47:866;-0.17238252;10.266336;-0.21068975
14:55:47:914;14:55:47:866;-0.17238252;10.266336;-0.21068975
14:55:47:921;14:55:47:866;-0.17238252;10.266336;-0.21068975
14:55:47:929;14:55:47:866;-0.17238252;10.266336;-0.21068975
14:55:47:937;14:55:47:866;-0.17238252;10.266336;-0.21068975
14:55:47:945;14:55:47:866;-0.17238252;10.266336;-0.21068975
14:55:47:953;14:55:47:866;-0.17238252;10.266336;-0.21068975
14:55:47:960;14:55:47:866;-0.17238252;10.266336;-0.21068975
14:55:47:968;14:55:47:866;-0.17238252;10.266336;-0.21068975
14:55:47:976;14:55:47:973;0.076614454;9.634268;-0.47884035
14:55:47:984;14:55:47:973;0.076614454;9.634268;-0.47884035
14:55:47:992;14:55:47:973;0.076614454;9.634268;-0.47884035
14:55:48:000;14:55:47:973;0.076614454;9.634268;-0.47884035
14:55:48:007;14:55:47:973;0.076614454;9.634268;-0.47884035
14:55:48:015;14:55:47:973;0.076614454;9.634268;-0.47884035
14:55:48:023;14:55:47:973;0.076614454;9.634268;-0.47884035
14:55:48:031;14:55:47:973;0.076614454;9.634268;-0.47884035
14:55:48:039;14:55:47:973;0.076614454;9.634268;-0.47884035
14:55:48:046;14:55:47:973;0.076614454;9.634268;-0.47884035
14:55:48:054;14:55:47:973;0.076614454;9.634268;-0.47884035
14:55:48:062;14:55:47:973;0.076614454;9.634268;-0.47884035
14:55:48:070;14:55:47:973;0.076614454;9.634268;-0.47884035
14:55:48:078;14:55:47:973;0.076614454;9.634268;-0.47884035
14:55:48:085;14:55:47:973;0.076614454;9.634268;-0.47884035
14:55:48:093;14:55:47:973;0.076614454;9.634268;-0.47884035
14:55:48:101;14:55:47:973;0.076614454;9.634268;-0.47884035
14:55:48:109;14:55:48:105;-0.30645782;9.883265;-0.076614454
14:55:48:117;14:55:48:105;-0.30645782;9.883265;-0.076614454
14:55:48:125;14:55:48:105;-0.30645782;9.883265;-0.076614454
14:55:48:132;14:55:48:105;-0.30645782;9.883265;-0.076614454
14:55:48:140;14:55:48:105;-0.30645782;9.883265;-0.076614454
14:55:48:148;14:55:48:105;-0.30645782;9.883265;-0.076614454
14:55:48:156;14:55:48:105;-0.30645782;9.883265;-0.076614454
14:55:48:164;14:55:48:105;-0.30645782;9.883265;-0.076614454
14:55:48:171;14:55:48:105;-0.30645782;9.883265;-0.076614454
14:55:48:179;14:55:48:105;-0.30645782;9.883265;-0.076614454
14:55:48:187;14:55:48:105;-0.30645782;9.883265;-0.076614454
14:55:48:195;14:55:48:105;-0.30645782;9.883265;-0.076614454
14:55:48:203;14:55:48:105;-0.30645782;9.883265;-0.076614454
14:55:48:210;14:55:48:105;-0.30645782;9.883265;-0.076614454
14:55:48:218;14:55:48:217;-0.49799395;9.500193;-0.22984336
14:55:48:226;14:55:48:217;-0.49799395;9.500193;-0.22984336
14:55:48:234;14:55:48:217;-0.49799395;9.500193;-0.22984336
14:55:48:242;14:55:48:217;-0.49799395;9.500193;-0.22984336
14:55:48:250;14:55:48:217;-0.49799395;9.500193;-0.22984336
14:55:48:257;14:55:48:217;-0.49799395;9.500193;-0.22984336
14:55:48:265;14:55:48:217;-0.49799395;9.500193;-0.22984336
14:55:48:273;14:55:48:217;-0.49799395;9.500193;-0.22984336
14:55:48:281;14:55:48:217;-0.49799395;9.500193;-0.22984336
14:55:48:289;14:55:48:217;-0.49799395;9.500193;-0.22984336
14:55:48:296;14:55:48:217;-0.49799395;9.500193;-0.22984336
14:55:48:304;14:55:48:217;-0.49799395;9.500193;-0.22984336
14:55:48:312;14:55:48:217;-0.49799395;9.500193;-0.22984336
14:55:48:320;14:55:48:318;-0.095768064;9.672575;-0.49799395
14:55:48:328;14:55:48:318;-0.095768064;9.672575;-0.49799395
14:55:48:335;14:55:48:318;-0.095768064;9.672575;-0.49799395
14:55:48:343;14:55:48:318;-0.095768064;9.672575;-0.49799395
14:55:48:351;14:55:48:318;-0.095768064;9.672575;-0.49799395
14:55:48:359;14:55:48:318;-0.095768064;9.672575;-0.49799395
14:55:48:367;14:55:48:318;-0.095768064;9.672575;-0.49799395
14:55:48:375;14:55:48:318;-0.095768064;9.672575;-0.49799395
14:55:48:382;14:55:48:318;-0.095768064;9.672575;-0.49799395
14:55:48:390;14:55:48:318;-0.095768064;9.672575;-0.49799395
14:55:48:398;14:55:48:318;-0.095768064;9.672575;-0.49799395
14:55:48:406;14:55:48:318;-0.095768064;9.672575;-0.49799395
14:55:48:414;14:55:48:318;-0.095768064;9.672575;-0.49799395
14:55:48:421;14:55:48:318;-0.095768064;9.672575;-0.49799395
14:55:48:429;14:55:48:318;-0.095768064;9.672575;-0.49799395
14:55:48:437;14:55:48:436;-0.17238252;9.557653;-0.32561144
14:55:48:445;14:55:48:436;-0.17238252;9.557653;-0.32561144
14:55:48:453;14:55:48:436;-0.17238252;9.557653;-0.32561144
14:55:48:460;14:55:48:436;-0.17238252;9.557653;-0.32561144
14:55:48:468;14:55:48:436;-0.17238252;9.557653;-0.32561144
14:55:48:476;14:55:48:436;-0.17238252;9.557653;-0.32561144
14:55:48:484;14:55:48:436;-0.17238252;9.557653;-0.32561144
14:55:48:492;14:55:48:436;-0.17238252;9.557653;-0.32561144
14:55:48:500;14:55:48:436;-0.17238252;9.557653;-0.32561144
14:55:48:507;14:55:48:436;-0.17238252;9.557653;-0.32561144
14:55:48:515;14:55:48:436;-0.17238252;9.557653;-0.32561144
14:55:48:523;14:55:48:436;-0.17238252;9.557653;-0.32561144
14:55:48:531;14:55:48:436;-0.17238252;9.557653;-0.32561144
14:55:48:539;14:55:48:436;-0.17238252;9.557653;-0.32561144
14:55:48:546;14:55:48:436;-0.17238252;9.557653;-0.32561144
14:55:48:554;14:55:48:554;0.05746084;10.28549;-0.91937345
14:55:48:562;14:55:48:554;0.05746084;10.28549;-0.91937345
14:55:48:570;14:55:48:554;0.05746084;10.28549;-0.91937345
14:55:48:578;14:55:48:554;0.05746084;10.28549;-0.91937345
14:55:48:585;14:55:48:554;0.05746084;10.28549;-0.91937345
14:55:48:593;14:55:48:554;0.05746084;10.28549;-0.91937345
14:55:48:601;14:55:48:554;0.05746084;10.28549;-0.91937345
14:55:48:609;14:55:48:554;0.05746084;10.28549;-0.91937345
14:55:48:617;14:55:48:554;0.05746084;10.28549;-0.91937345
14:55:48:625;14:55:48:554;0.05746084;10.28549;-0.91937345
14:55:48:632;14:55:48:554;0.05746084;10.28549;-0.91937345
14:55:48:640;14:55:48:554;0.05746084;10.28549;-0.91937345
14:55:48:648;14:55:48:554;0.05746084;10.28549;-0.91937345
14:55:48:656;14:55:48:554;0.05746084;10.28549;-0.91937345
14:55:48:664;14:55:48:554;0.05746084;10.28549;-0.91937345
14:55:48:671;14:55:48:670;-0.019153614;10.419566;-0.47884035
14:55:48:679;14:55:48:670;-0.019153614;10.419566;-0.47884035
14:55:48:687;14:55:48:670;-0.019153614;10.419566;-0.47884035
14:55:48:695;14:55:48:670;-0.019153614;10.419566;-0.47884035
14:55:48:703;14:55:48:670;-0.019153614;10.419566;-0.47884035
14:55:48:710;14:55:48:670;-0.019153614;10.419566;-0.47884035
14:55:48:718;14:55:48:670;-0.019153614;10.419566;-0.47884035
14:55:48:726;14:55:48:670;-0.019153614;10.419566;-0.47884035
14:55:48:734;14:55:48:670;-0.019153614;10.419566;-0.47884035
14:55:48:742;14:55:48:670;-0.019153614;10.419566;-0.47884035
14:55:48:750;14:55:48:670;-0.019153614;10.419566;-0.47884035
14:55:48:757;14:55:48:670;-0.019153614;10.419566;-0.47884035
14:55:48:765;14:55:48:670;-0.019153614;10.419566;-0.47884035
14:55:48:773;14:55:48:670;-0.019153614;10.419566;-0.47884035
14:55:48:781;14:55:48:778;-0.095768064;9.672575;-0.61291564
14:55:48:789;14:55:48:778;-0.095768064;9.672575;-0.61291564
14:55:48:796;14:55:48:778;-0.095768064;9.672575;-0.61291564
14:55:48:804;14:55:48:778;-0.095768064;9.672575;-0.61291564
14:55:48:812;14:55:48:778;-0.095768064;9.672575;-0.61291564
14:55:48:820;14:55:48:778;-0.095768064;9.672575;-0.61291564
14:55:48:828;14:55:48:778;-0.095768064;9.672575;-0.61291564
14:55:48:835;14:55:48:778;-0.095768064;9.672575;-0.61291564
14:55:48:843;14:55:48:778;-0.095768064;9.672575;-0.61291564
14:55:48:851;14:55:48:778;-0.095768064;9.672575;-0.61291564
14:55:48:859;14:55:48:778;-0.095768064;9.672575;-0.61291564
14:55:48:867;14:55:48:778;-0.095768064;9.672575;-0.61291564
14:55:48:875;14:55:48:778;-0.095768064;9.672575;-0.61291564
14:55:48:882;14:55:48:778;-0.095768064;9.672575;-0.61291564
14:55:48:890;14:55:48:778;-0.095768064;9.672575;-0.61291564
14:55:48:898;14:55:48:897;0.19153613;9.308656;-0.1340753
14:55:48:906;14:55:48:897;0.19153613;9.308656;-0.1340753
14:55:48:914;14:55:48:897;0.19153613;9.308656;-0.1340753
14:55:48:921;14:55:48:897;0.19153613;9.308656;-0.1340753
14:55:48:929;14:55:48:897;0.19153613;9.308656;-0.1340753
14:55:48:937;14:55:48:897;0.19153613;9.308656;-0.1340753
14:55:48:945;14:55:48:897;0.19153613;9.308656;-0.1340753
14:55:48:953;14:55:48:897;0.19153613;9.308656;-0.1340753
14:55:48:960;14:55:48:897;0.19153613;9.308656;-0.1340753
14:55:48:968;14:55:48:897;0.19153613;9.308656;-0.1340753
14:55:48:976;14:55:48:897;0.19153613;9.308656;-0.1340753
14:55:48:984;14:55:48:897;0.19153613;9.308656;-0.1340753
14:55:48:992;14:55:48:897;0.19153613;9.308656;-0.1340753
14:55:49:000;14:55:48:897;0.19153613;9.308656;-0.1340753
14:55:49:007;14:55:48:897;0.19153613;9.308656;-0.1340753
14:55:49:015;14:55:49:014;0.15322891;10.783484;-0.5363012
14:55:49:023;14:55:49:014;0.15322891;10.783484;-0.5363012
14:55:49:031;14:55:49:014;0.15322891;10.783484;-0.5363012
14:55:49:039;14:55:49:014;0.15322891;10.783484;-0.5363012
14:55:49:046;14:55:49:014;0.15322891;10.783484;-0.5363012
14:55:49:054;14:55:49:014;0.15322891;10.783484;-0.5363012
14:55:49:062;14:55:49:014;0.15322891;10.783484;-0.5363012
14:55:49:070;14:55:49:014;0.15322891;10.783484;-0.5363012
14:55:49:078;14:55:49:014;0.15322891;10.783484;-0.5363012
14:55:49:085;14:55:49:014;0.15322891;10.783484;-0.5363012
14:55:49:093;14:55:49:014;0.15322891;10.783484;-0.5363012
14:55:49:101;14:55:49:014;0.15322891;10.783484;-0.5363012
14:55:49:109;14:55:49:014;0.15322891;10.783484;-0.5363012
14:55:49:117;14:55:49:014;0.15322891;10.783484;-0.5363012
14:55:49:125;14:55:49:014;0.15322891;10.783484;-0.5363012
14:55:49:132;14:55:49:014;0.15322891;10.783484;-0.5363012
14:55:49:140;14:55:49:133;0.15322891;10.113108;-0.7278373
14:55:49:148;14:55:49:133;0.15322891;10.113108;-0.7278373
14:55:49:156;14:55:49:133;0.15322891;10.113108;-0.7278373
14:55:49:164;14:55:49:133;0.15322891;10.113108;-0.7278373
14:55:49:171;14:55:49:133;0.15322891;10.113108;-0.7278373
14:55:49:179;14:55:49:133;0.15322891;10.113108;-0.7278373
14:55:49:187;14:55:49:133;0.15322891;10.113108;-0.7278373
14:55:49:195;14:55:49:133;0.15322891;10.113108;-0.7278373
14:55:49:203;14:55:49:133;0.15322891;10.113108;-0.7278373
14:55:49:210;14:55:49:133;0.15322891;10.113108;-0.7278373
14:55:49:218;14:55:49:133;0.15322891;10.113108;-0.7278373
14:55:49:226;14:55:49:133;0.15322891;10.113108;-0.7278373
14:55:49:234;14:55:49:133;0.15322891;10.113108;-0.7278373
14:55:49:242;14:55:49:236;0.095768064;9.730036;-0.36391866
14:55:49:250;14:55:49:236;0.095768064;9.730036;-0.36391866
14:55:49:257;14:55:49:236;0.095768064;9.730036;-0.36391866
14:55:49:265;14:55:49:236;0.095768064;9.730036;-0.36391866
14:55:49:273;14:55:49:236;0.095768064;9.730036;-0.36391866
14:55:49:281;14:55:49:236;0.095768064;9.730036;-0.36391866
14:55:49:289;14:55:49:236;0.095768064;9.730036;-0.36391866
14:55:49:296;14:55:49:236;0.095768064;9.730036;-0.36391866
14:55:49:304;14:55:49:236;0.095768064;9.730036;-0.36391866
14:55:49:312;14:55:49:236;0.095768064;9.730036;-0.36391866
14:55:49:320;14:55:49:236;0.095768064;9.730036;-0.36391866
14:55:49:328;14:55:49:236;0.095768064;9.730036;-0.36391866
14:55:49:335;14:55:49:236;0.095768064;9.730036;-0.36391866
14:55:49:343;14:55:49:236;0.095768064;9.730036;-0.36391866
14:55:49:351;14:55:49:236;0.095768064;9.730036;-0.36391866
14:55:49:359;14:55:49:353;0.90021986;10.01734;-0.45968673
14:55:49:367;14:55:49:353;0.90021986;10.01734;-0.45968673
14:55:49:375;14:55:49:353;0.90021986;10.01734;-0.45968673
14:55:49:382;14:55:49:353;0.90021986;10.01734;-0.45968673
14:55:49:390;14:55:49:353;0.90021986;10.01734;-0.45968673
14:55:49:398;14:55:49:353;0.90021986;10.01734;-0.45968673
14:55:49:406;14:55:49:353;0.90021986;10.01734;-0.45968673
14:55:49:414;14:55:49:353;0.90021986;10.01734;-0.45968673
14:55:49:421;14:55:49:353;0.90021986;10.01734;-0.45968673
14:55:49:429;14:55:49:353;0.90021986;10.01734;-0.45968673
14:55:49:437;14:55:49:353;0.90021986;10.01734;-0.45968673
14:55:49:445;14:55:49:353;0.90021986;10.01734;-0.45968673
14:55:49:453;14:55:49:353;0.90021986;10.01734;-0.45968673
14:55:49:460;14:55:49:353;0.90021986;10.01734;-0.45968673
14:55:49:468;14:55:49:353;0.90021986;10.01734;-0.45968673
14:55:49:476;14:55:49:472;-0.7469909;11.262324;-1.1109096
14:55:49:484;14:55:49:472;-0.7469909;11.262324;-1.1109096
14:55:49:492;14:55:49:472;-0.7469909;11.262324;-1.1109096
14:55:49:500;14:55:49:472;-0.7469909;11.262324;-1.1109096
14:55:49:507;14:55:49:472;-0.7469909;11.262324;-1.1109096
14:55:49:515;14:55:49:472;-0.7469909;11.262324;-1.1109096
14:55:49:523;14:55:49:472;-0.7469909;11.262324;-1.1109096
14:55:49:531;14:55:49:472;-0.7469909;11.262324;-1.1109096
14:55:49:539;14:55:49:472;-0.7469909;11.262324;-1.1109096
14:55:49:546;14:55:49:472;-0.7469909;11.262324;-1.1109096
14:55:49:554;14:55:49:472;-0.7469909;11.262324;-1.1109096
14:55:49:562;14:55:49:472;-0.7469909;11.262324;-1.1109096
14:55:49:570;14:55:49:472;-0.7469909;11.262324;-1.1109096
14:55:49:578;14:55:49:472;-0.7469909;11.262324;-1.1109096
14:55:49:585;14:55:49:472;-0.7469909;11.262324;-1.1109096
14:55:49:593;14:55:49:588;-0.7278373;9.576807;-0.15322891
14:55:49:601;14:55:49:588;-0.7278373;9.576807;-0.15322891
14:55:49:609;14:55:49:588;-0.7278373;9.576807;-0.15322891
14:55:49:617;14:55:49:588;-0.7278373;9.576807;-0.15322891
14:55:49:625;14:55:49:588;-0.7278373;9.576807;-0.15322891
14:55:49:632;14:55:49:588;-0.7278373;9.576807;-0.15322891
14:55:49:640;14:55:49:588;-0.7278373;9.576807;-0.15322891
14:55:49:648;14:55:49:588;-0.7278373;9.576807;-0.15322891
14:55:49:656;14:55:49:588;-0.7278373;9.576807;-0.15322891
14:55:49:664;14:55:49:588;-0.7278373;9.576807;-0.15322891
14:55:49:671;14:55:49:588;-0.7278373;9.576807;-0.15322891
14:55:49:679;14:55:49:588;-0.7278373;9.576807;-0.15322891
14:55:49:687;14:55:49:588;-0.7278373;9.576807;-0.15322891
14:55:49:695;14:55:49:694;-0.8619126;10.0748005;-0.8619126
14:55:49:703;14:55:49:694;-0.8619126;10.0748005;-0.8619126
14:55:49:710;14:55:49:694;-0.8619126;10.0748005;-0.8619126
14:55:49:718;14:55:49:694;-0.8619126;10.0748005;-0.8619126
14:55:49:726;14:55:49:694;-0.8619126;10.0748005;-0.8619126
14:55:49:734;14:55:49:694;-0.8619126;10.0748005;-0.8619126
14:55:49:742;14:55:49:694;-0.8619126;10.0748005;-0.8619126
14:55:49:750;14:55:49:694;-0.8619126;10.0748005;-0.8619126
14:55:49:757;14:55:49:694;-0.8619126;10.0748005;-0.8619126
14:55:49:765;14:55:49:694;-0.8619126;10.0748005;-0.8619126
14:55:49:773;14:55:49:694;-0.8619126;10.0748005;-0.8619126
14:55:49:781;14:55:49:694;-0.8619126;10.0748005;-0.8619126
14:55:49:789;14:55:49:694;-0.8619126;10.0748005;-0.8619126
14:55:49:796;14:55:49:694;-0.8619126;10.0748005;-0.8619126
14:55:49:804;14:55:49:694;-0.8619126;10.0748005;-0.8619126
14:55:49:812;14:55:49:806;-0.45968673;9.32781;-0.7086837
14:55:49:820;14:55:49:806;-0.45968673;9.32781;-0.7086837
14:55:49:828;14:55:49:806;-0.45968673;9.32781;-0.7086837
14:55:49:835;14:55:49:806;-0.45968673;9.32781;-0.7086837
14:55:49:843;14:55:49:806;-0.45968673;9.32781;-0.7086837
14:55:49:851;14:55:49:806;-0.45968673;9.32781;-0.7086837
14:55:49:859;14:55:49:806;-0.45968673;9.32781;-0.7086837
14:55:49:867;14:55:49:806;-0.45968673;9.32781;-0.7086837
14:55:49:875;14:55:49:806;-0.45968673;9.32781;-0.7086837
14:55:49:882;14:55:49:806;-0.45968673;9.32781;-0.7086837
14:55:49:890;14:55:49:806;-0.45968673;9.32781;-0.7086837
14:55:49:898;14:55:49:806;-0.45968673;9.32781;-0.7086837
14:55:49:906;14:55:49:906;-0.40222588;9.9790325;-0.45968673
14:55:49:914;14:55:49:906;-0.40222588;9.9790325;-0.45968673
14:55:49:921;14:55:49:906;-0.40222588;9.9790325;-0.45968673
14:55:49:929;14:55:49:906;-0.40222588;9.9790325;-0.45968673
14:55:49:937;14:55:49:906;-0.40222588;9.9790325;-0.45968673
14:55:49:945;14:55:49:906;-0.40222588;9.9790325;-0.45968673
14:55:49:953;14:55:49:906;-0.40222588;9.9790325;-0.45968673
14:55:49:960;14:55:49:906;-0.40222588;9.9790325;-0.45968673
14:55:49:968;14:55:49:906;-0.40222588;9.9790325;-0.45968673
14:55:49:976;14:55:49:906;-0.40222588;9.9790325;-0.45968673
14:55:49:984;14:55:49:906;-0.40222588;9.9790325;-0.45968673
14:55:49:992;14:55:49:906;-0.40222588;9.9790325;-0.45968673
14:55:50:000;14:55:49:906;-0.40222588;9.9790325;-0.45968673
14:55:50:007;14:55:49:906;-0.40222588;9.9790325;-0.45968673
14:55:50:015;14:55:49:906;-0.40222588;9.9790325;-0.45968673
14:55:50:023;14:55:49:906;-0.40222588;9.9790325;-0.45968673
14:55:50:031;14:55:50:024;-0.6703765;9.998186;-0.5746084
14:55:50:039;14:55:50:024;-0.6703765;9.998186;-0.5746084
14:55:50:046;14:55:50:024;-0.6703765;9.998186;-0.5746084
14:55:50:054;14:55:50:024;-0.6703765;9.998186;-0.5746084
14:55:50:062;14:55:50:024;-0.6703765;9.998186;-0.5746084
14:55:50:070;14:55:50:024;-0.6703765;9.998186;-0.5746084
14:55:50:078;14:55:50:024;-0.6703765;9.998186;-0.5746084
14:55:50:085;14:55:50:024;-0.6703765;9.998186;-0.5746084
14:55:50:093;14:55:50:024;-0.6703765;9.998186;-0.5746084
14:55:50:101;14:55:50:024;-0.6703765;9.998186;-0.5746084
14:55:50:109;14:55:50:024;-0.6703765;9.998186;-0.5746084
14:55:50:117;14:55:50:024;-0.6703765;9.998186;-0.5746084
14:55:50:125;14:55:50:024;-0.6703765;9.998186;-0.5746084
14:55:50:132;14:55:50:024;-0.6703765;9.998186;-0.5746084
14:55:50:140;14:55:50:024;-0.6703765;9.998186;-0.5746084
14:55:50:148;14:55:50:144;-0.7661445;10.515334;-0.36391866
14:55:50:156;14:55:50:144;-0.7661445;10.515334;-0.36391866
14:55:50:164;14:55:50:144;-0.7661445;10.515334;-0.36391866
14:55:50:171;14:55:50:144;-0.7661445;10.515334;-0.36391866
14:55:50:179;14:55:50:144;-0.7661445;10.515334;-0.36391866
14:55:50:187;14:55:50:144;-0.7661445;10.515334;-0.36391866
14:55:50:195;14:55:50:144;-0.7661445;10.515334;-0.36391866
14:55:50:203;14:55:50:144;-0.7661445;10.515334;-0.36391866
14:55:50:210;14:55:50:144;-0.7661445;10.515334;-0.36391866
14:55:50:218;14:55:50:144;-0.7661445;10.515334;-0.36391866
14:55:50:226;14:55:50:144;-0.7661445;10.515334;-0.36391866
14:55:50:234;14:55:50:144;-0.7661445;10.515334;-0.36391866
14:55:50:242;14:55:50:144;-0.7661445;10.515334;-0.36391866
14:55:50:250;14:55:50:144;-0.7661445;10.515334;-0.36391866
14:55:50:257;14:55:50:144;-0.7661445;10.515334;-0.36391866
14:55:50:265;14:55:50:263;-0.21068975;10.43872;-0.45968673
14:55:50:273;14:55:50:263;-0.21068975;10.43872;-0.45968673
14:55:50:281;14:55:50:263;-0.21068975;10.43872;-0.45968673
14:55:50:289;14:55:50:263;-0.21068975;10.43872;-0.45968673
14:55:50:296;14:55:50:263;-0.21068975;10.43872;-0.45968673
14:55:50:304;14:55:50:263;-0.21068975;10.43872;-0.45968673
14:55:50:312;14:55:50:263;-0.21068975;10.43872;-0.45968673
14:55:50:320;14:55:50:263;-0.21068975;10.43872;-0.45968673
14:55:50:328;14:55:50:263;-0.21068975;10.43872;-0.45968673
14:55:50:335;14:55:50:263;-0.21068975;10.43872;-0.45968673
14:55:50:343;14:55:50:263;-0.21068975;10.43872;-0.45968673
14:55:50:351;14:55:50:263;-0.21068975;10.43872;-0.45968673
14:55:50:359;14:55:50:263;-0.21068975;10.43872;-0.45968673
14:55:50:367;14:55:50:366;-0.49799395;10.362105;-0.8810662
14:55:50:375;14:55:50:366;-0.49799395;10.362105;-0.8810662
14:55:50:382;14:55:50:366;-0.49799395;10.362105;-0.8810662
14:55:50:390;14:55:50:366;-0.49799395;10.362105;-0.8810662
14:55:50:398;14:55:50:366;-0.49799395;10.362105;-0.8810662
14:55:50:406;14:55:50:366;-0.49799395;10.362105;-0.8810662
14:55:50:414;14:55:50:366;-0.49799395;10.362105;-0.8810662
14:55:50:421;14:55:50:366;-0.49799395;10.362105;-0.8810662
14:55:50:429;14:55:50:366;-0.49799395;10.362105;-0.8810662
14:55:50:437;14:55:50:366;-0.49799395;10.362105;-0.8810662
14:55:50:445;14:55:50:366;-0.49799395;10.362105;-0.8810662
14:55:50:453;14:55:50:366;-0.49799395;10.362105;-0.8810662
14:55:50:460;14:55:50:366;-0.49799395;10.362105;-0.8810662
14:55:50:468;14:55:50:366;-0.49799395;10.362105;-0.8810662
14:55:50:476;14:55:50:474;-0.038307227;9.902418;-1.5514427
14:55:50:484;14:55:50:474;-0.038307227;9.902418;-1.5514427
14:55:50:492;14:55:50:474;-0.038307227;9.902418;-1.5514427
14:55:50:500;14:55:50:474;-0.038307227;9.902418;-1.5514427
14:55:50:507;14:55:50:474;-0.038307227;9.902418;-1.5514427
14:55:50:515;14:55:50:474;-0.038307227;9.902418;-1.5514427
14:55:50:523;14:55:50:474;-0.038307227;9.902418;-1.5514427
14:55:50:531;14:55:50:474;-0.038307227;9.902418;-1.5514427
14:55:50:539;14:55:50:474;-0.038307227;9.902418;-1.5514427
14:55:50:546;14:55:50:474;-0.038307227;9.902418;-1.5514427
14:55:50:554;14:55:50:474;-0.038307227;9.902418;-1.5514427
14:55:50:562;14:55:50:474;-0.038307227;9.902418;-1.5514427
14:55:50:570;14:55:50:474;-0.038307227;9.902418;-1.5514427
14:55:50:578;14:55:50:474;-0.038307227;9.902418;-1.5514427
14:55:50:585;14:55:50:474;-0.038307227;9.902418;-1.5514427
14:55:50:593;14:55:50:474;-0.038307227;9.902418;-1.5514427
14:55:50:601;14:55:50:474;-0.038307227;9.902418;-1.5514427
14:55:50:609;14:55:50:474;-0.038307227;9.902418;-1.5514427
14:55:50:617;14:55:50:613;-0.22984336;9.749189;-1.0151415
14:55:50:625;14:55:50:613;-0.22984336;9.749189;-1.0151415
14:55:50:632;14:55:50:613;-0.22984336;9.749189;-1.0151415
14:55:50:640;14:55:50:613;-0.22984336;9.749189;-1.0151415
14:55:50:648;14:55:50:613;-0.22984336;9.749189;-1.0151415
14:55:50:656;14:55:50:613;-0.22984336;9.749189;-1.0151415
14:55:50:664;14:55:50:613;-0.22984336;9.749189;-1.0151415
14:55:50:671;14:55:50:613;-0.22984336;9.749189;-1.0151415
14:55:50:679;14:55:50:613;-0.22984336;9.749189;-1.0151415
14:55:50:687;14:55:50:613;-0.22984336;9.749189;-1.0151415
14:55:50:695;14:55:50:613;-0.22984336;9.749189;-1.0151415
14:55:50:703;14:55:50:613;-0.22984336;9.749189;-1.0151415
14:55:50:710;14:55:50:613;-0.22984336;9.749189;-1.0151415
14:55:50:718;14:55:50:613;-0.22984336;9.749189;-1.0151415
14:55:50:726;14:55:50:613;-0.22984336;9.749189;-1.0151415
14:55:50:734;14:55:50:733;-0.842759;9.787497;-1.0534488
14:55:50:742;14:55:50:733;-0.842759;9.787497;-1.0534488
14:55:50:750;14:55:50:733;-0.842759;9.787497;-1.0534488
14:55:50:757;14:55:50:733;-0.842759;9.787497;-1.0534488
14:55:50:765;14:55:50:733;-0.842759;9.787497;-1.0534488
14:55:50:773;14:55:50:733;-0.842759;9.787497;-1.0534488
14:55:50:781;14:55:50:733;-0.842759;9.787497;-1.0534488
14:55:50:789;14:55:50:733;-0.842759;9.787497;-1.0534488
14:55:50:796;14:55:50:733;-0.842759;9.787497;-1.0534488
14:55:50:804;14:55:50:733;-0.842759;9.787497;-1.0534488
14:55:50:812;14:55:50:733;-0.842759;9.787497;-1.0534488
14:55:50:820;14:55:50:733;-0.842759;9.787497;-1.0534488
14:55:50:828;14:55:50:733;-0.842759;9.787497;-1.0534488
14:55:50:835;14:55:50:733;-0.842759;9.787497;-1.0534488
14:55:50:843;14:55:50:733;-0.842759;9.787497;-1.0534488
14:55:50:851;14:55:50:733;-0.842759;9.787497;-1.0534488
14:55:50:859;14:55:50:852;-0.90021986;10.400413;-1.9153614
14:55:50:867;14:55:50:852;-0.90021986;10.400413;-1.9153614
14:55:50:875;14:55:50:852;-0.90021986;10.400413;-1.9153614
14:55:50:882;14:55:50:852;-0.90021986;10.400413;-1.9153614
14:55:50:890;14:55:50:852;-0.90021986;10.400413;-1.9153614
14:55:50:898;14:55:50:852;-0.90021986;10.400413;-1.9153614
14:55:50:906;14:55:50:852;-0.90021986;10.400413;-1.9153614
14:55:50:914;14:55:50:852;-0.90021986;10.400413;-1.9153614
14:55:50:921;14:55:50:852;-0.90021986;10.400413;-1.9153614
14:55:50:929;14:55:50:852;-0.90021986;10.400413;-1.9153614
14:55:50:937;14:55:50:852;-0.90021986;10.400413;-1.9153614
14:55:50:945;14:55:50:852;-0.90021986;10.400413;-1.9153614
14:55:50:953;14:55:50:953;-0.5363012;9.80665;-1.5897499
14:55:50:960;14:55:50:953;-0.5363012;9.80665;-1.5897499
14:55:50:968;14:55:50:953;-0.5363012;9.80665;-1.5897499
14:55:50:976;14:55:50:953;-0.5363012;9.80665;-1.5897499
14:55:50:984;14:55:50:953;-0.5363012;9.80665;-1.5897499
14:55:50:992;14:55:50:953;-0.5363012;9.80665;-1.5897499
14:55:51:000;14:55:50:953;-0.5363012;9.80665;-1.5897499
14:55:51:007;14:55:50:953;-0.5363012;9.80665;-1.5897499
14:55:51:015;14:55:50:953;-0.5363012;9.80665;-1.5897499
14:55:51:023;14:55:50:953;-0.5363012;9.80665;-1.5897499
14:55:51:031;14:55:50:953;-0.5363012;9.80665;-1.5897499
14:55:51:039;14:55:50:953;-0.5363012;9.80665;-1.5897499
14:55:51:046;14:55:50:953;-0.5363012;9.80665;-1.5897499
14:55:51:054;14:55:51:054;-1.0726024;9.883265;-1.3790601
14:55:51:062;14:55:51:054;-1.0726024;9.883265;-1.3790601
14:55:51:070;14:55:51:054;-1.0726024;9.883265;-1.3790601
14:55:51:078;14:55:51:054;-1.0726024;9.883265;-1.3790601
14:55:51:085;14:55:51:054;-1.0726024;9.883265;-1.3790601
14:55:51:093;14:55:51:054;-1.0726024;9.883265;-1.3790601
14:55:51:101;14:55:51:054;-1.0726024;9.883265;-1.3790601
14:55:51:109;14:55:51:054;-1.0726024;9.883265;-1.3790601
14:55:51:117;14:55:51:054;-1.0726024;9.883265;-1.3790601
14:55:51:125;14:55:51:054;-1.0726024;9.883265;-1.3790601
14:55:51:132;14:55:51:054;-1.0726024;9.883265;-1.3790601
14:55:51:140;14:55:51:054;-1.0726024;9.883265;-1.3790601
14:55:51:148;14:55:51:054;-1.0726024;9.883265;-1.3790601
14:55:51:156;14:55:51:054;-1.0726024;9.883265;-1.3790601
14:55:51:164;14:55:51:054;-1.0726024;9.883265;-1.3790601
14:55:51:171;14:55:51:054;-1.0726024;9.883265;-1.3790601
14:55:51:179;14:55:51:173;-0.7661445;9.346964;-1.2641385
14:55:51:187;14:55:51:173;-0.7661445;9.346964;-1.2641385
14:55:51:195;14:55:51:173;-0.7661445;9.346964;-1.2641385
14:55:51:203;14:55:51:173;-0.7661445;9.346964;-1.2641385
14:55:51:210;14:55:51:173;-0.7661445;9.346964;-1.2641385
14:55:51:218;14:55:51:173;-0.7661445;9.346964;-1.2641385
14:55:51:226;14:55:51:173;-0.7661445;9.346964;-1.2641385
14:55:51:234;14:55:51:173;-0.7661445;9.346964;-1.2641385
14:55:51:242;14:55:51:173;-0.7661445;9.346964;-1.2641385
14:55:51:250;14:55:51:173;-0.7661445;9.346964;-1.2641385
14:55:51:257;14:55:51:173;-0.7661445;9.346964;-1.2641385
14:55:51:265;14:55:51:173;-0.7661445;9.346964;-1.2641385
14:55:51:273;14:55:51:173;-0.7661445;9.346964;-1.2641385
14:55:51:281;14:55:51:173;-0.7661445;9.346964;-1.2641385
14:55:51:289;14:55:51:173;-0.7661445;9.346964;-1.2641385
14:55:51:296;14:55:51:292;-1.1492168;10.113108;-1.2641385
14:55:51:304;14:55:51:292;-1.1492168;10.113108;-1.2641385
14:55:51:312;14:55:51:292;-1.1492168;10.113108;-1.2641385
14:55:51:320;14:55:51:292;-1.1492168;10.113108;-1.2641385
14:55:51:328;14:55:51:292;-1.1492168;10.113108;-1.2641385
14:55:51:335;14:55:51:292;-1.1492168;10.113108;-1.2641385
14:55:51:343;14:55:51:292;-1.1492168;10.113108;-1.2641385
14:55:51:351;14:55:51:292;-1.1492168;10.113108;-1.2641385
14:55:51:359;14:55:51:292;-1.1492168;10.113108;-1.2641385
14:55:51:367;14:55:51:292;-1.1492168;10.113108;-1.2641385
14:55:51:375;14:55:51:292;-1.1492168;10.113108;-1.2641385
14:55:51:382;14:55:51:292;-1.1492168;10.113108;-1.2641385
14:55:51:390;14:55:51:292;-1.1492168;10.113108;-1.2641385
14:55:51:398;14:55:51:292;-1.1492168;10.113108;-1.2641385
14:55:51:406;14:55:51:292;-1.1492168;10.113108;-1.2641385
14:55:51:414;14:55:51:410;-1.1300632;9.844957;-1.4173675
14:55:51:421;14:55:51:410;-1.1300632;9.844957;-1.4173675
14:55:51:429;14:55:51:410;-1.1300632;9.844957;-1.4173675
14:55:51:437;14:55:51:410;-1.1300632;9.844957;-1.4173675
14:55:51:445;14:55:51:410;-1.1300632;9.844957;-1.4173675
14:55:51:453;14:55:51:410;-1.1300632;9.844957;-1.4173675
14:55:51:460;14:55:51:410;-1.1300632;9.844957;-1.4173675
14:55:51:468;14:55:51:410;-1.1300632;9.844957;-1.4173675
14:55:51:476;14:55:51:410;-1.1300632;9.844957;-1.4173675
14:55:51:484;14:55:51:410;-1.1300632;9.844957;-1.4173675
14:55:51:492;14:55:51:410;-1.1300632;9.844957;-1.4173675
14:55:51:500;14:55:51:410;-1.1300632;9.844957;-1.4173675
14:55:51:507;14:55:51:410;-1.1300632;9.844957;-1.4173675
14:55:51:515;14:55:51:410;-1.1300632;9.844957;-1.4173675
14:55:51:523;14:55:51:410;-1.1300632;9.844957;-1.4173675
14:55:51:531;14:55:51:526;-1.3215994;9.346964;-1.2066777
14:55:51:539;14:55:51:526;-1.3215994;9.346964;-1.2066777
14:55:51:546;14:55:51:526;-1.3215994;9.346964;-1.2066777
14:55:51:554;14:55:51:526;-1.3215994;9.346964;-1.2066777
14:55:51:562;14:55:51:526;-1.3215994;9.346964;-1.2066777
14:55:51:570;14:55:51:526;-1.3215994;9.346964;-1.2066777
14:55:51:578;14:55:51:526;-1.3215994;9.346964;-1.2066777
14:55:51:585;14:55:51:526;-1.3215994;9.346964;-1.2066777
14:55:51:593;14:55:51:526;-1.3215994;9.346964;-1.2066777
14:55:51:601;14:55:51:526;-1.3215994;9.346964;-1.2066777
14:55:51:609;14:55:51:526;-1.3215994;9.346964;-1.2066777
14:55:51:617;14:55:51:526;-1.3215994;9.346964;-1.2066777
14:55:51:625;14:55:51:526;-1.3215994;9.346964;-1.2066777
14:55:51:632;14:55:51:526;-1.3215994;9.346964;-1.2066777
14:55:51:640;14:55:51:526;-1.3215994;9.346964;-1.2066777
14:55:51:648;14:55:51:644;-1.5514427;9.80665;-1.1300632
14:55:51:656;14:55:51:644;-1.5514427;9.80665;-1.1300632
14:55:51:664;14:55:51:644;-1.5514427;9.80665;-1.1300632
14:55:51:671;14:55:51:644;-1.5514427;9.80665;-1.1300632
14:55:51:679;14:55:51:644;-1.5514427;9.80665;-1.1300632
14:55:51:687;14:55:51:644;-1.5514427;9.80665;-1.1300632
14:55:51:695;14:55:51:644;-1.5514427;9.80665;-1.1300632
14:55:51:703;14:55:51:644;-1.5514427;9.80665;-1.1300632
14:55:51:710;14:55:51:644;-1.5514427;9.80665;-1.1300632
14:55:51:718;14:55:51:644;-1.5514427;9.80665;-1.1300632
14:55:51:726;14:55:51:644;-1.5514427;9.80665;-1.1300632
14:55:51:734;14:55:51:644;-1.5514427;9.80665;-1.1300632
14:55:51:742;14:55:51:644;-1.5514427;9.80665;-1.1300632
14:55:51:750;14:55:51:745;-1.436521;9.5385;-0.15322891
14:55:51:757;14:55:51:745;-1.436521;9.5385;-0.15322891
14:55:51:765;14:55:51:745;-1.436521;9.5385;-0.15322891
14:55:51:773;14:55:51:745;-1.436521;9.5385;-0.15322891
14:55:51:781;14:55:51:745;-1.436521;9.5385;-0.15322891
14:55:51:789;14:55:51:745;-1.436521;9.5385;-0.15322891
14:55:51:796;14:55:51:745;-1.436521;9.5385;-0.15322891
14:55:51:804;14:55:51:745;-1.436521;9.5385;-0.15322891
14:55:51:812;14:55:51:745;-1.436521;9.5385;-0.15322891
14:55:51:820;14:55:51:745;-1.436521;9.5385;-0.15322891
14:55:51:828;14:55:51:745;-1.436521;9.5385;-0.15322891
14:55:51:835;14:55:51:745;-1.436521;9.5385;-0.15322891
14:55:51:843;14:55:51:745;-1.436521;9.5385;-0.15322891
14:55:51:851;14:55:51:745;-1.436521;9.5385;-0.15322891
14:55:51:859;14:55:51:745;-1.436521;9.5385;-0.15322891
14:55:51:867;14:55:51:862;-2.2026656;10.5919485;-0.095768064
14:55:51:875;14:55:51:862;-2.2026656;10.5919485;-0.095768064
14:55:51:882;14:55:51:862;-2.2026656;10.5919485;-0.095768064
14:55:51:890;14:55:51:862;-2.2026656;10.5919485;-0.095768064
14:55:51:898;14:55:51:862;-2.2026656;10.5919485;-0.095768064
14:55:51:906;14:55:51:862;-2.2026656;10.5919485;-0.095768064
14:55:51:914;14:55:51:862;-2.2026656;10.5919485;-0.095768064
14:55:51:921;14:55:51:862;-2.2026656;10.5919485;-0.095768064
14:55:51:929;14:55:51:862;-2.2026656;10.5919485;-0.095768064
14:55:51:937;14:55:51:862;-2.2026656;10.5919485;-0.095768064
14:55:51:945;14:55:51:862;-2.2026656;10.5919485;-0.095768064
14:55:51:953;14:55:51:862;-2.2026656;10.5919485;-0.095768064
14:55:51:960;14:55:51:862;-2.2026656;10.5919485;-0.095768064
14:55:51:968;14:55:51:862;-2.2026656;10.5919485;-0.095768064
14:55:51:976;14:55:51:862;-2.2026656;10.5919485;-0.095768064
14:55:51:984;14:55:51:979;-1.8770541;10.879252;-1.0726024
14:55:51:992;14:55:51:979;-1.8770541;10.879252;-1.0726024
14:55:52:000;14:55:51:979;-1.8770541;10.879252;-1.0726024
14:55:52:007;14:55:51:979;-1.8770541;10.879252;-1.0726024
14:55:52:015;14:55:51:979;-1.8770541;10.879252;-1.0726024
14:55:52:023;14:55:51:979;-1.8770541;10.879252;-1.0726024
14:55:52:031;14:55:51:979;-1.8770541;10.879252;-1.0726024
14:55:52:039;14:55:51:979;-1.8770541;10.879252;-1.0726024
14:55:52:046;14:55:51:979;-1.8770541;10.879252;-1.0726024
14:55:52:054;14:55:51:979;-1.8770541;10.879252;-1.0726024
14:55:52:062;14:55:51:979;-1.8770541;10.879252;-1.0726024
14:55:52:070;14:55:51:979;-1.8770541;10.879252;-1.0726024
14:55:52:078;14:55:51:979;-1.8770541;10.879252;-1.0726024
14:55:52:085;14:55:52:084;-1.340753;10.668563;-0.36391866
14:55:52:093;14:55:52:084;-1.340753;10.668563;-0.36391866
14:55:52:101;14:55:52:084;-1.340753;10.668563;-0.36391866
14:55:52:109;14:55:52:084;-1.340753;10.668563;-0.36391866
14:55:52:117;14:55:52:084;-1.340753;10.668563;-0.36391866
14:55:52:125;14:55:52:084;-1.340753;10.668563;-0.36391866
14:55:52:132;14:55:52:084;-1.340753;10.668563;-0.36391866
14:55:52:140;14:55:52:084;-1.340753;10.668563;-0.36391866
14:55:52:148;14:55:52:084;-1.340753;10.668563;-0.36391866
14:55:52:156;14:55:52:084;-1.340753;10.668563;-0.36391866
14:55:52:164;14:55:52:084;-1.340753;10.668563;-0.36391866
14:55:52:171;14:55:52:084;-1.340753;10.668563;-0.36391866
14:55:52:179;14:55:52:084;-1.340753;10.668563;-0.36391866
14:55:52:187;14:55:52:084;-1.340753;10.668563;-0.36391866
14:55:52:195;14:55:52:084;-1.340753;10.668563;-0.36391866
14:55:52:203;14:55:52:202;-0.7278373;9.097966;0.019153614
14:55:52:210;14:55:52:202;-0.7278373;9.097966;0.019153614
14:55:52:218;14:55:52:202;-0.7278373;9.097966;0.019153614
14:55:52:226;14:55:52:202;-0.7278373;9.097966;0.019153614
14:55:52:234;14:55:52:202;-0.7278373;9.097966;0.019153614
14:55:52:242;14:55:52:202;-0.7278373;9.097966;0.019153614
14:55:52:250;14:55:52:202;-0.7278373;9.097966;0.019153614
14:55:52:257;14:55:52:202;-0.7278373;9.097966;0.019153614
14:55:52:265;14:55:52:202;-0.7278373;9.097966;0.019153614
14:55:52:273;14:55:52:202;-0.7278373;9.097966;0.019153614
14:55:52:281;14:55:52:202;-0.7278373;9.097966;0.019153614
14:55:52:289;14:55:52:202;-0.7278373;9.097966;0.019153614
14:55:52:296;14:55:52:202;-0.7278373;9.097966;0.019153614
14:55:52:304;14:55:52:202;-0.7278373;9.097966;0.019153614
14:55:52:312;14:55:52:307;-1.2258313;9.423578;-0.17238252
14:55:52:320;14:55:52:307;-1.2258313;9.423578;-0.17238252
14:55:52:328;14:55:52:307;-1.2258313;9.423578;-0.17238252
14:55:52:335;14:55:52:307;-1.2258313;9.423578;-0.17238252
14:55:52:343;14:55:52:307;-1.2258313;9.423578;-0.17238252
14:55:52:351;14:55:52:307;-1.2258313;9.423578;-0.17238252
14:55:52:359;14:55:52:307;-1.2258313;9.423578;-0.17238252
14:55:52:367;14:55:52:307;-1.2258313;9.423578;-0.17238252
14:55:52:375;14:55:52:307;-1.2258313;9.423578;-0.17238252
14:55:52:382;14:55:52:307;-1.2258313;9.423578;-0.17238252
14:55:52:390;14:55:52:307;-1.2258313;9.423578;-0.17238252
14:55:52:398;14:55:52:307;-1.2258313;9.423578;-0.17238252
14:55:52:406;14:55:52:307;-1.2258313;9.423578;-0.17238252
14:55:52:414;14:55:52:307;-1.2258313;9.423578;-0.17238252
14:55:52:421;14:55:52:419;-0.51714754;9.212888;-0.7469909
14:55:52:429;14:55:52:419;-0.51714754;9.212888;-0.7469909
14:55:52:437;14:55:52:419;-0.51714754;9.212888;-0.7469909
14:55:52:445;14:55:52:419;-0.51714754;9.212888;-0.7469909
14:55:52:453;14:55:52:419;-0.51714754;9.212888;-0.7469909
14:55:52:460;14:55:52:419;-0.51714754;9.212888;-0.7469909
14:55:52:468;14:55:52:419;-0.51714754;9.212888;-0.7469909
14:55:52:476;14:55:52:419;-0.51714754;9.212888;-0.7469909
14:55:52:484;14:55:52:419;-0.51714754;9.212888;-0.7469909
14:55:52:492;14:55:52:419;-0.51714754;9.212888;-0.7469909
14:55:52:500;14:55:52:419;-0.51714754;9.212888;-0.7469909
14:55:52:507;14:55:52:419;-0.51714754;9.212888;-0.7469909
14:55:52:515;14:55:52:419;-0.51714754;9.212888;-0.7469909
14:55:52:523;14:55:52:521;-0.2681506;9.461885;-0.51714754
14:55:52:531;14:55:52:521;-0.2681506;9.461885;-0.51714754
14:55:52:539;14:55:52:521;-0.2681506;9.461885;-0.51714754
14:55:52:546;14:55:52:521;-0.2681506;9.461885;-0.51714754
14:55:52:554;14:55:52:521;-0.2681506;9.461885;-0.51714754
14:55:52:562;14:55:52:521;-0.2681506;9.461885;-0.51714754
14:55:52:570;14:55:52:521;-0.2681506;9.461885;-0.51714754
14:55:52:578;14:55:52:521;-0.2681506;9.461885;-0.51714754
14:55:52:585;14:55:52:521;-0.2681506;9.461885;-0.51714754
14:55:52:593;14:55:52:521;-0.2681506;9.461885;-0.51714754
14:55:52:601;14:55:52:521;-0.2681506;9.461885;-0.51714754
14:55:52:609;14:55:52:521;-0.2681506;9.461885;-0.51714754
14:55:52:617;14:55:52:521;-0.2681506;9.461885;-0.51714754
14:55:52:625;14:55:52:521;-0.2681506;9.461885;-0.51714754
14:55:52:632;14:55:52:629;-0.9576807;10.879252;-0.5554548
14:55:52:640;14:55:52:629;-0.9576807;10.879252;-0.5554548
14:55:52:648;14:55:52:629;-0.9576807;10.879252;-0.5554548
14:55:52:656;14:55:52:629;-0.9576807;10.879252;-0.5554548
14:55:52:664;14:55:52:629;-0.9576807;10.879252;-0.5554548
14:55:52:671;14:55:52:629;-0.9576807;10.879252;-0.5554548
14:55:52:679;14:55:52:629;-0.9576807;10.879252;-0.5554548
14:55:52:687;14:55:52:629;-0.9576807;10.879252;-0.5554548
14:55:52:695;14:55:52:629;-0.9576807;10.879252;-0.5554548
14:55:52:703;14:55:52:629;-0.9576807;10.879252;-0.5554548
14:55:52:710;14:55:52:629;-0.9576807;10.879252;-0.5554548
14:55:52:718;14:55:52:629;-0.9576807;10.879252;-0.5554548
14:55:52:726;14:55:52:629;-0.9576807;10.879252;-0.5554548
14:55:52:734;14:55:52:629;-0.9576807;10.879252;-0.5554548
14:55:52:742;14:55:52:629;-0.9576807;10.879252;-0.5554548
14:55:52:750;14:55:52:747;-0.51714754;9.730036;0.47884035
14:55:52:757;14:55:52:747;-0.51714754;9.730036;0.47884035
14:55:52:765;14:55:52:747;-0.51714754;9.730036;0.47884035
14:55:52:773;14:55:52:747;-0.51714754;9.730036;0.47884035
14:55:52:781;14:55:52:747;-0.51714754;9.730036;0.47884035
14:55:52:789;14:55:52:747;-0.51714754;9.730036;0.47884035
14:55:52:796;14:55:52:747;-0.51714754;9.730036;0.47884035
14:55:52:804;14:55:52:747;-0.51714754;9.730036;0.47884035
14:55:52:812;14:55:52:747;-0.51714754;9.730036;0.47884035
14:55:52:820;14:55:52:747;-0.51714754;9.730036;0.47884035
14:55:52:828;14:55:52:747;-0.51714754;9.730036;0.47884035
14:55:52:835;14:55:52:747;-0.51714754;9.730036;0.47884035
14:55:52:843;14:55:52:747;-0.51714754;9.730036;0.47884035
14:55:52:851;14:55:52:747;-0.51714754;9.730036;0.47884035
14:55:52:859;14:55:52:747;-0.51714754;9.730036;0.47884035
14:55:52:867;14:55:52:864;-0.17238252;10.189722;-0.5363012
14:55:52:875;14:55:52:864;-0.17238252;10.189722;-0.5363012
14:55:52:882;14:55:52:864;-0.17238252;10.189722;-0.5363012
14:55:52:890;14:55:52:864;-0.17238252;10.189722;-0.5363012
14:55:52:898;14:55:52:864;-0.17238252;10.189722;-0.5363012
14:55:52:906;14:55:52:864;-0.17238252;10.189722;-0.5363012
14:55:52:914;14:55:52:864;-0.17238252;10.189722;-0.5363012
14:55:52:921;14:55:52:864;-0.17238252;10.189722;-0.5363012
14:55:52:929;14:55:52:864;-0.17238252;10.189722;-0.5363012
14:55:52:937;14:55:52:864;-0.17238252;10.189722;-0.5363012
14:55:52:945;14:55:52:864;-0.17238252;10.189722;-0.5363012
14:55:52:953;14:55:52:864;-0.17238252;10.189722;-0.5363012
14:55:52:960;14:55:52:864;-0.17238252;10.189722;-0.5363012
14:55:52:968;14:55:52:864;-0.17238252;10.189722;-0.5363012
14:55:52:976;14:55:52:864;-0.17238252;10.189722;-0.5363012
14:55:52:984;14:55:52:982;-0.1340753;10.247183;-0.7086837
14:55:52:992;14:55:52:982;-0.1340753;10.247183;-0.7086837
14:55:53:000;14:55:52:982;-0.1340753;10.247183;-0.7086837
14:55:53:007;14:55:52:982;-0.1340753;10.247183;-0.7086837
14:55:53:015;14:55:52:982;-0.1340753;10.247183;-0.7086837
14:55:53:023;14:55:52:982;-0.1340753;10.247183;-0.7086837
14:55:53:031;14:55:52:982;-0.1340753;10.247183;-0.7086837
14:55:53:039;14:55:52:982;-0.1340753;10.247183;-0.7086837
14:55:53:046;14:55:52:982;-0.1340753;10.247183;-0.7086837
14:55:53:054;14:55:52:982;-0.1340753;10.247183;-0.7086837
14:55:53:062;14:55:52:982;-0.1340753;10.247183;-0.7086837
14:55:53:070;14:55:52:982;-0.1340753;10.247183;-0.7086837
14:55:53:078;14:55:52:982;-0.1340753;10.247183;-0.7086837
14:55:53:085;14:55:52:982;-0.1340753;10.247183;-0.7086837
14:55:53:093;14:55:52:982;-0.1340753;10.247183;-0.7086837
14:55:53:101;14:55:53:100;0.38307226;10.70687;-0.63206923
14:55:53:109;14:55:53:100;0.38307226;10.70687;-0.63206923
14:55:53:117;14:55:53:100;0.38307226;10.70687;-0.63206923
14:55:53:125;14:55:53:100;0.38307226;10.70687;-0.63206923
14:55:53:132;14:55:53:100;0.38307226;10.70687;-0.63206923
14:55:53:140;14:55:53:100;0.38307226;10.70687;-0.63206923
14:55:53:148;14:55:53:100;0.38307226;10.70687;-0.63206923
14:55:53:156;14:55:53:100;0.38307226;10.70687;-0.63206923
14:55:53:164;14:55:53:100;0.38307226;10.70687;-0.63206923
14:55:53:171;14:55:53:100;0.38307226;10.70687;-0.63206923
14:55:53:179;14:55:53:100;0.38307226;10.70687;-0.63206923
14:55:53:187;14:55:53:100;0.38307226;10.70687;-0.63206923
14:55:53:195;14:55:53:100;0.38307226;10.70687;-0.63206923
14:55:53:203;14:55:53:100;0.38307226;10.70687;-0.63206923
14:55:53:210;14:55:53:100;0.38307226;10.70687;-0.63206923
14:55:53:218;14:55:53:218;0.17238252;9.002198;-0.7469909
14:55:53:226;14:55:53:218;0.17238252;9.002198;-0.7469909
14:55:53:234;14:55:53:218;0.17238252;9.002198;-0.7469909
14:55:53:242;14:55:53:218;0.17238252;9.002198;-0.7469909
14:55:53:250;14:55:53:218;0.17238252;9.002198;-0.7469909
14:55:53:257;14:55:53:218;0.17238252;9.002198;-0.7469909
14:55:53:265;14:55:53:218;0.17238252;9.002198;-0.7469909
14:55:53:273;14:55:53:218;0.17238252;9.002198;-0.7469909
14:55:53:281;14:55:53:218;0.17238252;9.002198;-0.7469909
14:55:53:289;14:55:53:218;0.17238252;9.002198;-0.7469909
14:55:53:296;14:55:53:218;0.17238252;9.002198;-0.7469909
14:55:53:304;14:55:53:218;0.17238252;9.002198;-0.7469909
14:55:53:312;14:55:53:218;0.17238252;9.002198;-0.7469909
14:55:53:320;14:55:53:319;0.5363012;9.557653;-0.90021986
14:55:53:328;14:55:53:319;0.5363012;9.557653;-0.90021986
14:55:53:335;14:55:53:319;0.5363012;9.557653;-0.90021986
14:55:53:343;14:55:53:319;0.5363012;9.557653;-0.90021986
14:55:53:351;14:55:53:319;0.5363012;9.557653;-0.90021986
14:55:53:359;14:55:53:319;0.5363012;9.557653;-0.90021986
14:55:53:367;14:55:53:319;0.5363012;9.557653;-0.90021986
14:55:53:375;14:55:53:319;0.5363012;9.557653;-0.90021986
14:55:53:382;14:55:53:319;0.5363012;9.557653;-0.90021986
14:55:53:390;14:55:53:319;0.5363012;9.557653;-0.90021986
14:55:53:398;14:55:53:319;0.5363012;9.557653;-0.90021986
14:55:53:406;14:55:53:319;0.5363012;9.557653;-0.90021986
14:55:53:414;14:55:53:319;0.5363012;9.557653;-0.90021986
14:55:53:421;14:55:53:319;0.5363012;9.557653;-0.90021986
14:55:53:429;14:55:53:423;0.24899697;9.500193;-0.7469909
14:55:53:437;14:55:53:423;0.24899697;9.500193;-0.7469909
14:55:53:445;14:55:53:423;0.24899697;9.500193;-0.7469909
14:55:53:453;14:55:53:423;0.24899697;9.500193;-0.7469909
14:55:53:460;14:55:53:423;0.24899697;9.500193;-0.7469909
14:55:53:468;14:55:53:423;0.24899697;9.500193;-0.7469909
14:55:53:476;14:55:53:423;0.24899697;9.500193;-0.7469909
14:55:53:484;14:55:53:423;0.24899697;9.500193;-0.7469909
14:55:53:492;14:55:53:423;0.24899697;9.500193;-0.7469909
14:55:53:500;14:55:53:423;0.24899697;9.500193;-0.7469909
14:55:53:507;14:55:53:423;0.24899697;9.500193;-0.7469909
14:55:53:515;14:55:53:423;0.24899697;9.500193;-0.7469909
14:55:53:523;14:55:53:423;0.24899697;9.500193;-0.7469909
14:55:53:531;14:55:53:423;0.24899697;9.500193;-0.7469909
14:55:53:539;14:55:53:539;0.19153613;10.151415;-0.8619126
14:55:53:546;14:55:53:539;0.19153613;10.151415;-0.8619126
14:55:53:554;14:55:53:539;0.19153613;10.151415;-0.8619126
14:55:53:562;14:55:53:539;0.19153613;10.151415;-0.8619126
14:55:53:570;14:55:53:539;0.19153613;10.151415;-0.8619126
14:55:53:578;14:55:53:539;0.19153613;10.151415;-0.8619126
14:55:53:585;14:55:53:539;0.19153613;10.151415;-0.8619126
14:55:53:593;14:55:53:539;0.19153613;10.151415;-0.8619126
14:55:53:601;14:55:53:539;0.19153613;10.151415;-0.8619126
14:55:53:609;14:55:53:539;0.19153613;10.151415;-0.8619126
14:55:53:617;14:55:53:539;0.19153613;10.151415;-0.8619126
14:55:53:625;14:55:53:539;0.19153613;10.151415;-0.8619126
14:55:53:632;14:55:53:539;0.19153613;10.151415;-0.8619126
14:55:53:640;14:55:53:539;0.19153613;10.151415;-0.8619126
14:55:53:648;14:55:53:539;0.19153613;10.151415;-0.8619126
14:55:53:656;14:55:53:539;0.19153613;10.151415;-0.8619126
14:55:53:664;14:55:53:657;0.59376204;9.615114;-0.7469909
14:55:53:671;14:55:53:657;0.59376204;9.615114;-0.7469909
14:55:53:679;14:55:53:657;0.59376204;9.615114;-0.7469909
14:55:53:687;14:55:53:657;0.59376204;9.615114;-0.7469909
14:55:53:695;14:55:53:657;0.59376204;9.615114;-0.7469909
14:55:53:703;14:55:53:657;0.59376204;9.615114;-0.7469909
14:55:53:710;14:55:53:657;0.59376204;9.615114;-0.7469909
14:55:53:718;14:55:53:657;0.59376204;9.615114;-0.7469909
14:55:53:726;14:55:53:657;0.59376204;9.615114;-0.7469909
14:55:53:734;14:55:53:657;0.59376204;9.615114;-0.7469909
14:55:53:742;14:55:53:657;0.59376204;9.615114;-0.7469909
14:55:53:750;14:55:53:657;0.59376204;9.615114;-0.7469909
14:55:53:757;14:55:53:657;0.59376204;9.615114;-0.7469909
14:55:53:765;14:55:53:657;0.59376204;9.615114;-0.7469909
14:55:53:773;14:55:53:657;0.59376204;9.615114;-0.7469909
14:55:53:781;14:55:53:777;0.05746084;10.266336;-1.0151415
14:55:53:789;14:55:53:777;0.05746084;10.266336;-1.0151415
14:55:53:796;14:55:53:777;0.05746084;10.266336;-1.0151415
14:55:53:804;14:55:53:777;0.05746084;10.266336;-1.0151415
14:55:53:812;14:55:53:777;0.05746084;10.266336;-1.0151415
14:55:53:820;14:55:53:777;0.05746084;10.266336;-1.0151415
14:55:53:828;14:55:53:777;0.05746084;10.266336;-1.0151415
14:55:53:835;14:55:53:777;0.05746084;10.266336;-1.0151415
14:55:53:843;14:55:53:777;0.05746084;10.266336;-1.0151415
14:55:53:851;14:55:53:777;0.05746084;10.266336;-1.0151415
14:55:53:859;14:55:53:777;0.05746084;10.266336;-1.0151415
14:55:53:867;14:55:53:777;0.05746084;10.266336;-1.0151415
14:55:53:875;14:55:53:777;0.05746084;10.266336;-1.0151415
14:55:53:882;14:55:53:878;0.34476504;9.825804;-0.7278373
14:55:53:890;14:55:53:878;0.34476504;9.825804;-0.7278373
14:55:53:898;14:55:53:878;0.34476504;9.825804;-0.7278373
14:55:53:906;14:55:53:878;0.34476504;9.825804;-0.7278373
14:55:53:914;14:55:53:878;0.34476504;9.825804;-0.7278373
14:55:53:921;14:55:53:878;0.34476504;9.825804;-0.7278373
14:55:53:929;14:55:53:878;0.34476504;9.825804;-0.7278373
14:55:53:937;14:55:53:878;0.34476504;9.825804;-0.7278373
14:55:53:945;14:55:53:878;0.34476504;9.825804;-0.7278373
14:55:53:953;14:55:53:878;0.34476504;9.825804;-0.7278373
14:55:53:960;14:55:53:878;0.34476504;9.825804;-0.7278373
14:55:53:968;14:55:53:878;0.34476504;9.825804;-0.7278373
14:55:53:976;14:55:53:878;0.34476504;9.825804;-0.7278373
14:55:53:984;14:55:53:878;0.34476504;9.825804;-0.7278373
14:55:53:992;14:55:53:878;0.34476504;9.825804;-0.7278373
14:55:54:000;14:55:53:996;0.40222588;10.323798;-0.9576807
14:55:54:007;14:55:53:996;0.40222588;10.323798;-0.9576807
14:55:54:015;14:55:53:996;0.40222588;10.323798;-0.9576807
14:55:54:023;14:55:53:996;0.40222588;10.323798;-0.9576807
14:55:54:031;14:55:53:996;0.40222588;10.323798;-0.9576807
14:55:54:039;14:55:53:996;0.40222588;10.323798;-0.9576807
14:55:54:046;14:55:53:996;0.40222588;10.323798;-0.9576807
14:55:54:054;14:55:53:996;0.40222588;10.323798;-0.9576807
14:55:54:062;14:55:53:996;0.40222588;10.323798;-0.9576807
14:55:54:070;14:55:53:996;0.40222588;10.323798;-0.9576807
14:55:54:078;14:55:53:996;0.40222588;10.323798;-0.9576807
14:55:54:085;14:55:53:996;0.40222588;10.323798;-0.9576807
14:55:54:093;14:55:53:996;0.40222588;10.323798;-0.9576807
14:55:54:101;14:55:53:996;0.40222588;10.323798;-0.9576807
14:55:54:109;14:55:53:996;0.40222588;10.323798;-0.9576807
14:55:54:117;14:55:54:112;-0.11492168;9.998186;-0.82360536
14:55:54:125;14:55:54:112;-0.11492168;9.998186;-0.82360536
14:55:54:132;14:55:54:112;-0.11492168;9.998186;-0.82360536
14:55:54:140;14:55:54:112;-0.11492168;9.998186;-0.82360536
14:55:54:148;14:55:54:112;-0.11492168;9.998186;-0.82360536
14:55:54:156;14:55:54:112;-0.11492168;9.998186;-0.82360536
14:55:54:164;14:55:54:112;-0.11492168;9.998186;-0.82360536
14:55:54:171;14:55:54:112;-0.11492168;9.998186;-0.82360536
14:55:54:179;14:55:54:112;-0.11492168;9.998186;-0.82360536
14:55:54:187;14:55:54:112;-0.11492168;9.998186;-0.82360536
14:55:54:195;14:55:54:112;-0.11492168;9.998186;-0.82360536
14:55:54:203;14:55:54:112;-0.11492168;9.998186;-0.82360536
14:55:54:210;14:55:54:112;-0.11492168;9.998186;-0.82360536
14:55:54:218;14:55:54:213;0.49799395;9.021352;-1.0342951
14:55:54:226;14:55:54:213;0.49799395;9.021352;-1.0342951
14:55:54:234;14:55:54:213;0.49799395;9.021352;-1.0342951
14:55:54:242;14:55:54:213;0.49799395;9.021352;-1.0342951
14:55:54:250;14:55:54:213;0.49799395;9.021352;-1.0342951
14:55:54:257;14:55:54:213;0.49799395;9.021352;-1.0342951
14:55:54:265;14:55:54:213;0.49799395;9.021352;-1.0342951
14:55:54:273;14:55:54:213;0.49799395;9.021352;-1.0342951
14:55:54:281;14:55:54:213;0.49799395;9.021352;-1.0342951
14:55:54:289;14:55:54:213;0.49799395;9.021352;-1.0342951
14:55:54:296;14:55:54:213;0.49799395;9.021352;-1.0342951
14:55:54:304;14:55:54:213;0.49799395;9.021352;-1.0342951
14:55:54:312;14:55:54:213;0.49799395;9.021352;-1.0342951
14:55:54:320;14:55:54:317;0.93852705;9.481039;-0.9768343
14:55:54:328;14:55:54:317;0.93852705;9.481039;-0.9768343
14:55:54:335;14:55:54:317;0.93852705;9.481039;-0.9768343
14:55:54:343;14:55:54:317;0.93852705;9.481039;-0.9768343
14:55:54:351;14:55:54:317;0.93852705;9.481039;-0.9768343
14:55:54:359;14:55:54:317;0.93852705;9.481039;-0.9768343
14:55:54:367;14:55:54:317;0.93852705;9.481039;-0.9768343
14:55:54:375;14:55:54:317;0.93852705;9.481039;-0.9768343
14:55:54:382;14:55:54:317;0.93852705;9.481039;-0.9768343
14:55:54:390;14:55:54:317;0.93852705;9.481039;-0.9768343
14:55:54:398;14:55:54:317;0.93852705;9.481039;-0.9768343
14:55:54:406;14:55:54:317;0.93852705;9.481039;-0.9768343
14:55:54:414;14:55:54:317;0.93852705;9.481039;-0.9768343
14:55:54:421;14:55:54:317;0.93852705;9.481039;-0.9768343
14:55:54:429;14:55:54:317;0.93852705;9.481039;-0.9768343
14:55:54:437;14:55:54:436;0.2681506;10.0748005;-0.82360536
14:55:54:445;14:55:54:436;0.2681506;10.0748005;-0.82360536
14:55:54:453;14:55:54:436;0.2681506;10.0748005;-0.82360536
14:55:54:460;14:55:54:436;0.2681506;10.0748005;-0.82360536
14:55:54:468;14:55:54:436;0.2681506;10.0748005;-0.82360536
14:55:54:476;14:55:54:436;0.2681506;10.0748005;-0.82360536
14:55:54:484;14:55:54:436;0.2681506;10.0748005;-0.82360536
14:55:54:492;14:55:54:436;0.2681506;10.0748005;-0.82360536
14:55:54:500;14:55:54:436;0.2681506;10.0748005;-0.82360536
14:55:54:507;14:55:54:436;0.2681506;10.0748005;-0.82360536
14:55:54:515;14:55:54:436;0.2681506;10.0748005;-0.82360536
14:55:54:523;14:55:54:436;0.2681506;10.0748005;-0.82360536
14:55:54:531;14:55:54:436;0.2681506;10.0748005;-0.82360536
14:55:54:539;14:55:54:538;0.30645782;9.902418;-0.93852705
14:55:54:546;14:55:54:538;0.30645782;9.902418;-0.93852705
14:55:54:554;14:55:54:538;0.30645782;9.902418;-0.93852705
14:55:54:562;14:55:54:538;0.30645782;9.902418;-0.93852705
14:55:54:570;14:55:54:538;0.30645782;9.902418;-0.93852705
14:55:54:578;14:55:54:538;0.30645782;9.902418;-0.93852705
14:55:54:585;14:55:54:538;0.30645782;9.902418;-0.93852705
14:55:54:593;14:55:54:538;0.30645782;9.902418;-0.93852705
14:55:54:601;14:55:54:538;0.30645782;9.902418;-0.93852705
14:55:54:609;14:55:54:538;0.30645782;9.902418;-0.93852705
14:55:54:617;14:55:54:538;0.30645782;9.902418;-0.93852705
14:55:54:625;14:55:54:538;0.30645782;9.902418;-0.93852705
14:55:54:632;14:55:54:538;0.30645782;9.902418;-0.93852705
14:55:54:640;14:55:54:538;0.30645782;9.902418;-0.93852705
14:55:54:648;14:55:54:641;0.30645782;9.519346;-0.5363012
14:55:54:656;14:55:54:641;0.30645782;9.519346;-0.5363012
14:55:54:664;14:55:54:641;0.30645782;9.519346;-0.5363012
14:55:54:671;14:55:54:641;0.30645782;9.519346;-0.5363012
14:55:54:679;14:55:54:641;0.30645782;9.519346;-0.5363012
14:55:54:687;14:55:54:641;0.30645782;9.519346;-0.5363012
14:55:54:695;14:55:54:641;0.30645782;9.519346;-0.5363012
14:55:54:703;14:55:54:641;0.30645782;9.519346;-0.5363012
14:55:54:710;14:55:54:641;0.30645782;9.519346;-0.5363012
14:55:54:718;14:55:54:641;0.30645782;9.519346;-0.5363012
14:55:54:726;14:55:54:641;0.30645782;9.519346;-0.5363012
14:55:54:734;14:55:54:641;0.30645782;9.519346;-0.5363012
14:55:54:742;14:55:54:641;0.30645782;9.519346;-0.5363012
14:55:54:750;14:55:54:641;0.30645782;9.519346;-0.5363012
14:55:54:757;14:55:54:641;0.30645782;9.519346;-0.5363012
14:55:54:765;14:55:54:641;0.30645782;9.519346;-0.5363012
14:55:54:773;14:55:54:770;-0.22984336;10.247183;-0.82360536
14:55:54:781;14:55:54:770;-0.22984336;10.247183;-0.82360536
14:55:54:789;14:55:54:770;-0.22984336;10.247183;-0.82360536
14:55:54:796;14:55:54:770;-0.22984336;10.247183;-0.82360536
14:55:54:804;14:55:54:770;-0.22984336;10.247183;-0.82360536
14:55:54:812;14:55:54:770;-0.22984336;10.247183;-0.82360536
14:55:54:820;14:55:54:770;-0.22984336;10.247183;-0.82360536
14:55:54:828;14:55:54:770;-0.22984336;10.247183;-0.82360536
14:55:54:835;14:55:54:770;-0.22984336;10.247183;-0.82360536
14:55:54:843;14:55:54:770;-0.22984336;10.247183;-0.82360536
14:55:54:851;14:55:54:770;-0.22984336;10.247183;-0.82360536
14:55:54:859;14:55:54:770;-0.22984336;10.247183;-0.82360536
14:55:54:867;14:55:54:770;-0.22984336;10.247183;-0.82360536
14:55:54:875;14:55:54:770;-0.22984336;10.247183;-0.82360536
14:55:54:882;14:55:54:876;0.15322891;9.615114;-0.5746084
14:55:54:890;14:55:54:876;0.15322891;9.615114;-0.5746084
14:55:54:898;14:55:54:876;0.15322891;9.615114;-0.5746084
14:55:54:906;14:55:54:876;0.15322891;9.615114;-0.5746084
14:55:54:914;14:55:54:876;0.15322891;9.615114;-0.5746084
14:55:54:921;14:55:54:876;0.15322891;9.615114;-0.5746084
14:55:54:929;14:55:54:876;0.15322891;9.615114;-0.5746084
14:55:54:937;14:55:54:876;0.15322891;9.615114;-0.5746084
14:55:54:945;14:55:54:876;0.15322891;9.615114;-0.5746084
14:55:54:953;14:55:54:876;0.15322891;9.615114;-0.5746084
14:55:54:960;14:55:54:876;0.15322891;9.615114;-0.5746084
14:55:54:968;14:55:54:876;0.15322891;9.615114;-0.5746084
14:55:54:976;14:55:54:876;0.15322891;9.615114;-0.5746084
14:55:54:984;14:55:54:876;0.15322891;9.615114;-0.5746084
14:55:54:992;14:55:54:876;0.15322891;9.615114;-0.5746084
14:55:55:000;14:55:54:997;-0.19153613;9.710882;-0.6703765
14:55:55:007;14:55:54:997;-0.19153613;9.710882;-0.6703765
14:55:55:015;14:55:54:997;-0.19153613;9.710882;-0.6703765
14:55:55:023;14:55:54:997;-0.19153613;9.710882;-0.6703765
14:55:55:031;14:55:54:997;-0.19153613;9.710882;-0.6703765
14:55:55:039;14:55:54:997;-0.19153613;9.710882;-0.6703765
14:55:55:046;14:55:54:997;-0.19153613;9.710882;-0.6703765
14:55:55:054;14:55:54:997;-0.19153613;9.710882;-0.6703765
14:55:55:062;14:55:54:997;-0.19153613;9.710882;-0.6703765
14:55:55:070;14:55:54:997;-0.19153613;9.710882;-0.6703765
14:55:55:078;14:55:54:997;-0.19153613;9.710882;-0.6703765
14:55:55:085;14:55:54:997;-0.19153613;9.710882;-0.6703765
14:55:55:093;14:55:54:997;-0.19153613;9.710882;-0.6703765
14:55:55:101;14:55:54:997;-0.19153613;9.710882;-0.6703765
14:55:55:109;14:55:54:997;-0.19153613;9.710882;-0.6703765
14:55:55:117;14:55:55:111;0.5363012;10.553641;-1.0342951
14:55:55:125;14:55:55:111;0.5363012;10.553641;-1.0342951
14:55:55:132;14:55:55:111;0.5363012;10.553641;-1.0342951
14:55:55:140;14:55:55:111;0.5363012;10.553641;-1.0342951
14:55:55:148;14:55:55:111;0.5363012;10.553641;-1.0342951
14:55:55:156;14:55:55:111;0.5363012;10.553641;-1.0342951
14:55:55:164;14:55:55:111;0.5363012;10.553641;-1.0342951
14:55:55:171;14:55:55:111;0.5363012;10.553641;-1.0342951
14:55:55:179;14:55:55:111;0.5363012;10.553641;-1.0342951
14:55:55:187;14:55:55:111;0.5363012;10.553641;-1.0342951
14:55:55:195;14:55:55:111;0.5363012;10.553641;-1.0342951
14:55:55:203;14:55:55:111;0.5363012;10.553641;-1.0342951
14:55:55:210;14:55:55:111;0.5363012;10.553641;-1.0342951
14:55:55:218;14:55:55:216;0.2873042;10.400413;-0.5363012
14:55:55:226;14:55:55:216;0.2873042;10.400413;-0.5363012
14:55:55:234;14:55:55:216;0.2873042;10.400413;-0.5363012
14:55:55:242;14:55:55:216;0.2873042;10.400413;-0.5363012
14:55:55:250;14:55:55:216;0.2873042;10.400413;-0.5363012
14:55:55:257;14:55:55:216;0.2873042;10.400413;-0.5363012
14:55:55:265;14:55:55:216;0.2873042;10.400413;-0.5363012
14:55:55:273;14:55:55:216;0.2873042;10.400413;-0.5363012
14:55:55:281;14:55:55:216;0.2873042;10.400413;-0.5363012
14:55:55:289;14:55:55:216;0.2873042;10.400413;-0.5363012
14:55:55:296;14:55:55:216;0.2873042;10.400413;-0.5363012
14:55:55:304;14:55:55:216;0.2873042;10.400413;-0.5363012
14:55:55:312;14:55:55:216;0.2873042;10.400413;-0.5363012
14:55:55:320;14:55:55:318;-0.076614454;10.381259;-1.0151415
14:55:55:328;14:55:55:318;-0.076614454;10.381259;-1.0151415
14:55:55:335;14:55:55:318;-0.076614454;10.381259;-1.0151415
14:55:55:343;14:55:55:318;-0.076614454;10.381259;-1.0151415
14:55:55:351;14:55:55:318;-0.076614454;10.381259;-1.0151415
14:55:55:359;14:55:55:318;-0.076614454;10.381259;-1.0151415
14:55:55:367;14:55:55:318;-0.076614454;10.381259;-1.0151415
14:55:55:375;14:55:55:318;-0.076614454;10.381259;-1.0151415
14:55:55:382;14:55:55:318;-0.076614454;10.381259;-1.0151415
14:55:55:390;14:55:55:318;-0.076614454;10.381259;-1.0151415
14:55:55:398;14:55:55:318;-0.076614454;10.381259;-1.0151415
14:55:55:406;14:55:55:318;-0.076614454;10.381259;-1.0151415
14:55:55:414;14:55:55:318;-0.076614454;10.381259;-1.0151415
14:55:55:421;14:55:55:318;-0.076614454;10.381259;-1.0151415
14:55:55:429;14:55:55:425;-0.22984336;10.515334;-0.8810662
14:55:55:437;14:55:55:425;-0.22984336;10.515334;-0.8810662
14:55:55:445;14:55:55:425;-0.22984336;10.515334;-0.8810662
14:55:55:453;14:55:55:425;-0.22984336;10.515334;-0.8810662
14:55:55:460;14:55:55:425;-0.22984336;10.515334;-0.8810662
14:55:55:468;14:55:55:425;-0.22984336;10.515334;-0.8810662
14:55:55:476;14:55:55:425;-0.22984336;10.515334;-0.8810662
14:55:55:484;14:55:55:425;-0.22984336;10.515334;-0.8810662
14:55:55:492;14:55:55:425;-0.22984336;10.515334;-0.8810662
14:55:55:500;14:55:55:425;-0.22984336;10.515334;-0.8810662
14:55:55:507;14:55:55:425;-0.22984336;10.515334;-0.8810662
14:55:55:515;14:55:55:425;-0.22984336;10.515334;-0.8810662
14:55:55:523;14:55:55:425;-0.22984336;10.515334;-0.8810662
14:55:55:531;14:55:55:425;-0.22984336;10.515334;-0.8810662
14:55:55:539;14:55:55:425;-0.22984336;10.515334;-0.8810662
14:55:55:546;14:55:55:425;-0.22984336;10.515334;-0.8810662
14:55:55:554;14:55:55:425;-0.22984336;10.515334;-0.8810662
14:55:55:562;14:55:55:425;-0.22984336;10.515334;-0.8810662
14:55:55:570;14:55:55:425;-0.22984336;10.515334;-0.8810662
14:55:55:578;14:55:55:425;-0.22984336;10.515334;-0.8810662
14:55:55:585;14:55:55:579;-0.076614454;10.362105;-0.40222588
14:55:55:593;14:55:55:579;-0.076614454;10.362105;-0.40222588
14:55:55:601;14:55:55:579;-0.076614454;10.362105;-0.40222588
14:55:55:609;14:55:55:579;-0.076614454;10.362105;-0.40222588
14:55:55:617;14:55:55:579;-0.076614454;10.362105;-0.40222588
14:55:55:625;14:55:55:579;-0.076614454;10.362105;-0.40222588
14:55:55:632;14:55:55:579;-0.076614454;10.362105;-0.40222588
14:55:55:640;14:55:55:579;-0.076614454;10.362105;-0.40222588
14:55:55:648;14:55:55:579;-0.076614454;10.362105;-0.40222588
14:55:55:656;14:55:55:579;-0.076614454;10.362105;-0.40222588
14:55:55:664;14:55:55:579;-0.076614454;10.362105;-0.40222588
14:55:55:671;14:55:55:579;-0.076614454;10.362105;-0.40222588
14:55:55:679;14:55:55:579;-0.076614454;10.362105;-0.40222588
14:55:55:687;14:55:55:579;-0.076614454;10.362105;-0.40222588
14:55:55:695;14:55:55:690;0.05746084;10.228029;-0.49799395
14:55:55:703;14:55:55:690;0.05746084;10.228029;-0.49799395
14:55:55:710;14:55:55:690;0.05746084;10.228029;-0.49799395
14:55:55:718;14:55:55:690;0.05746084;10.228029;-0.49799395
14:55:55:726;14:55:55:690;0.05746084;10.228029;-0.49799395
14:55:55:734;14:55:55:690;0.05746084;10.228029;-0.49799395
14:55:55:742;14:55:55:690;0.05746084;10.228029;-0.49799395
14:55:55:750;14:55:55:690;0.05746084;10.228029;-0.49799395
14:55:55:757;14:55:55:690;0.05746084;10.228029;-0.49799395
14:55:55:765;14:55:55:690;0.05746084;10.228029;-0.49799395
14:55:55:773;14:55:55:690;0.05746084;10.228029;-0.49799395
14:55:55:781;14:55:55:690;0.05746084;10.228029;-0.49799395
14:55:55:789;14:55:55:690;0.05746084;10.228029;-0.49799395
14:55:55:796;14:55:55:690;0.05746084;10.228029;-0.49799395
14:55:55:804;14:55:55:690;0.05746084;10.228029;-0.49799395
14:55:55:812;14:55:55:809;-0.2681506;9.11712;0.15322891
14:55:55:820;14:55:55:809;-0.2681506;9.11712;0.15322891
14:55:55:828;14:55:55:809;-0.2681506;9.11712;0.15322891
14:55:55:835;14:55:55:809;-0.2681506;9.11712;0.15322891
14:55:55:843;14:55:55:809;-0.2681506;9.11712;0.15322891
14:55:55:851;14:55:55:809;-0.2681506;9.11712;0.15322891
14:55:55:859;14:55:55:809;-0.2681506;9.11712;0.15322891
14:55:55:867;14:55:55:809;-0.2681506;9.11712;0.15322891
14:55:55:875;14:55:55:809;-0.2681506;9.11712;0.15322891
14:55:55:882;14:55:55:809;-0.2681506;9.11712;0.15322891
14:55:55:890;14:55:55:809;-0.2681506;9.11712;0.15322891
14:55:55:898;14:55:55:809;-0.2681506;9.11712;0.15322891
14:55:55:906;14:55:55:809;-0.2681506;9.11712;0.15322891
14:55:55:914;14:55:55:913;-0.36391866;9.423578;0.4405331
14:55:55:921;14:55:55:913;-0.36391866;9.423578;0.4405331
14:55:55:929;14:55:55:913;-0.36391866;9.423578;0.4405331
14:55:55:937;14:55:55:913;-0.36391866;9.423578;0.4405331
14:55:55:945;14:55:55:913;-0.36391866;9.423578;0.4405331
14:55:55:953;14:55:55:913;-0.36391866;9.423578;0.4405331
14:55:55:960;14:55:55:913;-0.36391866;9.423578;0.4405331
14:55:55:968;14:55:55:913;-0.36391866;9.423578;0.4405331
14:55:55:976;14:55:55:913;-0.36391866;9.423578;0.4405331
14:55:55:984;14:55:55:913;-0.36391866;9.423578;0.4405331
14:55:55:992;14:55:55:913;-0.36391866;9.423578;0.4405331
14:55:56:000;14:55:55:913;-0.36391866;9.423578;0.4405331
14:55:56:007;14:55:55:913;-0.36391866;9.423578;0.4405331
14:55:56:015;14:55:55:913;-0.36391866;9.423578;0.4405331
14:55:56:023;14:55:55:913;-0.36391866;9.423578;0.4405331
14:55:56:031;14:55:55:913;-0.36391866;9.423578;0.4405331
14:55:56:039;14:55:56:033;-0.076614454;10.879252;-0.47884035
14:55:56:046;14:55:56:033;-0.076614454;10.879252;-0.47884035
14:55:56:054;14:55:56:033;-0.076614454;10.879252;-0.47884035
14:55:56:062;14:55:56:033;-0.076614454;10.879252;-0.47884035
14:55:56:070;14:55:56:033;-0.076614454;10.879252;-0.47884035
14:55:56:078;14:55:56:033;-0.076614454;10.879252;-0.47884035
14:55:56:085;14:55:56:033;-0.076614454;10.879252;-0.47884035
14:55:56:093;14:55:56:033;-0.076614454;10.879252;-0.47884035
14:55:56:101;14:55:56:033;-0.076614454;10.879252;-0.47884035
14:55:56:109;14:55:56:033;-0.076614454;10.879252;-0.47884035
14:55:56:117;14:55:56:033;-0.076614454;10.879252;-0.47884035
14:55:56:125;14:55:56:033;-0.076614454;10.879252;-0.47884035
14:55:56:132;14:55:56:033;-0.076614454;10.879252;-0.47884035
14:55:56:140;14:55:56:033;-0.076614454;10.879252;-0.47884035
14:55:56:148;14:55:56:033;-0.076614454;10.879252;-0.47884035
14:55:56:156;14:55:56:152;0.30645782;9.519346;0.40222588
14:55:56:164;14:55:56:152;0.30645782;9.519346;0.40222588
14:55:56:171;14:55:56:152;0.30645782;9.519346;0.40222588
14:55:56:179;14:55:56:152;0.30645782;9.519346;0.40222588
14:55:56:187;14:55:56:152;0.30645782;9.519346;0.40222588
14:55:56:195;14:55:56:152;0.30645782;9.519346;0.40222588
14:55:56:203;14:55:56:152;0.30645782;9.519346;0.40222588
14:55:56:210;14:55:56:152;0.30645782;9.519346;0.40222588
14:55:56:218;14:55:56:152;0.30645782;9.519346;0.40222588
14:55:56:226;14:55:56:152;0.30645782;9.519346;0.40222588
14:55:56:234;14:55:56:152;0.30645782;9.519346;0.40222588
14:55:56:242;14:55:56:152;0.30645782;9.519346;0.40222588
14:55:56:250;14:55:56:152;0.30645782;9.519346;0.40222588
14:55:56:257;14:55:56:152;0.30645782;9.519346;0.40222588
14:55:56:265;14:55:56:260;-0.45968673;10.553641;-0.1340753
14:55:56:273;14:55:56:260;-0.45968673;10.553641;-0.1340753
14:55:56:281;14:55:56:260;-0.45968673;10.553641;-0.1340753
14:55:56:289;14:55:56:260;-0.45968673;10.553641;-0.1340753
14:55:56:296;14:55:56:260;-0.45968673;10.553641;-0.1340753
14:55:56:304;14:55:56:260;-0.45968673;10.553641;-0.1340753
14:55:56:312;14:55:56:260;-0.45968673;10.553641;-0.1340753
14:55:56:320;14:55:56:260;-0.45968673;10.553641;-0.1340753
14:55:56:328;14:55:56:260;-0.45968673;10.553641;-0.1340753
14:55:56:335;14:55:56:260;-0.45968673;10.553641;-0.1340753
14:55:56:343;14:55:56:260;-0.45968673;10.553641;-0.1340753
14:55:56:351;14:55:56:260;-0.45968673;10.553641;-0.1340753
14:55:56:359;14:55:56:260;-0.45968673;10.553641;-0.1340753
14:55:56:367;14:55:56:260;-0.45968673;10.553641;-0.1340753
14:55:56:375;14:55:56:368;-0.22984336;10.496181;0.038307227
14:55:56:382;14:55:56:368;-0.22984336;10.496181;0.038307227
14:55:56:390;14:55:56:368;-0.22984336;10.496181;0.038307227
14:55:56:398;14:55:56:368;-0.22984336;10.496181;0.038307227
14:55:56:406;14:55:56:368;-0.22984336;10.496181;0.038307227
14:55:56:414;14:55:56:368;-0.22984336;10.496181;0.038307227
14:55:56:421;14:55:56:368;-0.22984336;10.496181;0.038307227
14:55:56:429;14:55:56:368;-0.22984336;10.496181;0.038307227
14:55:56:437;14:55:56:368;-0.22984336;10.496181;0.038307227
14:55:56:445;14:55:56:368;-0.22984336;10.496181;0.038307227
14:55:56:453;14:55:56:368;-0.22984336;10.496181;0.038307227
14:55:56:460;14:55:56:368;-0.22984336;10.496181;0.038307227
14:55:56:468;14:55:56:368;-0.22984336;10.496181;0.038307227
14:55:56:476;14:55:56:470;-0.36391866;10.304645;0.30645782
14:55:56:484;14:55:56:470;-0.36391866;10.304645;0.30645782
14:55:56:492;14:55:56:470;-0.36391866;10.304645;0.30645782
14:55:56:500;14:55:56:470;-0.36391866;10.304645;0.30645782
14:55:56:507;14:55:56:470;-0.36391866;10.304645;0.30645782
14:55:56:515;14:55:56:470;-0.36391866;10.304645;0.30645782
14:55:56:523;14:55:56:470;-0.36391866;10.304645;0.30645782
14:55:56:531;14:55:56:470;-0.36391866;10.304645;0.30645782
14:55:56:539;14:55:56:470;-0.36391866;10.304645;0.30645782
14:55:56:546;14:55:56:470;-0.36391866;10.304645;0.30645782
14:55:56:554;14:55:56:470;-0.36391866;10.304645;0.30645782
14:55:56:562;14:55:56:470;-0.36391866;10.304645;0.30645782
14:55:56:570;14:55:56:470;-0.36391866;10.304645;0.30645782
14:55:56:578;14:55:56:574;-0.7086837;10.381259;0.22984336
14:55:56:585;14:55:56:574;-0.7086837;10.381259;0.22984336
14:55:56:593;14:55:56:574;-0.7086837;10.381259;0.22984336
14:55:56:601;14:55:56:574;-0.7086837;10.381259;0.22984336
14:55:56:609;14:55:56:574;-0.7086837;10.381259;0.22984336
14:55:56:617;14:55:56:574;-0.7086837;10.381259;0.22984336
14:55:56:625;14:55:56:574;-0.7086837;10.381259;0.22984336
14:55:56:632;14:55:56:574;-0.7086837;10.381259;0.22984336
14:55:56:640;14:55:56:574;-0.7086837;10.381259;0.22984336
14:55:56:648;14:55:56:574;-0.7086837;10.381259;0.22984336
14:55:56:656;14:55:56:574;-0.7086837;10.381259;0.22984336
14:55:56:664;14:55:56:574;-0.7086837;10.381259;0.22984336
14:55:56:671;14:55:56:574;-0.7086837;10.381259;0.22984336
14:55:56:679;14:55:56:574;-0.7086837;10.381259;0.22984336
14:55:56:687;14:55:56:687;-0.15322891;9.212888;0.19153613
14:55:56:695;14:55:56:687;-0.15322891;9.212888;0.19153613
14:55:56:703;14:55:56:687;-0.15322891;9.212888;0.19153613
14:55:56:710;14:55:56:687;-0.15322891;9.212888;0.19153613
14:55:56:718;14:55:56:687;-0.15322891;9.212888;0.19153613
14:55:56:726;14:55:56:687;-0.15322891;9.212888;0.19153613
14:55:56:734;14:55:56:687;-0.15322891;9.212888;0.19153613
14:55:56:742;14:55:56:687;-0.15322891;9.212888;0.19153613
14:55:56:750;14:55:56:687;-0.15322891;9.212888;0.19153613
14:55:56:757;14:55:56:687;-0.15322891;9.212888;0.19153613
14:55:56:765;14:55:56:687;-0.15322891;9.212888;0.19153613
14:55:56:773;14:55:56:687;-0.15322891;9.212888;0.19153613
14:55:56:781;14:55:56:687;-0.15322891;9.212888;0.19153613
14:55:56:789;14:55:56:687;-0.15322891;9.212888;0.19153613
14:55:56:796;14:55:56:687;-0.15322891;9.212888;0.19153613
14:55:56:804;14:55:56:803;-0.1340753;10.132261;0.019153614
14:55:56:812;14:55:56:803;-0.1340753;10.132261;0.019153614
14:55:56:820;14:55:56:803;-0.1340753;10.132261;0.019153614
14:55:56:828;14:55:56:803;-0.1340753;10.132261;0.019153614
14:55:56:835;14:55:56:803;-0.1340753;10.132261;0.019153614
14:55:56:843;14:55:56:803;-0.1340753;10.132261;0.019153614
14:55:56:851;14:55:56:803;-0.1340753;10.132261;0.019153614
14:55:56:859;14:55:56:803;-0.1340753;10.132261;0.019153614
14:55:56:867;14:55:56:803;-0.1340753;10.132261;0.019153614
14:55:56:875;14:55:56:803;-0.1340753;10.132261;0.019153614
14:55:56:882;14:55:56:803;-0.1340753;10.132261;0.019153614
14:55:56:890;14:55:56:803;-0.1340753;10.132261;0.019153614
14:55:56:898;14:55:56:803;-0.1340753;10.132261;0.019153614
14:55:56:906;14:55:56:803;-0.1340753;10.132261;0.019153614
14:55:56:914;14:55:56:803;-0.1340753;10.132261;0.019153614
14:55:56:921;14:55:56:803;-0.1340753;10.132261;0.019153614
14:55:56:929;14:55:56:923;-0.095768064;10.323798;0.32561144
14:55:56:937;14:55:56:923;-0.095768064;10.323798;0.32561144
14:55:56:945;14:55:56:923;-0.095768064;10.323798;0.32561144
14:55:56:953;14:55:56:923;-0.095768064;10.323798;0.32561144
14:55:56:960;14:55:56:923;-0.095768064;10.323798;0.32561144
14:55:56:968;14:55:56:923;-0.095768064;10.323798;0.32561144
14:55:56:976;14:55:56:923;-0.095768064;10.323798;0.32561144
14:55:56:984;14:55:56:923;-0.095768064;10.323798;0.32561144
14:55:56:992;14:55:56:923;-0.095768064;10.323798;0.32561144
14:55:57:000;14:55:56:923;-0.095768064;10.323798;0.32561144
14:55:57:007;14:55:56:923;-0.095768064;10.323798;0.32561144
14:55:57:015;14:55:56:923;-0.095768064;10.323798;0.32561144
14:55:57:023;14:55:56:923;-0.095768064;10.323798;0.32561144
14:55:57:031;14:55:57:026;-0.6703765;10.189722;0.30645782
14:55:57:039;14:55:57:026;-0.6703765;10.189722;0.30645782
14:55:57:046;14:55:57:026;-0.6703765;10.189722;0.30645782
14:55:57:054;14:55:57:026;-0.6703765;10.189722;0.30645782
14:55:57:062;14:55:57:026;-0.6703765;10.189722;0.30645782
14:55:57:070;14:55:57:026;-0.6703765;10.189722;0.30645782
14:55:57:078;14:55:57:026;-0.6703765;10.189722;0.30645782
14:55:57:085;14:55:57:026;-0.6703765;10.189722;0.30645782
14:55:57:093;14:55:57:026;-0.6703765;10.189722;0.30645782
14:55:57:101;14:55:57:026;-0.6703765;10.189722;0.30645782
14:55:57:109;14:55:57:026;-0.6703765;10.189722;0.30645782
14:55:57:117;14:55:57:026;-0.6703765;10.189722;0.30645782
14:55:57:125;14:55:57:026;-0.6703765;10.189722;0.30645782
14:55:57:132;14:55:57:129;-0.21068975;10.43872;0.36391866
14:55:57:140;14:55:57:129;-0.21068975;10.43872;0.36391866
14:55:57:148;14:55:57:129;-0.21068975;10.43872;0.36391866
14:55:57:156;14:55:57:129;-0.21068975;10.43872;0.36391866
14:55:57:164;14:55:57:129;-0.21068975;10.43872;0.36391866
14:55:57:171;14:55:57:129;-0.21068975;10.43872;0.36391866
14:55:57:179;14:55:57:129;-0.21068975;10.43872;0.36391866
14:55:57:187;14:55:57:129;-0.21068975;10.43872;0.36391866
14:55:57:195;14:55:57:129;-0.21068975;10.43872;0.36391866
14:55:57:203;14:55:57:129;-0.21068975;10.43872;0.36391866
14:55:57:210;14:55:57:129;-0.21068975;10.43872;0.36391866
14:55:57:218;14:55:57:129;-0.21068975;10.43872;0.36391866
14:55:57:226;14:55:57:129;-0.21068975;10.43872;0.36391866
14:55:57:234;14:55:57:129;-0.21068975;10.43872;0.36391866
14:55:57:242;14:55:57:242;-0.63206923;10.113108;0.45968673
14:55:57:250;14:55:57:242;-0.63206923;10.113108;0.45968673
14:55:57:257;14:55:57:242;-0.63206923;10.113108;0.45968673
14:55:57:265;14:55:57:242;-0.63206923;10.113108;0.45968673
14:55:57:273;14:55:57:242;-0.63206923;10.113108;0.45968673
14:55:57:281;14:55:57:242;-0.63206923;10.113108;0.45968673
14:55:57:289;14:55:57:242;-0.63206923;10.113108;0.45968673
14:55:57:296;14:55:57:242;-0.63206923;10.113108;0.45968673
14:55:57:304;14:55:57:242;-0.63206923;10.113108;0.45968673
14:55:57:312;14:55:57:242;-0.63206923;10.113108;0.45968673
14:55:57:320;14:55:57:242;-0.63206923;10.113108;0.45968673
14:55:57:328;14:55:57:242;-0.63206923;10.113108;0.45968673
14:55:57:335;14:55:57:242;-0.63206923;10.113108;0.45968673
14:55:57:343;14:55:57:242;-0.63206923;10.113108;0.45968673
14:55:57:351;14:55:57:242;-0.63206923;10.113108;0.45968673
14:55:57:359;14:55:57:242;-0.63206923;10.113108;0.45968673
14:55:57:367;14:55:57:367;-0.2681506;10.0748005;0.51714754
14:55:57:375;14:55:57:367;-0.2681506;10.0748005;0.51714754
14:55:57:382;14:55:57:367;-0.2681506;10.0748005;0.51714754
14:55:57:390;14:55:57:367;-0.2681506;10.0748005;0.51714754
14:55:57:398;14:55:57:367;-0.2681506;10.0748005;0.51714754
14:55:57:406;14:55:57:367;-0.2681506;10.0748005;0.51714754
14:55:57:414;14:55:57:367;-0.2681506;10.0748005;0.51714754
14:55:57:421;14:55:57:367;-0.2681506;10.0748005;0.51714754
14:55:57:429;14:55:57:367;-0.2681506;10.0748005;0.51714754
14:55:57:437;14:55:57:367;-0.2681506;10.0748005;0.51714754
14:55:57:445;14:55:57:367;-0.2681506;10.0748005;0.51714754
14:55:57:453;14:55:57:367;-0.2681506;10.0748005;0.51714754
14:55:57:460;14:55:57:367;-0.2681506;10.0748005;0.51714754
14:55:57:468;14:55:57:367;-0.2681506;10.0748005;0.51714754
14:55:57:476;14:55:57:367;-0.2681506;10.0748005;0.51714754
14:55:57:484;14:55:57:479;-0.34476504;9.825804;0.63206923
14:55:57:492;14:55:57:479;-0.34476504;9.825804;0.63206923
14:55:57:500;14:55:57:479;-0.34476504;9.825804;0.63206923
14:55:57:507;14:55:57:479;-0.34476504;9.825804;0.63206923
14:55:57:515;14:55:57:479;-0.34476504;9.825804;0.63206923
14:55:57:523;14:55:57:479;-0.34476504;9.825804;0.63206923
14:55:57:531;14:55:57:479;-0.34476504;9.825804;0.63206923
14:55:57:539;14:55:57:479;-0.34476504;9.825804;0.63206923
14:55:57:546;14:55:57:479;-0.34476504;9.825804;0.63206923
14:55:57:554;14:55:57:479;-0.34476504;9.825804;0.63206923
14:55:57:562;14:55:57:479;-0.34476504;9.825804;0.63206923
14:55:57:570;14:55:57:479;-0.34476504;9.825804;0.63206923
14:55:57:578;14:55:57:479;-0.34476504;9.825804;0.63206923
14:55:57:585;14:55:57:479;-0.34476504;9.825804;0.63206923
14:55:57:593;14:55:57:479;-0.34476504;9.825804;0.63206923
14:55:57:601;14:55:57:599;-0.11492168;10.132261;0.038307227
14:55:57:609;14:55:57:599;-0.11492168;10.132261;0.038307227
14:55:57:617;14:55:57:599;-0.11492168;10.132261;0.038307227
14:55:57:625;14:55:57:599;-0.11492168;10.132261;0.038307227
14:55:57:632;14:55:57:599;-0.11492168;10.132261;0.038307227
14:55:57:640;14:55:57:599;-0.11492168;10.132261;0.038307227
14:55:57:648;14:55:57:599;-0.11492168;10.132261;0.038307227
14:55:57:656;14:55:57:599;-0.11492168;10.132261;0.038307227
14:55:57:664;14:55:57:599;-0.11492168;10.132261;0.038307227
14:55:57:671;14:55:57:599;-0.11492168;10.132261;0.038307227
14:55:57:679;14:55:57:599;-0.11492168;10.132261;0.038307227
14:55:57:687;14:55:57:599;-0.11492168;10.132261;0.038307227
14:55:57:695;14:55:57:599;-0.11492168;10.132261;0.038307227
14:55:57:703;14:55:57:702;-0.095768064;10.304645;0.05746084
14:55:57:710;14:55:57:702;-0.095768064;10.304645;0.05746084
14:55:57:718;14:55:57:702;-0.095768064;10.304645;0.05746084
14:55:57:726;14:55:57:702;-0.095768064;10.304645;0.05746084
14:55:57:734;14:55:57:702;-0.095768064;10.304645;0.05746084
14:55:57:742;14:55:57:702;-0.095768064;10.304645;0.05746084
14:55:57:750;14:55:57:702;-0.095768064;10.304645;0.05746084
14:55:57:757;14:55:57:702;-0.095768064;10.304645;0.05746084
14:55:57:765;14:55:57:702;-0.095768064;10.304645;0.05746084
14:55:57:773;14:55:57:702;-0.095768064;10.304645;0.05746084
14:55:57:781;14:55:57:702;-0.095768064;10.304645;0.05746084
14:55:57:789;14:55:57:702;-0.095768064;10.304645;0.05746084
14:55:57:796;14:55:57:702;-0.095768064;10.304645;0.05746084
14:55:57:804;14:55:57:702;-0.095768064;10.304645;0.05746084
14:55:57:812;14:55:57:702;-0.095768064;10.304645;0.05746084
14:55:57:820;14:55:57:816;-0.4405331;10.132261;0.4213795
14:55:57:828;14:55:57:816;-0.4405331;10.132261;0.4213795
14:55:57:835;14:55:57:816;-0.4405331;10.132261;0.4213795
14:55:57:843;14:55:57:816;-0.4405331;10.132261;0.4213795
14:55:57:851;14:55:57:816;-0.4405331;10.132261;0.4213795
14:55:57:859;14:55:57:816;-0.4405331;10.132261;0.4213795
14:55:57:867;14:55:57:816;-0.4405331;10.132261;0.4213795
14:55:57:875;14:55:57:816;-0.4405331;10.132261;0.4213795
14:55:57:882;14:55:57:816;-0.4405331;10.132261;0.4213795
14:55:57:890;14:55:57:816;-0.4405331;10.132261;0.4213795
14:55:57:898;14:55:57:816;-0.4405331;10.132261;0.4213795
14:55:57:906;14:55:57:816;-0.4405331;10.132261;0.4213795
14:55:57:914;14:55:57:816;-0.4405331;10.132261;0.4213795
14:55:57:921;14:55:57:918;-0.38307226;9.461885;0.45968673
14:55:57:929;14:55:57:918;-0.38307226;9.461885;0.45968673
14:55:57:937;14:55:57:918;-0.38307226;9.461885;0.45968673
14:55:57:945;14:55:57:918;-0.38307226;9.461885;0.45968673
14:55:57:953;14:55:57:918;-0.38307226;9.461885;0.45968673
14:55:57:960;14:55:57:918;-0.38307226;9.461885;0.45968673
14:55:57:968;14:55:57:918;-0.38307226;9.461885;0.45968673
14:55:57:976;14:55:57:918;-0.38307226;9.461885;0.45968673
14:55:57:984;14:55:57:918;-0.38307226;9.461885;0.45968673
14:55:57:992;14:55:57:918;-0.38307226;9.461885;0.45968673
14:55:58:000;14:55:57:918;-0.38307226;9.461885;0.45968673
14:55:58:007;14:55:57:918;-0.38307226;9.461885;0.45968673
14:55:58:015;14:55:57:918;-0.38307226;9.461885;0.45968673
14:55:58:023;14:55:58:019;-0.1340753;9.346964;0.51714754
14:55:58:031;14:55:58:019;-0.1340753;9.346964;0.51714754
14:55:58:039;14:55:58:019;-0.1340753;9.346964;0.51714754
14:55:58:046;14:55:58:019;-0.1340753;9.346964;0.51714754
14:55:58:054;14:55:58:019;-0.1340753;9.346964;0.51714754
14:55:58:062;14:55:58:019;-0.1340753;9.346964;0.51714754
14:55:58:070;14:55:58:019;-0.1340753;9.346964;0.51714754
14:55:58:078;14:55:58:019;-0.1340753;9.346964;0.51714754
14:55:58:085;14:55:58:019;-0.1340753;9.346964;0.51714754
14:55:58:093;14:55:58:019;-0.1340753;9.346964;0.51714754
14:55:58:101;14:55:58:019;-0.1340753;9.346964;0.51714754
14:55:58:109;14:55:58:019;-0.1340753;9.346964;0.51714754
14:55:58:117;14:55:58:019;-0.1340753;9.346964;0.51714754
14:55:58:125;14:55:58:019;-0.1340753;9.346964;0.51714754
14:55:58:132;14:55:58:019;-0.1340753;9.346964;0.51714754
14:55:58:140;14:55:58:137;-0.1340753;10.113108;0.21068975
14:55:58:148;14:55:58:137;-0.1340753;10.113108;0.21068975
14:55:58:156;14:55:58:137;-0.1340753;10.113108;0.21068975
14:55:58:164;14:55:58:137;-0.1340753;10.113108;0.21068975
14:55:58:171;14:55:58:137;-0.1340753;10.113108;0.21068975
14:55:58:179;14:55:58:137;-0.1340753;10.113108;0.21068975
14:55:58:187;14:55:58:137;-0.1340753;10.113108;0.21068975
14:55:58:195;14:55:58:137;-0.1340753;10.113108;0.21068975
14:55:58:203;14:55:58:137;-0.1340753;10.113108;0.21068975
14:55:58:210;14:55:58:137;-0.1340753;10.113108;0.21068975
14:55:58:218;14:55:58:137;-0.1340753;10.113108;0.21068975
14:55:58:226;14:55:58:137;-0.1340753;10.113108;0.21068975
14:55:58:234;14:55:58:137;-0.1340753;10.113108;0.21068975
14:55:58:242;14:55:58:137;-0.1340753;10.113108;0.21068975
14:55:58:250;14:55:58:244;-0.6703765;10.534488;0.095768064
14:55:58:257;14:55:58:244;-0.6703765;10.534488;0.095768064
14:55:58:265;14:55:58:244;-0.6703765;10.534488;0.095768064
14:55:58:273;14:55:58:244;-0.6703765;10.534488;0.095768064
14:55:58:281;14:55:58:244;-0.6703765;10.534488;0.095768064
14:55:58:289;14:55:58:244;-0.6703765;10.534488;0.095768064
14:55:58:296;14:55:58:244;-0.6703765;10.534488;0.095768064
14:55:58:304;14:55:58:244;-0.6703765;10.534488;0.095768064
14:55:58:312;14:55:58:244;-0.6703765;10.534488;0.095768064
14:55:58:320;14:55:58:244;-0.6703765;10.534488;0.095768064
14:55:58:328;14:55:58:244;-0.6703765;10.534488;0.095768064
14:55:58:335;14:55:58:244;-0.6703765;10.534488;0.095768064
14:55:58:343;14:55:58:244;-0.6703765;10.534488;0.095768064
14:55:58:351;14:55:58:351;-0.6703765;9.634268;0.6512229
14:55:58:359;14:55:58:351;-0.6703765;9.634268;0.6512229
14:55:58:367;14:55:58:351;-0.6703765;9.634268;0.6512229
14:55:58:375;14:55:58:351;-0.6703765;9.634268;0.6512229
14:55:58:382;14:55:58:351;-0.6703765;9.634268;0.6512229
14:55:58:390;14:55:58:351;-0.6703765;9.634268;0.6512229
14:55:58:398;14:55:58:351;-0.6703765;9.634268;0.6512229
14:55:58:406;14:55:58:351;-0.6703765;9.634268;0.6512229
14:55:58:414;14:55:58:351;-0.6703765;9.634268;0.6512229
14:55:58:421;14:55:58:351;-0.6703765;9.634268;0.6512229
14:55:58:429;14:55:58:351;-0.6703765;9.634268;0.6512229
14:55:58:437;14:55:58:351;-0.6703765;9.634268;0.6512229
14:55:58:445;14:55:58:351;-0.6703765;9.634268;0.6512229
14:55:58:453;14:55:58:351;-0.6703765;9.634268;0.6512229
14:55:58:460;14:55:58:351;-0.6703765;9.634268;0.6512229
14:55:58:468;14:55:58:351;-0.6703765;9.634268;0.6512229
14:55:58:476;14:55:58:470;-0.6895301;9.9790325;0.5746084
14:55:58:484;14:55:58:470;-0.6895301;9.9790325;0.5746084
14:55:58:492;14:55:58:470;-0.6895301;9.9790325;0.5746084
14:55:58:500;14:55:58:470;-0.6895301;9.9790325;0.5746084
14:55:58:507;14:55:58:470;-0.6895301;9.9790325;0.5746084
14:55:58:515;14:55:58:470;-0.6895301;9.9790325;0.5746084
14:55:58:523;14:55:58:470;-0.6895301;9.9790325;0.5746084
14:55:58:531;14:55:58:470;-0.6895301;9.9790325;0.5746084
14:55:58:539;14:55:58:470;-0.6895301;9.9790325;0.5746084
14:55:58:546;14:55:58:470;-0.6895301;9.9790325;0.5746084
14:55:58:554;14:55:58:470;-0.6895301;9.9790325;0.5746084
14:55:58:562;14:55:58:470;-0.6895301;9.9790325;0.5746084
14:55:58:570;14:55:58:470;-0.6895301;9.9790325;0.5746084
14:55:58:578;14:55:58:572;-0.40222588;9.9790325;0.6512229
14:55:58:585;14:55:58:572;-0.40222588;9.9790325;0.6512229
14:55:58:593;14:55:58:572;-0.40222588;9.9790325;0.6512229
14:55:58:601;14:55:58:572;-0.40222588;9.9790325;0.6512229
14:55:58:609;14:55:58:572;-0.40222588;9.9790325;0.6512229
14:55:58:617;14:55:58:572;-0.40222588;9.9790325;0.6512229
14:55:58:625;14:55:58:572;-0.40222588;9.9790325;0.6512229
14:55:58:632;14:55:58:572;-0.40222588;9.9790325;0.6512229
14:55:58:640;14:55:58:572;-0.40222588;9.9790325;0.6512229
14:55:58:648;14:55:58:572;-0.40222588;9.9790325;0.6512229
14:55:58:656;14:55:58:572;-0.40222588;9.9790325;0.6512229
14:55:58:664;14:55:58:572;-0.40222588;9.9790325;0.6512229
14:55:58:671;14:55:58:572;-0.40222588;9.9790325;0.6512229
14:55:58:679;14:55:58:572;-0.40222588;9.9790325;0.6512229
14:55:58:687;14:55:58:572;-0.40222588;9.9790325;0.6512229
14:55:58:695;14:55:58:690;-0.7661445;10.036493;0.2681506
14:55:58:703;14:55:58:690;-0.7661445;10.036493;0.2681506
14:55:58:710;14:55:58:690;-0.7661445;10.036493;0.2681506
14:55:58:718;14:55:58:690;-0.7661445;10.036493;0.2681506
14:55:58:726;14:55:58:690;-0.7661445;10.036493;0.2681506
14:55:58:734;14:55:58:690;-0.7661445;10.036493;0.2681506
14:55:58:742;14:55:58:690;-0.7661445;10.036493;0.2681506
14:55:58:750;14:55:58:690;-0.7661445;10.036493;0.2681506
14:55:58:757;14:55:58:690;-0.7661445;10.036493;0.2681506
14:55:58:765;14:55:58:690;-0.7661445;10.036493;0.2681506
14:55:58:773;14:55:58:690;-0.7661445;10.036493;0.2681506
14:55:58:781;14:55:58:690;-0.7661445;10.036493;0.2681506
14:55:58:789;14:55:58:690;-0.7661445;10.036493;0.2681506
14:55:58:796;14:55:58:690;-0.7661445;10.036493;0.2681506
14:55:58:804;14:55:58:690;-0.7661445;10.036493;0.2681506
14:55:58:812;14:55:58:809;-0.15322891;10.0748005;0.47884035
14:55:58:820;14:55:58:809;-0.15322891;10.0748005;0.47884035
14:55:58:828;14:55:58:809;-0.15322891;10.0748005;0.47884035
14:55:58:835;14:55:58:809;-0.15322891;10.0748005;0.47884035
14:55:58:843;14:55:58:809;-0.15322891;10.0748005;0.47884035
14:55:58:851;14:55:58:809;-0.15322891;10.0748005;0.47884035
14:55:58:859;14:55:58:809;-0.15322891;10.0748005;0.47884035
14:55:58:867;14:55:58:809;-0.15322891;10.0748005;0.47884035
14:55:58:875;14:55:58:809;-0.15322891;10.0748005;0.47884035
14:55:58:882;14:55:58:809;-0.15322891;10.0748005;0.47884035
14:55:58:890;14:55:58:809;-0.15322891;10.0748005;0.47884035
14:55:58:898;14:55:58:809;-0.15322891;10.0748005;0.47884035
14:55:58:906;14:55:58:809;-0.15322891;10.0748005;0.47884035
14:55:58:914;14:55:58:809;-0.15322891;10.0748005;0.47884035
14:55:58:921;14:55:58:809;-0.15322891;10.0748005;0.47884035
14:55:58:929;14:55:58:926;-0.17238252;9.021352;0.6512229
14:55:58:937;14:55:58:926;-0.17238252;9.021352;0.6512229
14:55:58:945;14:55:58:926;-0.17238252;9.021352;0.6512229
14:55:58:953;14:55:58:926;-0.17238252;9.021352;0.6512229
14:55:58:960;14:55:58:926;-0.17238252;9.021352;0.6512229
14:55:58:968;14:55:58:926;-0.17238252;9.021352;0.6512229
14:55:58:976;14:55:58:926;-0.17238252;9.021352;0.6512229
14:55:58:984;14:55:58:926;-0.17238252;9.021352;0.6512229
14:55:58:992;14:55:58:926;-0.17238252;9.021352;0.6512229
14:55:59:000;14:55:58:926;-0.17238252;9.021352;0.6512229
14:55:59:007;14:55:58:926;-0.17238252;9.021352;0.6512229
14:55:59:015;14:55:58:926;-0.17238252;9.021352;0.6512229
14:55:59:023;14:55:58:926;-0.17238252;9.021352;0.6512229
14:55:59:031;14:55:58:926;-0.17238252;9.021352;0.6512229
14:55:59:039;14:55:58:926;-0.17238252;9.021352;0.6512229
14:55:59:046;14:55:59:043;0.22984336;9.844957;0.30645782
14:55:59:054;14:55:59:043;0.22984336;9.844957;0.30645782
14:55:59:062;14:55:59:043;0.22984336;9.844957;0.30645782
14:55:59:070;14:55:59:043;0.22984336;9.844957;0.30645782
14:55:59:078;14:55:59:043;0.22984336;9.844957;0.30645782
14:55:59:085;14:55:59:043;0.22984336;9.844957;0.30645782
14:55:59:093;14:55:59:043;0.22984336;9.844957;0.30645782
14:55:59:101;14:55:59:043;0.22984336;9.844957;0.30645782
14:55:59:109;14:55:59:043;0.22984336;9.844957;0.30645782
14:55:59:117;14:55:59:043;0.22984336;9.844957;0.30645782
14:55:59:125;14:55:59:043;0.22984336;9.844957;0.30645782
14:55:59:132;14:55:59:043;0.22984336;9.844957;0.30645782
14:55:59:140;14:55:59:043;0.22984336;9.844957;0.30645782
14:55:59:148;14:55:59:147;0.019153614;9.634268;0.1340753
14:55:59:156;14:55:59:147;0.019153614;9.634268;0.1340753
14:55:59:164;14:55:59:147;0.019153614;9.634268;0.1340753
14:55:59:171;14:55:59:147;0.019153614;9.634268;0.1340753
14:55:59:179;14:55:59:147;0.019153614;9.634268;0.1340753
14:55:59:187;14:55:59:147;0.019153614;9.634268;0.1340753
14:55:59:195;14:55:59:147;0.019153614;9.634268;0.1340753
14:55:59:203;14:55:59:147;0.019153614;9.634268;0.1340753
14:55:59:210;14:55:59:147;0.019153614;9.634268;0.1340753
14:55:59:218;14:55:59:147;0.019153614;9.634268;0.1340753
14:55:59:226;14:55:59:147;0.019153614;9.634268;0.1340753
14:55:59:234;14:55:59:147;0.019153614;9.634268;0.1340753
14:55:59:242;14:55:59:147;0.019153614;9.634268;0.1340753
14:55:59:250;14:55:59:147;0.019153614;9.634268;0.1340753
14:55:59:257;14:55:59:147;0.019153614;9.634268;0.1340753
14:55:59:265;14:55:59:265;-0.59376204;9.844957;0.40222588
14:55:59:273;14:55:59:265;-0.59376204;9.844957;0.40222588
14:55:59:281;14:55:59:265;-0.59376204;9.844957;0.40222588
14:55:59:289;14:55:59:265;-0.59376204;9.844957;0.40222588
14:55:59:296;14:55:59:265;-0.59376204;9.844957;0.40222588
14:55:59:304;14:55:59:265;-0.59376204;9.844957;0.40222588
14:55:59:312;14:55:59:265;-0.59376204;9.844957;0.40222588
14:55:59:320;14:55:59:265;-0.59376204;9.844957;0.40222588
14:55:59:328;14:55:59:265;-0.59376204;9.844957;0.40222588
14:55:59:335;14:55:59:265;-0.59376204;9.844957;0.40222588
14:55:59:343;14:55:59:265;-0.59376204;9.844957;0.40222588
14:55:59:351;14:55:59:265;-0.59376204;9.844957;0.40222588
14:55:59:359;14:55:59:265;-0.59376204;9.844957;0.40222588
14:55:59:367;14:55:59:265;-0.59376204;9.844957;0.40222588
14:55:59:375;14:55:59:372;-0.1340753;9.825804;0.019153614
14:55:59:382;14:55:59:372;-0.1340753;9.825804;0.019153614
14:55:59:390;14:55:59:372;-0.1340753;9.825804;0.019153614
14:55:59:398;14:55:59:372;-0.1340753;9.825804;0.019153614
14:55:59:406;14:55:59:372;-0.1340753;9.825804;0.019153614
14:55:59:414;14:55:59:372;-0.1340753;9.825804;0.019153614
14:55:59:421;14:55:59:372;-0.1340753;9.825804;0.019153614
14:55:59:429;14:55:59:372;-0.1340753;9.825804;0.019153614
14:55:59:437;14:55:59:372;-0.1340753;9.825804;0.019153614
14:55:59:445;14:55:59:372;-0.1340753;9.825804;0.019153614
14:55:59:453;14:55:59:372;-0.1340753;9.825804;0.019153614
14:55:59:460;14:55:59:372;-0.1340753;9.825804;0.019153614
14:55:59:468;14:55:59:372;-0.1340753;9.825804;0.019153614
14:55:59:476;14:55:59:372;-0.1340753;9.825804;0.019153614
14:55:59:484;14:55:59:372;-0.1340753;9.825804;0.019153614
14:55:59:492;14:55:59:490;-0.32561144;10.247183;0.32561144
14:55:59:500;14:55:59:490;-0.32561144;10.247183;0.32561144
14:55:59:507;14:55:59:490;-0.32561144;10.247183;0.32561144
14:55:59:515;14:55:59:490;-0.32561144;10.247183;0.32561144
14:55:59:523;14:55:59:490;-0.32561144;10.247183;0.32561144
14:55:59:531;14:55:59:490;-0.32561144;10.247183;0.32561144
14:55:59:539;14:55:59:490;-0.32561144;10.247183;0.32561144
14:55:59:546;14:55:59:490;-0.32561144;10.247183;0.32561144
14:55:59:554;14:55:59:490;-0.32561144;10.247183;0.32561144
14:55:59:562;14:55:59:490;-0.32561144;10.247183;0.32561144
14:55:59:570;14:55:59:490;-0.32561144;10.247183;0.32561144
14:55:59:578;14:55:59:490;-0.32561144;10.247183;0.32561144
14:55:59:585;14:55:59:490;-0.32561144;10.247183;0.32561144
14:55:59:593;14:55:59:490;-0.32561144;10.247183;0.32561144
14:55:59:601;14:55:59:490;-0.32561144;10.247183;0.32561144
14:55:59:609;14:55:59:490;-0.32561144;10.247183;0.32561144
14:55:59:617;14:55:59:610;-0.51714754;9.481039;0.47884035
14:55:59:625;14:55:59:610;-0.51714754;9.481039;0.47884035
14:55:59:632;14:55:59:610;-0.51714754;9.481039;0.47884035
14:55:59:640;14:55:59:610;-0.51714754;9.481039;0.47884035
14:55:59:648;14:55:59:610;-0.51714754;9.481039;0.47884035
14:55:59:656;14:55:59:610;-0.51714754;9.481039;0.47884035
14:55:59:664;14:55:59:610;-0.51714754;9.481039;0.47884035
14:55:59:671;14:55:59:610;-0.51714754;9.481039;0.47884035
14:55:59:679;14:55:59:610;-0.51714754;9.481039;0.47884035
14:55:59:687;14:55:59:610;-0.51714754;9.481039;0.47884035
14:55:59:695;14:55:59:610;-0.51714754;9.481039;0.47884035
14:55:59:703;14:55:59:610;-0.51714754;9.481039;0.47884035
14:55:59:710;14:55:59:610;-0.51714754;9.481039;0.47884035
14:55:59:718;14:55:59:610;-0.51714754;9.481039;0.47884035
14:55:59:726;14:55:59:610;-0.51714754;9.481039;0.47884035
14:55:59:734;14:55:59:727;-0.5746084;10.170568;-0.05746084
14:55:59:742;14:55:59:727;-0.5746084;10.170568;-0.05746084
14:55:59:750;14:55:59:727;-0.5746084;10.170568;-0.05746084
14:55:59:757;14:55:59:727;-0.5746084;10.170568;-0.05746084
14:55:59:765;14:55:59:727;-0.5746084;10.170568;-0.05746084
14:55:59:773;14:55:59:727;-0.5746084;10.170568;-0.05746084
14:55:59:781;14:55:59:727;-0.5746084;10.170568;-0.05746084
14:55:59:789;14:55:59:727;-0.5746084;10.170568;-0.05746084
14:55:59:796;14:55:59:727;-0.5746084;10.170568;-0.05746084
14:55:59:804;14:55:59:727;-0.5746084;10.170568;-0.05746084
14:55:59:812;14:55:59:727;-0.5746084;10.170568;-0.05746084
14:55:59:820;14:55:59:727;-0.5746084;10.170568;-0.05746084
14:55:59:828;14:55:59:727;-0.5746084;10.170568;-0.05746084
14:55:59:835;14:55:59:727;-0.5746084;10.170568;-0.05746084
14:55:59:843;14:55:59:727;-0.5746084;10.170568;-0.05746084
14:55:59:851;14:55:59:847;-0.40222588;10.572795;0.22984336
14:55:59:859;14:55:59:847;-0.40222588;10.572795;0.22984336
14:55:59:867;14:55:59:847;-0.40222588;10.572795;0.22984336
14:55:59:875;14:55:59:847;-0.40222588;10.572795;0.22984336
14:55:59:882;14:55:59:847;-0.40222588;10.572795;0.22984336
14:55:59:890;14:55:59:847;-0.40222588;10.572795;0.22984336
14:55:59:898;14:55:59:847;-0.40222588;10.572795;0.22984336
14:55:59:906;14:55:59:847;-0.40222588;10.572795;0.22984336
14:55:59:914;14:55:59:847;-0.40222588;10.572795;0.22984336
14:55:59:921;14:55:59:847;-0.40222588;10.572795;0.22984336
14:55:59:929;14:55:59:847;-0.40222588;10.572795;0.22984336
14:55:59:937;14:55:59:847;-0.40222588;10.572795;0.22984336
14:55:59:945;14:55:59:847;-0.40222588;10.572795;0.22984336
14:55:59:953;14:55:59:847;-0.40222588;10.572795;0.22984336
14:55:59:960;14:55:59:847;-0.40222588;10.572795;0.22984336
14:55:59:968;14:55:59:964;-0.61291564;9.825804;0.2873042
14:55:59:976;14:55:59:964;-0.61291564;9.825804;0.2873042
14:55:59:984;14:55:59:964;-0.61291564;9.825804;0.2873042
14:55:59:992;14:55:59:964;-0.61291564;9.825804;0.2873042
14:56:00:000;14:55:59:964;-0.61291564;9.825804;0.2873042
14:56:00:007;14:55:59:964;-0.61291564;9.825804;0.2873042
14:56:00:015;14:55:59:964;-0.61291564;9.825804;0.2873042
14:56:00:023;14:55:59:964;-0.61291564;9.825804;0.2873042
14:56:00:031;14:55:59:964;-0.61291564;9.825804;0.2873042
14:56:00:039;14:55:59:964;-0.61291564;9.825804;0.2873042
14:56:00:046;14:55:59:964;-0.61291564;9.825804;0.2873042
14:56:00:054;14:55:59:964;-0.61291564;9.825804;0.2873042
14:56:00:062;14:55:59:964;-0.61291564;9.825804;0.2873042
14:56:00:070;14:55:59:964;-0.61291564;9.825804;0.2873042
14:56:00:078;14:56:00:071;-0.21068975;9.174581;0.47884035
14:56:00:085;14:56:00:071;-0.21068975;9.174581;0.47884035
14:56:00:093;14:56:00:071;-0.21068975;9.174581;0.47884035
14:56:00:101;14:56:00:071;-0.21068975;9.174581;0.47884035
14:56:00:109;14:56:00:071;-0.21068975;9.174581;0.47884035
14:56:00:117;14:56:00:071;-0.21068975;9.174581;0.47884035
14:56:00:125;14:56:00:071;-0.21068975;9.174581;0.47884035
14:56:00:132;14:56:00:071;-0.21068975;9.174581;0.47884035
14:56:00:140;14:56:00:071;-0.21068975;9.174581;0.47884035
14:56:00:148;14:56:00:071;-0.21068975;9.174581;0.47884035
14:56:00:156;14:56:00:071;-0.21068975;9.174581;0.47884035
14:56:00:164;14:56:00:071;-0.21068975;9.174581;0.47884035
14:56:00:171;14:56:00:071;-0.21068975;9.174581;0.47884035
14:56:00:179;14:56:00:071;-0.21068975;9.174581;0.47884035
14:56:00:187;14:56:00:182;0.15322891;10.745177;-0.21068975
14:56:00:195;14:56:00:182;0.15322891;10.745177;-0.21068975
14:56:00:203;14:56:00:182;0.15322891;10.745177;-0.21068975
14:56:00:210;14:56:00:182;0.15322891;10.745177;-0.21068975
14:56:00:218;14:56:00:182;0.15322891;10.745177;-0.21068975
14:56:00:226;14:56:00:182;0.15322891;10.745177;-0.21068975
14:56:00:234;14:56:00:182;0.15322891;10.745177;-0.21068975
14:56:00:242;14:56:00:182;0.15322891;10.745177;-0.21068975
14:56:00:250;14:56:00:182;0.15322891;10.745177;-0.21068975
14:56:00:257;14:56:00:182;0.15322891;10.745177;-0.21068975
14:56:00:265;14:56:00:182;0.15322891;10.745177;-0.21068975
14:56:00:273;14:56:00:182;0.15322891;10.745177;-0.21068975
14:56:00:281;14:56:00:182;0.15322891;10.745177;-0.21068975
14:56:00:289;14:56:00:289;-0.076614454;9.998186;0.49799395
14:56:00:296;14:56:00:289;-0.076614454;9.998186;0.49799395
14:56:00:304;14:56:00:289;-0.076614454;9.998186;0.49799395
14:56:00:312;14:56:00:289;-0.076614454;9.998186;0.49799395
14:56:00:320;14:56:00:289;-0.076614454;9.998186;0.49799395
14:56:00:328;14:56:00:289;-0.076614454;9.998186;0.49799395
14:56:00:335;14:56:00:289;-0.076614454;9.998186;0.49799395
14:56:00:343;14:56:00:289;-0.076614454;9.998186;0.49799395
14:56:00:351;14:56:00:289;-0.076614454;9.998186;0.49799395
14:56:00:359;14:56:00:289;-0.076614454;9.998186;0.49799395
14:56:00:367;14:56:00:289;-0.076614454;9.998186;0.49799395
14:56:00:375;14:56:00:289;-0.076614454;9.998186;0.49799395
14:56:00:382;14:56:00:289;-0.076614454;9.998186;0.49799395
14:56:00:390;14:56:00:289;-0.076614454;9.998186;0.49799395
14:56:00:398;14:56:00:289;-0.076614454;9.998186;0.49799395
14:56:00:406;14:56:00:403;-0.51714754;9.270349;-0.1340753
14:56:00:414;14:56:00:403;-0.51714754;9.270349;-0.1340753
14:56:00:421;14:56:00:403;-0.51714754;9.270349;-0.1340753
14:56:00:429;14:56:00:403;-0.51714754;9.270349;-0.1340753
14:56:00:437;14:56:00:403;-0.51714754;9.270349;-0.1340753
14:56:00:445;14:56:00:403;-0.51714754;9.270349;-0.1340753
14:56:00:453;14:56:00:403;-0.51714754;9.270349;-0.1340753
14:56:00:460;14:56:00:403;-0.51714754;9.270349;-0.1340753
14:56:00:468;14:56:00:403;-0.51714754;9.270349;-0.1340753
14:56:00:476;14:56:00:403;-0.51714754;9.270349;-0.1340753
14:56:00:484;14:56:00:403;-0.51714754;9.270349;-0.1340753
14:56:00:492;14:56:00:403;-0.51714754;9.270349;-0.1340753
14:56:00:500;14:56:00:403;-0.51714754;9.270349;-0.1340753
14:56:00:507;14:56:00:403;-0.51714754;9.270349;-0.1340753
14:56:00:515;14:56:00:403;-0.51714754;9.270349;-0.1340753
14:56:00:523;14:56:00:523;-0.076614454;10.43872;0.30645782
14:56:00:531;14:56:00:523;-0.076614454;10.43872;0.30645782
14:56:00:539;14:56:00:523;-0.076614454;10.43872;0.30645782
14:56:00:546;14:56:00:523;-0.076614454;10.43872;0.30645782
14:56:00:554;14:56:00:523;-0.076614454;10.43872;0.30645782
14:56:00:562;14:56:00:523;-0.076614454;10.43872;0.30645782
14:56:00:570;14:56:00:523;-0.076614454;10.43872;0.30645782
14:56:00:578;14:56:00:523;-0.076614454;10.43872;0.30645782
14:56:00:585;14:56:00:523;-0.076614454;10.43872;0.30645782
14:56:00:593;14:56:00:523;-0.076614454;10.43872;0.30645782
14:56:00:601;14:56:00:523;-0.076614454;10.43872;0.30645782
14:56:00:609;14:56:00:523;-0.076614454;10.43872;0.30645782
14:56:00:617;14:56:00:523;-0.076614454;10.43872;0.30645782
14:56:00:625;14:56:00:523;-0.076614454;10.43872;0.30645782
14:56:00:632;14:56:00:523;-0.076614454;10.43872;0.30645782
14:56:00:640;14:56:00:637;-0.019153614;9.404425;0.6895301
14:56:00:648;14:56:00:637;-0.019153614;9.404425;0.6895301
14:56:00:656;14:56:00:637;-0.019153614;9.404425;0.6895301
14:56:00:664;14:56:00:637;-0.019153614;9.404425;0.6895301
14:56:00:671;14:56:00:637;-0.019153614;9.404425;0.6895301
14:56:00:679;14:56:00:637;-0.019153614;9.404425;0.6895301
14:56:00:687;14:56:00:637;-0.019153614;9.404425;0.6895301
14:56:00:695;14:56:00:637;-0.019153614;9.404425;0.6895301
14:56:00:703;14:56:00:637;-0.019153614;9.404425;0.6895301
14:56:00:710;14:56:00:637;-0.019153614;9.404425;0.6895301
14:56:00:718;14:56:00:637;-0.019153614;9.404425;0.6895301
14:56:00:726;14:56:00:637;-0.019153614;9.404425;0.6895301
14:56:00:734;14:56:00:637;-0.019153614;9.404425;0.6895301
14:56:00:742;14:56:00:740;-0.59376204;9.864111;-0.1340753
14:56:00:750;14:56:00:740;-0.59376204;9.864111;-0.1340753
14:56:00:757;14:56:00:740;-0.59376204;9.864111;-0.1340753
14:56:00:765;14:56:00:740;-0.59376204;9.864111;-0.1340753
14:56:00:773;14:56:00:740;-0.59376204;9.864111;-0.1340753
14:56:00:781;14:56:00:740;-0.59376204;9.864111;-0.1340753
14:56:00:789;14:56:00:740;-0.59376204;9.864111;-0.1340753
14:56:00:796;14:56:00:740;-0.59376204;9.864111;-0.1340753
14:56:00:804;14:56:00:740;-0.59376204;9.864111;-0.1340753
14:56:00:812;14:56:00:740;-0.59376204;9.864111;-0.1340753
14:56:00:820;14:56:00:740;-0.59376204;9.864111;-0.1340753
14:56:00:828;14:56:00:740;-0.59376204;9.864111;-0.1340753
14:56:00:835;14:56:00:740;-0.59376204;9.864111;-0.1340753
14:56:00:843;14:56:00:740;-0.59376204;9.864111;-0.1340753
14:56:00:851;14:56:00:740;-0.59376204;9.864111;-0.1340753
14:56:00:859;14:56:00:858;-0.30645782;10.668563;0.2681506
14:56:00:867;14:56:00:858;-0.30645782;10.668563;0.2681506
14:56:00:875;14:56:00:858;-0.30645782;10.668563;0.2681506
14:56:00:882;14:56:00:858;-0.30645782;10.668563;0.2681506
14:56:00:890;14:56:00:858;-0.30645782;10.668563;0.2681506
14:56:00:898;14:56:00:858;-0.30645782;10.668563;0.2681506
14:56:00:906;14:56:00:858;-0.30645782;10.668563;0.2681506
14:56:00:914;14:56:00:858;-0.30645782;10.668563;0.2681506
14:56:00:921;14:56:00:858;-0.30645782;10.668563;0.2681506
14:56:00:929;14:56:00:858;-0.30645782;10.668563;0.2681506
14:56:00:937;14:56:00:858;-0.30645782;10.668563;0.2681506
14:56:00:945;14:56:00:858;-0.30645782;10.668563;0.2681506
14:56:00:953;14:56:00:858;-0.30645782;10.668563;0.2681506
14:56:00:960;14:56:00:960;0.11492168;9.998186;0.40222588
14:56:00:968;14:56:00:960;0.11492168;9.998186;0.40222588
14:56:00:976;14:56:00:960;0.11492168;9.998186;0.40222588
14:56:00:984;14:56:00:960;0.11492168;9.998186;0.40222588
14:56:00:992;14:56:00:960;0.11492168;9.998186;0.40222588
14:56:01:000;14:56:00:960;0.11492168;9.998186;0.40222588
14:56:01:007;14:56:00:960;0.11492168;9.998186;0.40222588
14:56:01:015;14:56:00:960;0.11492168;9.998186;0.40222588
14:56:01:023;14:56:00:960;0.11492168;9.998186;0.40222588
14:56:01:031;14:56:00:960;0.11492168;9.998186;0.40222588
14:56:01:039;14:56:00:960;0.11492168;9.998186;0.40222588
14:56:01:046;14:56:00:960;0.11492168;9.998186;0.40222588
14:56:01:054;14:56:00:960;0.11492168;9.998186;0.40222588
14:56:01:062;14:56:00:960;0.11492168;9.998186;0.40222588
14:56:01:070;14:56:00:960;0.11492168;9.998186;0.40222588
14:56:01:078;14:56:01:077;-0.38307226;10.055647;-0.19153613
14:56:01:085;14:56:01:077;-0.38307226;10.055647;-0.19153613
14:56:01:093;14:56:01:077;-0.38307226;10.055647;-0.19153613
14:56:01:101;14:56:01:077;-0.38307226;10.055647;-0.19153613
14:56:01:109;14:56:01:077;-0.38307226;10.055647;-0.19153613
14:56:01:117;14:56:01:077;-0.38307226;10.055647;-0.19153613
14:56:01:125;14:56:01:077;-0.38307226;10.055647;-0.19153613
14:56:01:132;14:56:01:077;-0.38307226;10.055647;-0.19153613
14:56:01:140;14:56:01:077;-0.38307226;10.055647;-0.19153613
14:56:01:148;14:56:01:077;-0.38307226;10.055647;-0.19153613
14:56:01:156;14:56:01:077;-0.38307226;10.055647;-0.19153613
14:56:01:164;14:56:01:077;-0.38307226;10.055647;-0.19153613
14:56:01:171;14:56:01:077;-0.38307226;10.055647;-0.19153613
14:56:01:179;14:56:01:077;-0.38307226;10.055647;-0.19153613
14:56:01:187;14:56:01:184;-0.076614454;8.810662;0.2681506
14:56:01:195;14:56:01:184;-0.076614454;8.810662;0.2681506
14:56:01:203;14:56:01:184;-0.076614454;8.810662;0.2681506
14:56:01:210;14:56:01:184;-0.076614454;8.810662;0.2681506
14:56:01:218;14:56:01:184;-0.076614454;8.810662;0.2681506
14:56:01:226;14:56:01:184;-0.076614454;8.810662;0.2681506
14:56:01:234;14:56:01:184;-0.076614454;8.810662;0.2681506
14:56:01:242;14:56:01:184;-0.076614454;8.810662;0.2681506
14:56:01:250;14:56:01:184;-0.076614454;8.810662;0.2681506
14:56:01:257;14:56:01:184;-0.076614454;8.810662;0.2681506
14:56:01:265;14:56:01:184;-0.076614454;8.810662;0.2681506
14:56:01:273;14:56:01:184;-0.076614454;8.810662;0.2681506
14:56:01:281;14:56:01:184;-0.076614454;8.810662;0.2681506
14:56:01:289;14:56:01:184;-0.076614454;8.810662;0.2681506
14:56:01:296;14:56:01:184;-0.076614454;8.810662;0.2681506
14:56:01:304;14:56:01:301;-0.45968673;9.308656;1.0726024
14:56:01:312;14:56:01:301;-0.45968673;9.308656;1.0726024
14:56:01:320;14:56:01:301;-0.45968673;9.308656;1.0726024
14:56:01:328;14:56:01:301;-0.45968673;9.308656;1.0726024
14:56:01:335;14:56:01:301;-0.45968673;9.308656;1.0726024
14:56:01:343;14:56:01:301;-0.45968673;9.308656;1.0726024
14:56:01:351;14:56:01:301;-0.45968673;9.308656;1.0726024
14:56:01:359;14:56:01:301;-0.45968673;9.308656;1.0726024
14:56:01:367;14:56:01:301;-0.45968673;9.308656;1.0726024
14:56:01:375;14:56:01:301;-0.45968673;9.308656;1.0726024
14:56:01:382;14:56:01:301;-0.45968673;9.308656;1.0726024
14:56:01:390;14:56:01:301;-0.45968673;9.308656;1.0726024
14:56:01:398;14:56:01:301;-0.45968673;9.308656;1.0726024
14:56:01:406;14:56:01:301;-0.45968673;9.308656;1.0726024
14:56:01:414;14:56:01:301;-0.45968673;9.308656;1.0726024
14:56:01:421;14:56:01:418;-1.3024458;11.798626;-0.2681506
14:56:01:429;14:56:01:418;-1.3024458;11.798626;-0.2681506
14:56:01:437;14:56:01:418;-1.3024458;11.798626;-0.2681506
14:56:01:445;14:56:01:418;-1.3024458;11.798626;-0.2681506
14:56:01:453;14:56:01:418;-1.3024458;11.798626;-0.2681506
14:56:01:460;14:56:01:418;-1.3024458;11.798626;-0.2681506
14:56:01:468;14:56:01:418;-1.3024458;11.798626;-0.2681506
14:56:01:476;14:56:01:418;-1.3024458;11.798626;-0.2681506
14:56:01:484;14:56:01:418;-1.3024458;11.798626;-0.2681506
14:56:01:492;14:56:01:418;-1.3024458;11.798626;-0.2681506
14:56:01:500;14:56:01:418;-1.3024458;11.798626;-0.2681506
14:56:01:507;14:56:01:418;-1.3024458;11.798626;-0.2681506
14:56:01:515;14:56:01:418;-1.3024458;11.798626;-0.2681506
