Time_Biotrace;Time_Accel;AccelX;AccelY;AccelZ
17:46:37:359;17:46:37:320;0.038307227;9.289502;0.59376204
17:46:37:367;17:46:37:320;0.038307227;9.289502;0.59376204
17:46:37:375;17:46:37:320;0.038307227;9.289502;0.59376204
17:46:37:382;17:46:37:320;0.038307227;9.289502;0.59376204
17:46:37:390;17:46:37:320;0.038307227;9.289502;0.59376204
17:46:37:398;17:46:37:320;0.038307227;9.289502;0.59376204
17:46:37:406;17:46:37:320;0.038307227;9.289502;0.59376204
17:46:37:414;17:46:37:320;0.038307227;9.289502;0.59376204
17:46:37:421;17:46:37:320;0.038307227;9.289502;0.59376204
17:46:37:429;17:46:37:320;0.038307227;9.289502;0.59376204
17:46:37:437;17:46:37:320;0.038307227;9.289502;0.59376204
17:46:37:445;17:46:37:438;-0.15322891;10.266336;-0.34476504
17:46:37:453;17:46:37:438;-0.15322891;10.266336;-0.34476504
17:46:37:460;17:46:37:438;-0.15322891;10.266336;-0.34476504
17:46:37:468;17:46:37:438;-0.15322891;10.266336;-0.34476504
17:46:37:476;17:46:37:438;-0.15322891;10.266336;-0.34476504
17:46:37:484;17:46:37:438;-0.15322891;10.266336;-0.34476504
17:46:37:492;17:46:37:438;-0.15322891;10.266336;-0.34476504
17:46:37:500;17:46:37:438;-0.15322891;10.266336;-0.34476504
17:46:37:507;17:46:37:438;-0.15322891;10.266336;-0.34476504
17:46:37:515;17:46:37:438;-0.15322891;10.266336;-0.34476504
17:46:37:523;17:46:37:438;-0.15322891;10.266336;-0.34476504
17:46:37:531;17:46:37:438;-0.15322891;10.266336;-0.34476504
17:46:37:539;17:46:37:438;-0.15322891;10.266336;-0.34476504
17:46:37:546;17:46:37:438;-0.15322891;10.266336;-0.34476504
17:46:37:554;17:46:37:554;-0.24899697;10.515334;-0.038307227
17:46:37:562;17:46:37:554;-0.24899697;10.515334;-0.038307227
17:46:37:570;17:46:37:554;-0.24899697;10.515334;-0.038307227
17:46:37:578;17:46:37:554;-0.24899697;10.515334;-0.038307227
17:46:37:585;17:46:37:554;-0.24899697;10.515334;-0.038307227
17:46:37:593;17:46:37:554;-0.24899697;10.515334;-0.038307227
17:46:37:601;17:46:37:554;-0.24899697;10.515334;-0.038307227
17:46:37:609;17:46:37:554;-0.24899697;10.515334;-0.038307227
17:46:37:617;17:46:37:554;-0.24899697;10.515334;-0.038307227
17:46:37:625;17:46:37:554;-0.24899697;10.515334;-0.038307227
17:46:37:632;17:46:37:554;-0.24899697;10.515334;-0.038307227
17:46:37:640;17:46:37:554;-0.24899697;10.515334;-0.038307227
17:46:37:648;17:46:37:554;-0.24899697;10.515334;-0.038307227
17:46:37:656;17:46:37:554;-0.24899697;10.515334;-0.038307227
17:46:37:664;17:46:37:554;-0.24899697;10.515334;-0.038307227
17:46:37:671;17:46:37:554;-0.24899697;10.515334;-0.038307227
17:46:37:679;17:46:37:673;-0.21068975;10.113108;-0.15322891
17:46:37:687;17:46:37:673;-0.21068975;10.113108;-0.15322891
17:46:37:695;17:46:37:673;-0.21068975;10.113108;-0.15322891
17:46:37:703;17:46:37:673;-0.21068975;10.113108;-0.15322891
17:46:37:710;17:46:37:673;-0.21068975;10.113108;-0.15322891
17:46:37:718;17:46:37:673;-0.21068975;10.113108;-0.15322891
17:46:37:726;17:46:37:673;-0.21068975;10.113108;-0.15322891
17:46:37:734;17:46:37:673;-0.21068975;10.113108;-0.15322891
17:46:37:742;17:46:37:673;-0.21068975;10.113108;-0.15322891
17:46:37:750;17:46:37:673;-0.21068975;10.113108;-0.15322891
17:46:37:757;17:46:37:673;-0.21068975;10.113108;-0.15322891
17:46:37:765;17:46:37:673;-0.21068975;10.113108;-0.15322891
17:46:37:773;17:46:37:673;-0.21068975;10.113108;-0.15322891
17:46:37:781;17:46:37:673;-0.21068975;10.113108;-0.15322891
17:46:37:789;17:46:37:788;-0.11492168;9.864111;-0.17238252
17:46:37:796;17:46:37:788;-0.11492168;9.864111;-0.17238252
17:46:37:804;17:46:37:788;-0.11492168;9.864111;-0.17238252
17:46:37:812;17:46:37:788;-0.11492168;9.864111;-0.17238252
17:46:37:820;17:46:37:788;-0.11492168;9.864111;-0.17238252
17:46:37:828;17:46:37:788;-0.11492168;9.864111;-0.17238252
17:46:37:835;17:46:37:788;-0.11492168;9.864111;-0.17238252
17:46:37:843;17:46:37:788;-0.11492168;9.864111;-0.17238252
17:46:37:851;17:46:37:788;-0.11492168;9.864111;-0.17238252
17:46:37:859;17:46:37:788;-0.11492168;9.864111;-0.17238252
17:46:37:867;17:46:37:788;-0.11492168;9.864111;-0.17238252
17:46:37:875;17:46:37:788;-0.11492168;9.864111;-0.17238252
17:46:37:882;17:46:37:788;-0.11492168;9.864111;-0.17238252
17:46:37:890;17:46:37:788;-0.11492168;9.864111;-0.17238252
17:46:37:898;17:46:37:788;-0.11492168;9.864111;-0.17238252
17:46:37:906;17:46:37:788;-0.11492168;9.864111;-0.17238252
17:46:37:914;17:46:37:907;-0.61291564;9.902418;-0.15322891
17:46:37:921;17:46:37:907;-0.61291564;9.902418;-0.15322891
17:46:37:929;17:46:37:907;-0.61291564;9.902418;-0.15322891
17:46:37:937;17:46:37:907;-0.61291564;9.902418;-0.15322891
17:46:37:945;17:46:37:907;-0.61291564;9.902418;-0.15322891
17:46:37:953;17:46:37:907;-0.61291564;9.902418;-0.15322891
17:46:37:960;17:46:37:907;-0.61291564;9.902418;-0.15322891
17:46:37:968;17:46:37:907;-0.61291564;9.902418;-0.15322891
17:46:37:976;17:46:37:907;-0.61291564;9.902418;-0.15322891
17:46:37:984;17:46:37:907;-0.61291564;9.902418;-0.15322891
17:46:37:992;17:46:37:907;-0.61291564;9.902418;-0.15322891
17:46:38:000;17:46:37:907;-0.61291564;9.902418;-0.15322891
17:46:38:007;17:46:37:907;-0.61291564;9.902418;-0.15322891
17:46:38:015;17:46:37:907;-0.61291564;9.902418;-0.15322891
17:46:38:023;17:46:38:019;0.2681506;10.151415;-0.05746084
17:46:38:031;17:46:38:019;0.2681506;10.151415;-0.05746084
17:46:38:039;17:46:38:019;0.2681506;10.151415;-0.05746084
17:46:38:046;17:46:38:019;0.2681506;10.151415;-0.05746084
17:46:38:054;17:46:38:019;0.2681506;10.151415;-0.05746084
17:46:38:062;17:46:38:019;0.2681506;10.151415;-0.05746084
17:46:38:070;17:46:38:019;0.2681506;10.151415;-0.05746084
17:46:38:078;17:46:38:019;0.2681506;10.151415;-0.05746084
17:46:38:085;17:46:38:019;0.2681506;10.151415;-0.05746084
17:46:38:093;17:46:38:019;0.2681506;10.151415;-0.05746084
17:46:38:101;17:46:38:019;0.2681506;10.151415;-0.05746084
17:46:38:109;17:46:38:019;0.2681506;10.151415;-0.05746084
17:46:38:117;17:46:38:019;0.2681506;10.151415;-0.05746084
17:46:38:125;17:46:38:019;0.2681506;10.151415;-0.05746084
17:46:38:132;17:46:38:019;0.2681506;10.151415;-0.05746084
17:46:38:140;17:46:38:019;0.2681506;10.151415;-0.05746084
17:46:38:148;17:46:38:019;0.2681506;10.151415;-0.05746084
17:46:38:156;17:46:38:019;0.2681506;10.151415;-0.05746084
17:46:38:164;17:46:38:157;-0.7278373;9.615114;0.076614454
17:46:38:171;17:46:38:157;-0.7278373;9.615114;0.076614454
17:46:38:179;17:46:38:157;-0.7278373;9.615114;0.076614454
17:46:38:187;17:46:38:157;-0.7278373;9.615114;0.076614454
17:46:38:195;17:46:38:157;-0.7278373;9.615114;0.076614454
17:46:38:203;17:46:38:157;-0.7278373;9.615114;0.076614454
17:46:38:210;17:46:38:157;-0.7278373;9.615114;0.076614454
17:46:38:218;17:46:38:157;-0.7278373;9.615114;0.076614454
17:46:38:226;17:46:38:157;-0.7278373;9.615114;0.076614454
17:46:38:234;17:46:38:157;-0.7278373;9.615114;0.076614454
17:46:38:242;17:46:38:157;-0.7278373;9.615114;0.076614454
17:46:38:250;17:46:38:157;-0.7278373;9.615114;0.076614454
17:46:38:257;17:46:38:157;-0.7278373;9.615114;0.076614454
17:46:38:265;17:46:38:260;-0.63206923;10.28549;-0.038307227
17:46:38:273;17:46:38:260;-0.63206923;10.28549;-0.038307227
17:46:38:281;17:46:38:260;-0.63206923;10.28549;-0.038307227
17:46:38:289;17:46:38:260;-0.63206923;10.28549;-0.038307227
17:46:38:296;17:46:38:260;-0.63206923;10.28549;-0.038307227
17:46:38:304;17:46:38:260;-0.63206923;10.28549;-0.038307227
17:46:38:312;17:46:38:260;-0.63206923;10.28549;-0.038307227
17:46:38:320;17:46:38:260;-0.63206923;10.28549;-0.038307227
17:46:38:328;17:46:38:260;-0.63206923;10.28549;-0.038307227
17:46:38:335;17:46:38:260;-0.63206923;10.28549;-0.038307227
17:46:38:343;17:46:38:260;-0.63206923;10.28549;-0.038307227
17:46:38:351;17:46:38:260;-0.63206923;10.28549;-0.038307227
17:46:38:359;17:46:38:260;-0.63206923;10.28549;-0.038307227
17:46:38:367;17:46:38:260;-0.63206923;10.28549;-0.038307227
17:46:38:375;17:46:38:260;-0.63206923;10.28549;-0.038307227
17:46:38:382;17:46:38:377;-1.1875241;9.653421;-0.095768064
17:46:38:390;17:46:38:377;-1.1875241;9.653421;-0.095768064
17:46:38:398;17:46:38:377;-1.1875241;9.653421;-0.095768064
17:46:38:406;17:46:38:377;-1.1875241;9.653421;-0.095768064
17:46:38:414;17:46:38:377;-1.1875241;9.653421;-0.095768064
17:46:38:421;17:46:38:377;-1.1875241;9.653421;-0.095768064
17:46:38:429;17:46:38:377;-1.1875241;9.653421;-0.095768064
17:46:38:437;17:46:38:377;-1.1875241;9.653421;-0.095768064
17:46:38:445;17:46:38:377;-1.1875241;9.653421;-0.095768064
17:46:38:453;17:46:38:377;-1.1875241;9.653421;-0.095768064
17:46:38:460;17:46:38:377;-1.1875241;9.653421;-0.095768064
17:46:38:468;17:46:38:377;-1.1875241;9.653421;-0.095768064
17:46:38:476;17:46:38:377;-1.1875241;9.653421;-0.095768064
17:46:38:484;17:46:38:480;-0.36391866;10.419566;-0.17238252
17:46:38:492;17:46:38:480;-0.36391866;10.419566;-0.17238252
17:46:38:500;17:46:38:480;-0.36391866;10.419566;-0.17238252
17:46:38:507;17:46:38:480;-0.36391866;10.419566;-0.17238252
17:46:38:515;17:46:38:480;-0.36391866;10.419566;-0.17238252
17:46:38:523;17:46:38:480;-0.36391866;10.419566;-0.17238252
17:46:38:531;17:46:38:480;-0.36391866;10.419566;-0.17238252
17:46:38:539;17:46:38:480;-0.36391866;10.419566;-0.17238252
17:46:38:546;17:46:38:480;-0.36391866;10.419566;-0.17238252
17:46:38:554;17:46:38:480;-0.36391866;10.419566;-0.17238252
17:46:38:562;17:46:38:480;-0.36391866;10.419566;-0.17238252
17:46:38:570;17:46:38:480;-0.36391866;10.419566;-0.17238252
17:46:38:578;17:46:38:480;-0.36391866;10.419566;-0.17238252
17:46:38:585;17:46:38:480;-0.36391866;10.419566;-0.17238252
17:46:38:593;17:46:38:480;-0.36391866;10.419566;-0.17238252
17:46:38:601;17:46:38:594;-0.30645782;10.342952;0.019153614
17:46:38:609;17:46:38:594;-0.30645782;10.342952;0.019153614
17:46:38:617;17:46:38:594;-0.30645782;10.342952;0.019153614
17:46:38:625;17:46:38:594;-0.30645782;10.342952;0.019153614
17:46:38:632;17:46:38:594;-0.30645782;10.342952;0.019153614
17:46:38:640;17:46:38:594;-0.30645782;10.342952;0.019153614
17:46:38:648;17:46:38:594;-0.30645782;10.342952;0.019153614
17:46:38:656;17:46:38:594;-0.30645782;10.342952;0.019153614
17:46:38:664;17:46:38:594;-0.30645782;10.342952;0.019153614
17:46:38:671;17:46:38:594;-0.30645782;10.342952;0.019153614
17:46:38:679;17:46:38:594;-0.30645782;10.342952;0.019153614
17:46:38:687;17:46:38:594;-0.30645782;10.342952;0.019153614
17:46:38:695;17:46:38:594;-0.30645782;10.342952;0.019153614
17:46:38:703;17:46:38:594;-0.30645782;10.342952;0.019153614
17:46:38:710;17:46:38:594;-0.30645782;10.342952;0.019153614
17:46:38:718;17:46:38:713;-0.2681506;10.113108;-0.9959879
17:46:38:726;17:46:38:713;-0.2681506;10.113108;-0.9959879
17:46:38:734;17:46:38:713;-0.2681506;10.113108;-0.9959879
17:46:38:742;17:46:38:713;-0.2681506;10.113108;-0.9959879
17:46:38:750;17:46:38:713;-0.2681506;10.113108;-0.9959879
17:46:38:757;17:46:38:713;-0.2681506;10.113108;-0.9959879
17:46:38:765;17:46:38:713;-0.2681506;10.113108;-0.9959879
17:46:38:773;17:46:38:713;-0.2681506;10.113108;-0.9959879
17:46:38:781;17:46:38:713;-0.2681506;10.113108;-0.9959879
17:46:38:789;17:46:38:713;-0.2681506;10.113108;-0.9959879
17:46:38:796;17:46:38:713;-0.2681506;10.113108;-0.9959879
17:46:38:804;17:46:38:713;-0.2681506;10.113108;-0.9959879
17:46:38:812;17:46:38:713;-0.2681506;10.113108;-0.9959879
17:46:38:820;17:46:38:713;-0.2681506;10.113108;-0.9959879
17:46:38:828;17:46:38:713;-0.2681506;10.113108;-0.9959879
17:46:38:835;17:46:38:832;-0.34476504;9.404425;-0.36391866
17:46:38:843;17:46:38:832;-0.34476504;9.404425;-0.36391866
17:46:38:851;17:46:38:832;-0.34476504;9.404425;-0.36391866
17:46:38:859;17:46:38:832;-0.34476504;9.404425;-0.36391866
17:46:38:867;17:46:38:832;-0.34476504;9.404425;-0.36391866
17:46:38:875;17:46:38:832;-0.34476504;9.404425;-0.36391866
17:46:38:882;17:46:38:832;-0.34476504;9.404425;-0.36391866
17:46:38:890;17:46:38:832;-0.34476504;9.404425;-0.36391866
17:46:38:898;17:46:38:832;-0.34476504;9.404425;-0.36391866
17:46:38:906;17:46:38:832;-0.34476504;9.404425;-0.36391866
17:46:38:914;17:46:38:832;-0.34476504;9.404425;-0.36391866
17:46:38:921;17:46:38:832;-0.34476504;9.404425;-0.36391866
17:46:38:929;17:46:38:832;-0.34476504;9.404425;-0.36391866
17:46:38:937;17:46:38:935;-1.0151415;10.496181;-0.7661445
17:46:38:945;17:46:38:935;-1.0151415;10.496181;-0.7661445
17:46:38:953;17:46:38:935;-1.0151415;10.496181;-0.7661445
17:46:38:960;17:46:38:935;-1.0151415;10.496181;-0.7661445
17:46:38:968;17:46:38:935;-1.0151415;10.496181;-0.7661445
17:46:38:976;17:46:38:935;-1.0151415;10.496181;-0.7661445
17:46:38:984;17:46:38:935;-1.0151415;10.496181;-0.7661445
17:46:38:992;17:46:38:935;-1.0151415;10.496181;-0.7661445
17:46:39:000;17:46:38:935;-1.0151415;10.496181;-0.7661445
17:46:39:007;17:46:38:935;-1.0151415;10.496181;-0.7661445
17:46:39:015;17:46:38:935;-1.0151415;10.496181;-0.7661445
17:46:39:023;17:46:38:935;-1.0151415;10.496181;-0.7661445
17:46:39:031;17:46:38:935;-1.0151415;10.496181;-0.7661445
17:46:39:039;17:46:38:935;-1.0151415;10.496181;-0.7661445
17:46:39:046;17:46:39:043;-0.78529817;10.28549;-0.5746084
17:46:39:054;17:46:39:043;-0.78529817;10.28549;-0.5746084
17:46:39:062;17:46:39:043;-0.78529817;10.28549;-0.5746084
17:46:39:070;17:46:39:043;-0.78529817;10.28549;-0.5746084
17:46:39:078;17:46:39:043;-0.78529817;10.28549;-0.5746084
17:46:39:085;17:46:39:043;-0.78529817;10.28549;-0.5746084
17:46:39:093;17:46:39:043;-0.78529817;10.28549;-0.5746084
17:46:39:101;17:46:39:043;-0.78529817;10.28549;-0.5746084
17:46:39:109;17:46:39:043;-0.78529817;10.28549;-0.5746084
17:46:39:117;17:46:39:043;-0.78529817;10.28549;-0.5746084
17:46:39:125;17:46:39:043;-0.78529817;10.28549;-0.5746084
17:46:39:132;17:46:39:043;-0.78529817;10.28549;-0.5746084
17:46:39:140;17:46:39:043;-0.78529817;10.28549;-0.5746084
17:46:39:148;17:46:39:043;-0.78529817;10.28549;-0.5746084
17:46:39:156;17:46:39:043;-0.78529817;10.28549;-0.5746084
17:46:39:164;17:46:39:158;-0.90021986;10.783484;-0.21068975
17:46:39:171;17:46:39:158;-0.90021986;10.783484;-0.21068975
17:46:39:179;17:46:39:158;-0.90021986;10.783484;-0.21068975
17:46:39:187;17:46:39:158;-0.90021986;10.783484;-0.21068975
17:46:39:195;17:46:39:158;-0.90021986;10.783484;-0.21068975
17:46:39:203;17:46:39:158;-0.90021986;10.783484;-0.21068975
17:46:39:210;17:46:39:158;-0.90021986;10.783484;-0.21068975
17:46:39:218;17:46:39:158;-0.90021986;10.783484;-0.21068975
17:46:39:226;17:46:39:158;-0.90021986;10.783484;-0.21068975
17:46:39:234;17:46:39:158;-0.90021986;10.783484;-0.21068975
17:46:39:242;17:46:39:158;-0.90021986;10.783484;-0.21068975
17:46:39:250;17:46:39:158;-0.90021986;10.783484;-0.21068975
17:46:39:257;17:46:39:158;-0.90021986;10.783484;-0.21068975
17:46:39:265;17:46:39:260;-0.7086837;9.749189;-0.80445176
17:46:39:273;17:46:39:260;-0.7086837;9.749189;-0.80445176
17:46:39:281;17:46:39:260;-0.7086837;9.749189;-0.80445176
17:46:39:289;17:46:39:260;-0.7086837;9.749189;-0.80445176
17:46:39:296;17:46:39:260;-0.7086837;9.749189;-0.80445176
17:46:39:304;17:46:39:260;-0.7086837;9.749189;-0.80445176
17:46:39:312;17:46:39:260;-0.7086837;9.749189;-0.80445176
17:46:39:320;17:46:39:260;-0.7086837;9.749189;-0.80445176
17:46:39:328;17:46:39:260;-0.7086837;9.749189;-0.80445176
17:46:39:335;17:46:39:260;-0.7086837;9.749189;-0.80445176
17:46:39:343;17:46:39:260;-0.7086837;9.749189;-0.80445176
17:46:39:351;17:46:39:260;-0.7086837;9.749189;-0.80445176
17:46:39:359;17:46:39:260;-0.7086837;9.749189;-0.80445176
17:46:39:367;17:46:39:260;-0.7086837;9.749189;-0.80445176
17:46:39:375;17:46:39:260;-0.7086837;9.749189;-0.80445176
17:46:39:382;17:46:39:376;-0.78529817;9.787497;-0.6703765
17:46:39:390;17:46:39:376;-0.78529817;9.787497;-0.6703765
17:46:39:398;17:46:39:376;-0.78529817;9.787497;-0.6703765
17:46:39:406;17:46:39:376;-0.78529817;9.787497;-0.6703765
17:46:39:414;17:46:39:376;-0.78529817;9.787497;-0.6703765
17:46:39:421;17:46:39:376;-0.78529817;9.787497;-0.6703765
17:46:39:429;17:46:39:376;-0.78529817;9.787497;-0.6703765
17:46:39:437;17:46:39:376;-0.78529817;9.787497;-0.6703765
17:46:39:445;17:46:39:376;-0.78529817;9.787497;-0.6703765
17:46:39:453;17:46:39:376;-0.78529817;9.787497;-0.6703765
17:46:39:460;17:46:39:376;-0.78529817;9.787497;-0.6703765
17:46:39:468;17:46:39:376;-0.78529817;9.787497;-0.6703765
17:46:39:476;17:46:39:376;-0.78529817;9.787497;-0.6703765
17:46:39:484;17:46:39:376;-0.78529817;9.787497;-0.6703765
17:46:39:492;17:46:39:376;-0.78529817;9.787497;-0.6703765
17:46:39:500;17:46:39:495;-0.51714754;9.883265;-0.7469909
17:46:39:507;17:46:39:495;-0.51714754;9.883265;-0.7469909
17:46:39:515;17:46:39:495;-0.51714754;9.883265;-0.7469909
17:46:39:523;17:46:39:495;-0.51714754;9.883265;-0.7469909
17:46:39:531;17:46:39:495;-0.51714754;9.883265;-0.7469909
17:46:39:539;17:46:39:495;-0.51714754;9.883265;-0.7469909
17:46:39:546;17:46:39:495;-0.51714754;9.883265;-0.7469909
17:46:39:554;17:46:39:495;-0.51714754;9.883265;-0.7469909
17:46:39:562;17:46:39:495;-0.51714754;9.883265;-0.7469909
17:46:39:570;17:46:39:495;-0.51714754;9.883265;-0.7469909
17:46:39:578;17:46:39:495;-0.51714754;9.883265;-0.7469909
17:46:39:585;17:46:39:495;-0.51714754;9.883265;-0.7469909
17:46:39:593;17:46:39:495;-0.51714754;9.883265;-0.7469909
17:46:39:601;17:46:39:495;-0.51714754;9.883265;-0.7469909
17:46:39:609;17:46:39:495;-0.51714754;9.883265;-0.7469909
17:46:39:617;17:46:39:611;-0.78529817;10.093954;-0.38307226
17:46:39:625;17:46:39:611;-0.78529817;10.093954;-0.38307226
17:46:39:632;17:46:39:611;-0.78529817;10.093954;-0.38307226
17:46:39:640;17:46:39:611;-0.78529817;10.093954;-0.38307226
17:46:39:648;17:46:39:611;-0.78529817;10.093954;-0.38307226
17:46:39:656;17:46:39:611;-0.78529817;10.093954;-0.38307226
17:46:39:664;17:46:39:611;-0.78529817;10.093954;-0.38307226
17:46:39:671;17:46:39:611;-0.78529817;10.093954;-0.38307226
17:46:39:679;17:46:39:611;-0.78529817;10.093954;-0.38307226
17:46:39:687;17:46:39:611;-0.78529817;10.093954;-0.38307226
17:46:39:695;17:46:39:611;-0.78529817;10.093954;-0.38307226
17:46:39:703;17:46:39:611;-0.78529817;10.093954;-0.38307226
17:46:39:710;17:46:39:611;-0.78529817;10.093954;-0.38307226
17:46:39:718;17:46:39:611;-0.78529817;10.093954;-0.38307226
17:46:39:726;17:46:39:611;-0.78529817;10.093954;-0.38307226
17:46:39:734;17:46:39:730;0.30645782;9.615114;-0.2681506
17:46:39:742;17:46:39:730;0.30645782;9.615114;-0.2681506
17:46:39:750;17:46:39:730;0.30645782;9.615114;-0.2681506
17:46:39:757;17:46:39:730;0.30645782;9.615114;-0.2681506
17:46:39:765;17:46:39:730;0.30645782;9.615114;-0.2681506
17:46:39:773;17:46:39:730;0.30645782;9.615114;-0.2681506
17:46:39:781;17:46:39:730;0.30645782;9.615114;-0.2681506
17:46:39:789;17:46:39:730;0.30645782;9.615114;-0.2681506
17:46:39:796;17:46:39:730;0.30645782;9.615114;-0.2681506
17:46:39:804;17:46:39:730;0.30645782;9.615114;-0.2681506
17:46:39:812;17:46:39:730;0.30645782;9.615114;-0.2681506
17:46:39:820;17:46:39:730;0.30645782;9.615114;-0.2681506
17:46:39:828;17:46:39:730;0.30645782;9.615114;-0.2681506
17:46:39:835;17:46:39:730;0.30645782;9.615114;-0.2681506
17:46:39:843;17:46:39:730;0.30645782;9.615114;-0.2681506
17:46:39:851;17:46:39:850;0.5746084;9.959879;-0.49799395
17:46:39:859;17:46:39:850;0.5746084;9.959879;-0.49799395
17:46:39:867;17:46:39:850;0.5746084;9.959879;-0.49799395
17:46:39:875;17:46:39:850;0.5746084;9.959879;-0.49799395
17:46:39:882;17:46:39:850;0.5746084;9.959879;-0.49799395
17:46:39:890;17:46:39:850;0.5746084;9.959879;-0.49799395
17:46:39:898;17:46:39:850;0.5746084;9.959879;-0.49799395
17:46:39:906;17:46:39:850;0.5746084;9.959879;-0.49799395
17:46:39:914;17:46:39:850;0.5746084;9.959879;-0.49799395
17:46:39:921;17:46:39:850;0.5746084;9.959879;-0.49799395
17:46:39:929;17:46:39:850;0.5746084;9.959879;-0.49799395
17:46:39:937;17:46:39:850;0.5746084;9.959879;-0.49799395
17:46:39:945;17:46:39:850;0.5746084;9.959879;-0.49799395
17:46:39:953;17:46:39:850;0.5746084;9.959879;-0.49799395
17:46:39:960;17:46:39:850;0.5746084;9.959879;-0.49799395
17:46:39:968;17:46:39:963;0.9768343;8.848969;0.4405331
17:46:39:976;17:46:39:963;0.9768343;8.848969;0.4405331
17:46:39:984;17:46:39:963;0.9768343;8.848969;0.4405331
17:46:39:992;17:46:39:963;0.9768343;8.848969;0.4405331
17:46:40:000;17:46:39:963;0.9768343;8.848969;0.4405331
17:46:40:007;17:46:39:963;0.9768343;8.848969;0.4405331
17:46:40:015;17:46:39:963;0.9768343;8.848969;0.4405331
17:46:40:023;17:46:39:963;0.9768343;8.848969;0.4405331
17:46:40:031;17:46:39:963;0.9768343;8.848969;0.4405331
17:46:40:039;17:46:39:963;0.9768343;8.848969;0.4405331
17:46:40:046;17:46:39:963;0.9768343;8.848969;0.4405331
17:46:40:054;17:46:39:963;0.9768343;8.848969;0.4405331
17:46:40:062;17:46:39:963;0.9768343;8.848969;0.4405331
17:46:40:070;17:46:39:963;0.9768343;8.848969;0.4405331
17:46:40:078;17:46:39:963;0.9768343;8.848969;0.4405331
17:46:40:085;17:46:40:083;0.7278373;9.998186;-0.34476504
17:46:40:093;17:46:40:083;0.7278373;9.998186;-0.34476504
17:46:40:101;17:46:40:083;0.7278373;9.998186;-0.34476504
17:46:40:109;17:46:40:083;0.7278373;9.998186;-0.34476504
17:46:40:117;17:46:40:083;0.7278373;9.998186;-0.34476504
17:46:40:125;17:46:40:083;0.7278373;9.998186;-0.34476504
17:46:40:132;17:46:40:083;0.7278373;9.998186;-0.34476504
17:46:40:140;17:46:40:083;0.7278373;9.998186;-0.34476504
17:46:40:148;17:46:40:083;0.7278373;9.998186;-0.34476504
17:46:40:156;17:46:40:083;0.7278373;9.998186;-0.34476504
17:46:40:164;17:46:40:083;0.7278373;9.998186;-0.34476504
17:46:40:171;17:46:40:083;0.7278373;9.998186;-0.34476504
17:46:40:179;17:46:40:083;0.7278373;9.998186;-0.34476504
17:46:40:187;17:46:40:083;0.7278373;9.998186;-0.34476504
17:46:40:195;17:46:40:083;0.7278373;9.998186;-0.34476504
17:46:40:203;17:46:40:198;0.6895301;10.91756;-0.38307226
17:46:40:210;17:46:40:198;0.6895301;10.91756;-0.38307226
17:46:40:218;17:46:40:198;0.6895301;10.91756;-0.38307226
17:46:40:226;17:46:40:198;0.6895301;10.91756;-0.38307226
17:46:40:234;17:46:40:198;0.6895301;10.91756;-0.38307226
17:46:40:242;17:46:40:198;0.6895301;10.91756;-0.38307226
17:46:40:250;17:46:40:198;0.6895301;10.91756;-0.38307226
17:46:40:257;17:46:40:198;0.6895301;10.91756;-0.38307226
17:46:40:265;17:46:40:198;0.6895301;10.91756;-0.38307226
17:46:40:273;17:46:40:198;0.6895301;10.91756;-0.38307226
17:46:40:281;17:46:40:198;0.6895301;10.91756;-0.38307226
17:46:40:289;17:46:40:198;0.6895301;10.91756;-0.38307226
17:46:40:296;17:46:40:198;0.6895301;10.91756;-0.38307226
17:46:40:304;17:46:40:198;0.6895301;10.91756;-0.38307226
17:46:40:312;17:46:40:198;0.6895301;10.91756;-0.38307226
17:46:40:320;17:46:40:316;0.6512229;9.710882;-0.038307227
17:46:40:328;17:46:40:316;0.6512229;9.710882;-0.038307227
17:46:40:335;17:46:40:316;0.6512229;9.710882;-0.038307227
17:46:40:343;17:46:40:316;0.6512229;9.710882;-0.038307227
17:46:40:351;17:46:40:316;0.6512229;9.710882;-0.038307227
17:46:40:359;17:46:40:316;0.6512229;9.710882;-0.038307227
17:46:40:367;17:46:40:316;0.6512229;9.710882;-0.038307227
17:46:40:375;17:46:40:316;0.6512229;9.710882;-0.038307227
17:46:40:382;17:46:40:316;0.6512229;9.710882;-0.038307227
17:46:40:390;17:46:40:316;0.6512229;9.710882;-0.038307227
17:46:40:398;17:46:40:316;0.6512229;9.710882;-0.038307227
17:46:40:406;17:46:40:316;0.6512229;9.710882;-0.038307227
17:46:40:414;17:46:40:316;0.6512229;9.710882;-0.038307227
17:46:40:421;17:46:40:316;0.6512229;9.710882;-0.038307227
17:46:40:429;17:46:40:316;0.6512229;9.710882;-0.038307227
17:46:40:437;17:46:40:435;0.49799395;10.151415;-0.59376204
17:46:40:445;17:46:40:435;0.49799395;10.151415;-0.59376204
17:46:40:453;17:46:40:435;0.49799395;10.151415;-0.59376204
17:46:40:460;17:46:40:435;0.49799395;10.151415;-0.59376204
17:46:40:468;17:46:40:435;0.49799395;10.151415;-0.59376204
17:46:40:476;17:46:40:435;0.49799395;10.151415;-0.59376204
17:46:40:484;17:46:40:435;0.49799395;10.151415;-0.59376204
17:46:40:492;17:46:40:435;0.49799395;10.151415;-0.59376204
17:46:40:500;17:46:40:435;0.49799395;10.151415;-0.59376204
17:46:40:507;17:46:40:435;0.49799395;10.151415;-0.59376204
17:46:40:515;17:46:40:435;0.49799395;10.151415;-0.59376204
17:46:40:523;17:46:40:435;0.49799395;10.151415;-0.59376204
17:46:40:531;17:46:40:435;0.49799395;10.151415;-0.59376204
17:46:40:539;17:46:40:536;0.9768343;10.132261;-0.36391866
17:46:40:546;17:46:40:536;0.9768343;10.132261;-0.36391866
17:46:40:554;17:46:40:536;0.9768343;10.132261;-0.36391866
17:46:40:562;17:46:40:536;0.9768343;10.132261;-0.36391866
17:46:40:570;17:46:40:536;0.9768343;10.132261;-0.36391866
17:46:40:578;17:46:40:536;0.9768343;10.132261;-0.36391866
17:46:40:585;17:46:40:536;0.9768343;10.132261;-0.36391866
17:46:40:593;17:46:40:536;0.9768343;10.132261;-0.36391866
17:46:40:601;17:46:40:536;0.9768343;10.132261;-0.36391866
17:46:40:609;17:46:40:536;0.9768343;10.132261;-0.36391866
17:46:40:617;17:46:40:536;0.9768343;10.132261;-0.36391866
17:46:40:625;17:46:40:536;0.9768343;10.132261;-0.36391866
17:46:40:632;17:46:40:536;0.9768343;10.132261;-0.36391866
17:46:40:640;17:46:40:536;0.9768343;10.132261;-0.36391866
17:46:40:648;17:46:40:642;0.51714754;10.036493;-0.7661445
17:46:40:656;17:46:40:642;0.51714754;10.036493;-0.7661445
17:46:40:664;17:46:40:642;0.51714754;10.036493;-0.7661445
17:46:40:671;17:46:40:642;0.51714754;10.036493;-0.7661445
17:46:40:679;17:46:40:642;0.51714754;10.036493;-0.7661445
17:46:40:687;17:46:40:642;0.51714754;10.036493;-0.7661445
17:46:40:695;17:46:40:642;0.51714754;10.036493;-0.7661445
17:46:40:703;17:46:40:642;0.51714754;10.036493;-0.7661445
17:46:40:710;17:46:40:642;0.51714754;10.036493;-0.7661445
17:46:40:718;17:46:40:642;0.51714754;10.036493;-0.7661445
17:46:40:726;17:46:40:642;0.51714754;10.036493;-0.7661445
17:46:40:734;17:46:40:642;0.51714754;10.036493;-0.7661445
17:46:40:742;17:46:40:642;0.51714754;10.036493;-0.7661445
17:46:40:750;17:46:40:748;1.1875241;9.691729;0.15322891
17:46:40:757;17:46:40:748;1.1875241;9.691729;0.15322891
17:46:40:765;17:46:40:748;1.1875241;9.691729;0.15322891
17:46:40:773;17:46:40:748;1.1875241;9.691729;0.15322891
17:46:40:781;17:46:40:748;1.1875241;9.691729;0.15322891
17:46:40:789;17:46:40:748;1.1875241;9.691729;0.15322891
17:46:40:796;17:46:40:748;1.1875241;9.691729;0.15322891
17:46:40:804;17:46:40:748;1.1875241;9.691729;0.15322891
17:46:40:812;17:46:40:748;1.1875241;9.691729;0.15322891
17:46:40:820;17:46:40:748;1.1875241;9.691729;0.15322891
17:46:40:828;17:46:40:748;1.1875241;9.691729;0.15322891
17:46:40:835;17:46:40:748;1.1875241;9.691729;0.15322891
17:46:40:843;17:46:40:748;1.1875241;9.691729;0.15322891
17:46:40:851;17:46:40:851;0.38307226;10.208876;-0.61291564
17:46:40:859;17:46:40:851;0.38307226;10.208876;-0.61291564
17:46:40:867;17:46:40:851;0.38307226;10.208876;-0.61291564
17:46:40:875;17:46:40:851;0.38307226;10.208876;-0.61291564
17:46:40:882;17:46:40:851;0.38307226;10.208876;-0.61291564
17:46:40:890;17:46:40:851;0.38307226;10.208876;-0.61291564
17:46:40:898;17:46:40:851;0.38307226;10.208876;-0.61291564
17:46:40:906;17:46:40:851;0.38307226;10.208876;-0.61291564
17:46:40:914;17:46:40:851;0.38307226;10.208876;-0.61291564
17:46:40:921;17:46:40:851;0.38307226;10.208876;-0.61291564
17:46:40:929;17:46:40:851;0.38307226;10.208876;-0.61291564
17:46:40:937;17:46:40:851;0.38307226;10.208876;-0.61291564
17:46:40:945;17:46:40:851;0.38307226;10.208876;-0.61291564
17:46:40:953;17:46:40:851;0.38307226;10.208876;-0.61291564
17:46:40:960;17:46:40:851;0.38307226;10.208876;-0.61291564
17:46:40:968;17:46:40:968;0.7469909;10.055647;-0.4405331
17:46:40:976;17:46:40:968;0.7469909;10.055647;-0.4405331
17:46:40:984;17:46:40:968;0.7469909;10.055647;-0.4405331
17:46:40:992;17:46:40:968;0.7469909;10.055647;-0.4405331
17:46:41:000;17:46:40:968;0.7469909;10.055647;-0.4405331
17:46:41:007;17:46:40:968;0.7469909;10.055647;-0.4405331
17:46:41:015;17:46:40:968;0.7469909;10.055647;-0.4405331
17:46:41:023;17:46:40:968;0.7469909;10.055647;-0.4405331
17:46:41:031;17:46:40:968;0.7469909;10.055647;-0.4405331
17:46:41:039;17:46:40:968;0.7469909;10.055647;-0.4405331
17:46:41:046;17:46:40:968;0.7469909;10.055647;-0.4405331
17:46:41:054;17:46:40:968;0.7469909;10.055647;-0.4405331
17:46:41:062;17:46:40:968;0.7469909;10.055647;-0.4405331
17:46:41:070;17:46:40:968;0.7469909;10.055647;-0.4405331
17:46:41:078;17:46:41:073;-0.30645782;9.883265;-0.6703765
17:46:41:085;17:46:41:073;-0.30645782;9.883265;-0.6703765
17:46:41:093;17:46:41:073;-0.30645782;9.883265;-0.6703765
17:46:41:101;17:46:41:073;-0.30645782;9.883265;-0.6703765
17:46:41:109;17:46:41:073;-0.30645782;9.883265;-0.6703765
17:46:41:117;17:46:41:073;-0.30645782;9.883265;-0.6703765
17:46:41:125;17:46:41:073;-0.30645782;9.883265;-0.6703765
17:46:41:132;17:46:41:073;-0.30645782;9.883265;-0.6703765
17:46:41:140;17:46:41:073;-0.30645782;9.883265;-0.6703765
17:46:41:148;17:46:41:073;-0.30645782;9.883265;-0.6703765
17:46:41:156;17:46:41:073;-0.30645782;9.883265;-0.6703765
17:46:41:164;17:46:41:073;-0.30645782;9.883265;-0.6703765
17:46:41:171;17:46:41:073;-0.30645782;9.883265;-0.6703765
17:46:41:179;17:46:41:073;-0.30645782;9.883265;-0.6703765
17:46:41:187;17:46:41:185;0.93852705;9.519346;-0.4213795
17:46:41:195;17:46:41:185;0.93852705;9.519346;-0.4213795
17:46:41:203;17:46:41:185;0.93852705;9.519346;-0.4213795
17:46:41:210;17:46:41:185;0.93852705;9.519346;-0.4213795
17:46:41:218;17:46:41:185;0.93852705;9.519346;-0.4213795
17:46:41:226;17:46:41:185;0.93852705;9.519346;-0.4213795
17:46:41:234;17:46:41:185;0.93852705;9.519346;-0.4213795
17:46:41:242;17:46:41:185;0.93852705;9.519346;-0.4213795
17:46:41:250;17:46:41:185;0.93852705;9.519346;-0.4213795
17:46:41:257;17:46:41:185;0.93852705;9.519346;-0.4213795
17:46:41:265;17:46:41:185;0.93852705;9.519346;-0.4213795
17:46:41:273;17:46:41:185;0.93852705;9.519346;-0.4213795
17:46:41:281;17:46:41:185;0.93852705;9.519346;-0.4213795
17:46:41:289;17:46:41:185;0.93852705;9.519346;-0.4213795
17:46:41:296;17:46:41:185;0.93852705;9.519346;-0.4213795
17:46:41:304;17:46:41:303;0.93852705;10.936713;-0.6895301
17:46:41:312;17:46:41:303;0.93852705;10.936713;-0.6895301
17:46:41:320;17:46:41:303;0.93852705;10.936713;-0.6895301
17:46:41:328;17:46:41:303;0.93852705;10.936713;-0.6895301
17:46:41:335;17:46:41:303;0.93852705;10.936713;-0.6895301
17:46:41:343;17:46:41:303;0.93852705;10.936713;-0.6895301
17:46:41:351;17:46:41:303;0.93852705;10.936713;-0.6895301
17:46:41:359;17:46:41:303;0.93852705;10.936713;-0.6895301
17:46:41:367;17:46:41:303;0.93852705;10.936713;-0.6895301
17:46:41:375;17:46:41:303;0.93852705;10.936713;-0.6895301
17:46:41:382;17:46:41:303;0.93852705;10.936713;-0.6895301
17:46:41:390;17:46:41:303;0.93852705;10.936713;-0.6895301
17:46:41:398;17:46:41:303;0.93852705;10.936713;-0.6895301
17:46:41:406;17:46:41:303;0.93852705;10.936713;-0.6895301
17:46:41:414;17:46:41:303;0.93852705;10.936713;-0.6895301
17:46:41:421;17:46:41:419;0.36391866;10.496181;-0.36391866
17:46:41:429;17:46:41:419;0.36391866;10.496181;-0.36391866
17:46:41:437;17:46:41:419;0.36391866;10.496181;-0.36391866
17:46:41:445;17:46:41:419;0.36391866;10.496181;-0.36391866
17:46:41:453;17:46:41:419;0.36391866;10.496181;-0.36391866
17:46:41:460;17:46:41:419;0.36391866;10.496181;-0.36391866
17:46:41:468;17:46:41:419;0.36391866;10.496181;-0.36391866
17:46:41:476;17:46:41:419;0.36391866;10.496181;-0.36391866
17:46:41:484;17:46:41:419;0.36391866;10.496181;-0.36391866
17:46:41:492;17:46:41:419;0.36391866;10.496181;-0.36391866
17:46:41:500;17:46:41:419;0.36391866;10.496181;-0.36391866
17:46:41:507;17:46:41:419;0.36391866;10.496181;-0.36391866
17:46:41:515;17:46:41:419;0.36391866;10.496181;-0.36391866
17:46:41:523;17:46:41:419;0.36391866;10.496181;-0.36391866
17:46:41:531;17:46:41:419;0.36391866;10.496181;-0.36391866
17:46:41:539;17:46:41:536;0.15322891;10.036493;0.24899697
17:46:41:546;17:46:41:536;0.15322891;10.036493;0.24899697
17:46:41:554;17:46:41:536;0.15322891;10.036493;0.24899697
17:46:41:562;17:46:41:536;0.15322891;10.036493;0.24899697
17:46:41:570;17:46:41:536;0.15322891;10.036493;0.24899697
17:46:41:578;17:46:41:536;0.15322891;10.036493;0.24899697
17:46:41:585;17:46:41:536;0.15322891;10.036493;0.24899697
17:46:41:593;17:46:41:536;0.15322891;10.036493;0.24899697
17:46:41:601;17:46:41:536;0.15322891;10.036493;0.24899697
17:46:41:609;17:46:41:536;0.15322891;10.036493;0.24899697
17:46:41:617;17:46:41:536;0.15322891;10.036493;0.24899697
17:46:41:625;17:46:41:536;0.15322891;10.036493;0.24899697
17:46:41:632;17:46:41:536;0.15322891;10.036493;0.24899697
17:46:41:640;17:46:41:536;0.15322891;10.036493;0.24899697
17:46:41:648;17:46:41:536;0.15322891;10.036493;0.24899697
17:46:41:656;17:46:41:654;-0.40222588;9.998186;-0.36391866
17:46:41:664;17:46:41:654;-0.40222588;9.998186;-0.36391866
17:46:41:671;17:46:41:654;-0.40222588;9.998186;-0.36391866
17:46:41:679;17:46:41:654;-0.40222588;9.998186;-0.36391866
17:46:41:687;17:46:41:654;-0.40222588;9.998186;-0.36391866
17:46:41:695;17:46:41:654;-0.40222588;9.998186;-0.36391866
17:46:41:703;17:46:41:654;-0.40222588;9.998186;-0.36391866
17:46:41:710;17:46:41:654;-0.40222588;9.998186;-0.36391866
17:46:41:718;17:46:41:654;-0.40222588;9.998186;-0.36391866
17:46:41:726;17:46:41:654;-0.40222588;9.998186;-0.36391866
17:46:41:734;17:46:41:654;-0.40222588;9.998186;-0.36391866
17:46:41:742;17:46:41:654;-0.40222588;9.998186;-0.36391866
17:46:41:750;17:46:41:654;-0.40222588;9.998186;-0.36391866
17:46:41:757;17:46:41:654;-0.40222588;9.998186;-0.36391866
17:46:41:765;17:46:41:654;-0.40222588;9.998186;-0.36391866
17:46:41:773;17:46:41:771;-0.36391866;9.040505;-0.36391866
17:46:41:781;17:46:41:771;-0.36391866;9.040505;-0.36391866
17:46:41:789;17:46:41:771;-0.36391866;9.040505;-0.36391866
17:46:41:796;17:46:41:771;-0.36391866;9.040505;-0.36391866
17:46:41:804;17:46:41:771;-0.36391866;9.040505;-0.36391866
17:46:41:812;17:46:41:771;-0.36391866;9.040505;-0.36391866
17:46:41:820;17:46:41:771;-0.36391866;9.040505;-0.36391866
17:46:41:828;17:46:41:771;-0.36391866;9.040505;-0.36391866
17:46:41:835;17:46:41:771;-0.36391866;9.040505;-0.36391866
17:46:41:843;17:46:41:771;-0.36391866;9.040505;-0.36391866
17:46:41:851;17:46:41:771;-0.36391866;9.040505;-0.36391866
17:46:41:859;17:46:41:771;-0.36391866;9.040505;-0.36391866
17:46:41:867;17:46:41:771;-0.36391866;9.040505;-0.36391866
17:46:41:875;17:46:41:872;-0.6703765;10.228029;-0.24899697
17:46:41:882;17:46:41:872;-0.6703765;10.228029;-0.24899697
17:46:41:890;17:46:41:872;-0.6703765;10.228029;-0.24899697
17:46:41:898;17:46:41:872;-0.6703765;10.228029;-0.24899697
17:46:41:906;17:46:41:872;-0.6703765;10.228029;-0.24899697
17:46:41:914;17:46:41:872;-0.6703765;10.228029;-0.24899697
17:46:41:921;17:46:41:872;-0.6703765;10.228029;-0.24899697
17:46:41:929;17:46:41:872;-0.6703765;10.228029;-0.24899697
17:46:41:937;17:46:41:872;-0.6703765;10.228029;-0.24899697
17:46:41:945;17:46:41:872;-0.6703765;10.228029;-0.24899697
17:46:41:953;17:46:41:872;-0.6703765;10.228029;-0.24899697
17:46:41:960;17:46:41:872;-0.6703765;10.228029;-0.24899697
17:46:41:968;17:46:41:872;-0.6703765;10.228029;-0.24899697
17:46:41:976;17:46:41:872;-0.6703765;10.228029;-0.24899697
17:46:41:984;17:46:41:872;-0.6703765;10.228029;-0.24899697
17:46:41:992;17:46:41:987;-0.47884035;9.998186;-0.6512229
17:46:42:000;17:46:41:987;-0.47884035;9.998186;-0.6512229
17:46:42:007;17:46:41:987;-0.47884035;9.998186;-0.6512229
17:46:42:015;17:46:41:987;-0.47884035;9.998186;-0.6512229
17:46:42:023;17:46:41:987;-0.47884035;9.998186;-0.6512229
17:46:42:031;17:46:41:987;-0.47884035;9.998186;-0.6512229
17:46:42:039;17:46:41:987;-0.47884035;9.998186;-0.6512229
17:46:42:046;17:46:41:987;-0.47884035;9.998186;-0.6512229
17:46:42:054;17:46:41:987;-0.47884035;9.998186;-0.6512229
17:46:42:062;17:46:41:987;-0.47884035;9.998186;-0.6512229
17:46:42:070;17:46:41:987;-0.47884035;9.998186;-0.6512229
17:46:42:078;17:46:41:987;-0.47884035;9.998186;-0.6512229
17:46:42:085;17:46:41:987;-0.47884035;9.998186;-0.6512229
17:46:42:093;17:46:42:088;-0.93852705;10.036493;-0.63206923
17:46:42:101;17:46:42:088;-0.93852705;10.036493;-0.63206923
17:46:42:109;17:46:42:088;-0.93852705;10.036493;-0.63206923
17:46:42:117;17:46:42:088;-0.93852705;10.036493;-0.63206923
17:46:42:125;17:46:42:088;-0.93852705;10.036493;-0.63206923
17:46:42:132;17:46:42:088;-0.93852705;10.036493;-0.63206923
17:46:42:140;17:46:42:088;-0.93852705;10.036493;-0.63206923
17:46:42:148;17:46:42:088;-0.93852705;10.036493;-0.63206923
17:46:42:156;17:46:42:088;-0.93852705;10.036493;-0.63206923
17:46:42:164;17:46:42:088;-0.93852705;10.036493;-0.63206923
17:46:42:171;17:46:42:088;-0.93852705;10.036493;-0.63206923
17:46:42:179;17:46:42:088;-0.93852705;10.036493;-0.63206923
17:46:42:187;17:46:42:088;-0.93852705;10.036493;-0.63206923
17:46:42:195;17:46:42:088;-0.93852705;10.036493;-0.63206923
17:46:42:203;17:46:42:203;-0.2873042;9.9790325;-0.47884035
17:46:42:210;17:46:42:203;-0.2873042;9.9790325;-0.47884035
17:46:42:218;17:46:42:203;-0.2873042;9.9790325;-0.47884035
17:46:42:226;17:46:42:203;-0.2873042;9.9790325;-0.47884035
17:46:42:234;17:46:42:203;-0.2873042;9.9790325;-0.47884035
17:46:42:242;17:46:42:203;-0.2873042;9.9790325;-0.47884035
17:46:42:250;17:46:42:203;-0.2873042;9.9790325;-0.47884035
17:46:42:257;17:46:42:203;-0.2873042;9.9790325;-0.47884035
17:46:42:265;17:46:42:203;-0.2873042;9.9790325;-0.47884035
17:46:42:273;17:46:42:203;-0.2873042;9.9790325;-0.47884035
17:46:42:281;17:46:42:203;-0.2873042;9.9790325;-0.47884035
17:46:42:289;17:46:42:203;-0.2873042;9.9790325;-0.47884035
17:46:42:296;17:46:42:203;-0.2873042;9.9790325;-0.47884035
17:46:42:304;17:46:42:203;-0.2873042;9.9790325;-0.47884035
17:46:42:312;17:46:42:203;-0.2873042;9.9790325;-0.47884035
17:46:42:320;17:46:42:203;-0.2873042;9.9790325;-0.47884035
17:46:42:328;17:46:42:321;-1.283292;10.381259;-0.59376204
17:46:42:335;17:46:42:321;-1.283292;10.381259;-0.59376204
17:46:42:343;17:46:42:321;-1.283292;10.381259;-0.59376204
17:46:42:351;17:46:42:321;-1.283292;10.381259;-0.59376204
17:46:42:359;17:46:42:321;-1.283292;10.381259;-0.59376204
17:46:42:367;17:46:42:321;-1.283292;10.381259;-0.59376204
17:46:42:375;17:46:42:321;-1.283292;10.381259;-0.59376204
17:46:42:382;17:46:42:321;-1.283292;10.381259;-0.59376204
17:46:42:390;17:46:42:321;-1.283292;10.381259;-0.59376204
17:46:42:398;17:46:42:321;-1.283292;10.381259;-0.59376204
17:46:42:406;17:46:42:321;-1.283292;10.381259;-0.59376204
17:46:42:414;17:46:42:321;-1.283292;10.381259;-0.59376204
17:46:42:421;17:46:42:321;-1.283292;10.381259;-0.59376204
17:46:42:429;17:46:42:321;-1.283292;10.381259;-0.59376204
17:46:42:437;17:46:42:437;-0.51714754;9.193734;-0.32561144
17:46:42:445;17:46:42:437;-0.51714754;9.193734;-0.32561144
17:46:42:453;17:46:42:437;-0.51714754;9.193734;-0.32561144
17:46:42:460;17:46:42:437;-0.51714754;9.193734;-0.32561144
17:46:42:468;17:46:42:437;-0.51714754;9.193734;-0.32561144
17:46:42:476;17:46:42:437;-0.51714754;9.193734;-0.32561144
17:46:42:484;17:46:42:437;-0.51714754;9.193734;-0.32561144
17:46:42:492;17:46:42:437;-0.51714754;9.193734;-0.32561144
17:46:42:500;17:46:42:437;-0.51714754;9.193734;-0.32561144
17:46:42:507;17:46:42:437;-0.51714754;9.193734;-0.32561144
17:46:42:515;17:46:42:437;-0.51714754;9.193734;-0.32561144
17:46:42:523;17:46:42:437;-0.51714754;9.193734;-0.32561144
17:46:42:531;17:46:42:437;-0.51714754;9.193734;-0.32561144
17:46:42:539;17:46:42:437;-0.51714754;9.193734;-0.32561144
17:46:42:546;17:46:42:437;-0.51714754;9.193734;-0.32561144
17:46:42:554;17:46:42:437;-0.51714754;9.193734;-0.32561144
17:46:42:562;17:46:42:556;-0.11492168;9.864111;-0.30645782
17:46:42:570;17:46:42:556;-0.11492168;9.864111;-0.30645782
17:46:42:578;17:46:42:556;-0.11492168;9.864111;-0.30645782
17:46:42:585;17:46:42:556;-0.11492168;9.864111;-0.30645782
17:46:42:593;17:46:42:556;-0.11492168;9.864111;-0.30645782
17:46:42:601;17:46:42:556;-0.11492168;9.864111;-0.30645782
17:46:42:609;17:46:42:556;-0.11492168;9.864111;-0.30645782
17:46:42:617;17:46:42:556;-0.11492168;9.864111;-0.30645782
17:46:42:625;17:46:42:556;-0.11492168;9.864111;-0.30645782
17:46:42:632;17:46:42:556;-0.11492168;9.864111;-0.30645782
17:46:42:640;17:46:42:556;-0.11492168;9.864111;-0.30645782
17:46:42:648;17:46:42:556;-0.11492168;9.864111;-0.30645782
17:46:42:656;17:46:42:556;-0.11492168;9.864111;-0.30645782
17:46:42:664;17:46:42:556;-0.11492168;9.864111;-0.30645782
17:46:42:671;17:46:42:556;-0.11492168;9.864111;-0.30645782
17:46:42:679;17:46:42:673;0.095768064;9.883265;0.34476504
17:46:42:687;17:46:42:673;0.095768064;9.883265;0.34476504
17:46:42:695;17:46:42:673;0.095768064;9.883265;0.34476504
17:46:42:703;17:46:42:673;0.095768064;9.883265;0.34476504
17:46:42:710;17:46:42:673;0.095768064;9.883265;0.34476504
17:46:42:718;17:46:42:673;0.095768064;9.883265;0.34476504
17:46:42:726;17:46:42:673;0.095768064;9.883265;0.34476504
17:46:42:734;17:46:42:673;0.095768064;9.883265;0.34476504
17:46:42:742;17:46:42:673;0.095768064;9.883265;0.34476504
17:46:42:750;17:46:42:673;0.095768064;9.883265;0.34476504
17:46:42:757;17:46:42:673;0.095768064;9.883265;0.34476504
17:46:42:765;17:46:42:673;0.095768064;9.883265;0.34476504
17:46:42:773;17:46:42:673;0.095768064;9.883265;0.34476504
17:46:42:781;17:46:42:673;0.095768064;9.883265;0.34476504
17:46:42:789;17:46:42:789;-0.22984336;10.43872;-0.038307227
17:46:42:796;17:46:42:789;-0.22984336;10.43872;-0.038307227
17:46:42:804;17:46:42:789;-0.22984336;10.43872;-0.038307227
17:46:42:812;17:46:42:789;-0.22984336;10.43872;-0.038307227
17:46:42:820;17:46:42:789;-0.22984336;10.43872;-0.038307227
17:46:42:828;17:46:42:789;-0.22984336;10.43872;-0.038307227
17:46:42:835;17:46:42:789;-0.22984336;10.43872;-0.038307227
17:46:42:843;17:46:42:789;-0.22984336;10.43872;-0.038307227
17:46:42:851;17:46:42:789;-0.22984336;10.43872;-0.038307227
17:46:42:859;17:46:42:789;-0.22984336;10.43872;-0.038307227
17:46:42:867;17:46:42:789;-0.22984336;10.43872;-0.038307227
17:46:42:875;17:46:42:789;-0.22984336;10.43872;-0.038307227
17:46:42:882;17:46:42:789;-0.22984336;10.43872;-0.038307227
17:46:42:890;17:46:42:789;-0.22984336;10.43872;-0.038307227
17:46:42:898;17:46:42:789;-0.22984336;10.43872;-0.038307227
17:46:42:906;17:46:42:789;-0.22984336;10.43872;-0.038307227
17:46:42:914;17:46:42:907;-0.82360536;10.055647;0.038307227
17:46:42:921;17:46:42:907;-0.82360536;10.055647;0.038307227
17:46:42:929;17:46:42:907;-0.82360536;10.055647;0.038307227
17:46:42:937;17:46:42:907;-0.82360536;10.055647;0.038307227
17:46:42:945;17:46:42:907;-0.82360536;10.055647;0.038307227
17:46:42:953;17:46:42:907;-0.82360536;10.055647;0.038307227
17:46:42:960;17:46:42:907;-0.82360536;10.055647;0.038307227
17:46:42:968;17:46:42:907;-0.82360536;10.055647;0.038307227
17:46:42:976;17:46:42:907;-0.82360536;10.055647;0.038307227
17:46:42:984;17:46:42:907;-0.82360536;10.055647;0.038307227
17:46:42:992;17:46:42:907;-0.82360536;10.055647;0.038307227
17:46:43:000;17:46:42:907;-0.82360536;10.055647;0.038307227
17:46:43:007;17:46:42:907;-0.82360536;10.055647;0.038307227
17:46:43:015;17:46:42:907;-0.82360536;10.055647;0.038307227
17:46:43:023;17:46:43:023;-0.8810662;10.208876;-0.6895301
17:46:43:031;17:46:43:023;-0.8810662;10.208876;-0.6895301
17:46:43:039;17:46:43:023;-0.8810662;10.208876;-0.6895301
17:46:43:046;17:46:43:023;-0.8810662;10.208876;-0.6895301
17:46:43:054;17:46:43:023;-0.8810662;10.208876;-0.6895301
17:46:43:062;17:46:43:023;-0.8810662;10.208876;-0.6895301
17:46:43:070;17:46:43:023;-0.8810662;10.208876;-0.6895301
17:46:43:078;17:46:43:023;-0.8810662;10.208876;-0.6895301
17:46:43:085;17:46:43:023;-0.8810662;10.208876;-0.6895301
17:46:43:093;17:46:43:023;-0.8810662;10.208876;-0.6895301
17:46:43:101;17:46:43:023;-0.8810662;10.208876;-0.6895301
17:46:43:109;17:46:43:023;-0.8810662;10.208876;-0.6895301
17:46:43:117;17:46:43:023;-0.8810662;10.208876;-0.6895301
17:46:43:125;17:46:43:023;-0.8810662;10.208876;-0.6895301
17:46:43:132;17:46:43:023;-0.8810662;10.208876;-0.6895301
17:46:43:140;17:46:43:023;-0.8810662;10.208876;-0.6895301
17:46:43:148;17:46:43:141;-1.2258313;10.323798;-0.7278373
17:46:43:156;17:46:43:141;-1.2258313;10.323798;-0.7278373
17:46:43:164;17:46:43:141;-1.2258313;10.323798;-0.7278373
17:46:43:171;17:46:43:141;-1.2258313;10.323798;-0.7278373
17:46:43:179;17:46:43:141;-1.2258313;10.323798;-0.7278373
17:46:43:187;17:46:43:141;-1.2258313;10.323798;-0.7278373
17:46:43:195;17:46:43:141;-1.2258313;10.323798;-0.7278373
17:46:43:203;17:46:43:141;-1.2258313;10.323798;-0.7278373
17:46:43:210;17:46:43:141;-1.2258313;10.323798;-0.7278373
17:46:43:218;17:46:43:141;-1.2258313;10.323798;-0.7278373
17:46:43:226;17:46:43:141;-1.2258313;10.323798;-0.7278373
17:46:43:234;17:46:43:141;-1.2258313;10.323798;-0.7278373
17:46:43:242;17:46:43:141;-1.2258313;10.323798;-0.7278373
17:46:43:250;17:46:43:141;-1.2258313;10.323798;-0.7278373
17:46:43:257;17:46:43:141;-1.2258313;10.323798;-0.7278373
17:46:43:265;17:46:43:258;-0.93852705;9.730036;-0.05746084
17:46:43:273;17:46:43:258;-0.93852705;9.730036;-0.05746084
17:46:43:281;17:46:43:258;-0.93852705;9.730036;-0.05746084
17:46:43:289;17:46:43:258;-0.93852705;9.730036;-0.05746084
17:46:43:296;17:46:43:258;-0.93852705;9.730036;-0.05746084
17:46:43:304;17:46:43:258;-0.93852705;9.730036;-0.05746084
17:46:43:312;17:46:43:258;-0.93852705;9.730036;-0.05746084
17:46:43:320;17:46:43:258;-0.93852705;9.730036;-0.05746084
17:46:43:328;17:46:43:258;-0.93852705;9.730036;-0.05746084
17:46:43:335;17:46:43:258;-0.93852705;9.730036;-0.05746084
17:46:43:343;17:46:43:258;-0.93852705;9.730036;-0.05746084
17:46:43:351;17:46:43:258;-0.93852705;9.730036;-0.05746084
17:46:43:359;17:46:43:258;-0.93852705;9.730036;-0.05746084
17:46:43:367;17:46:43:258;-0.93852705;9.730036;-0.05746084
17:46:43:375;17:46:43:375;-0.7086837;10.170568;0.11492168
17:46:43:382;17:46:43:375;-0.7086837;10.170568;0.11492168
17:46:43:390;17:46:43:375;-0.7086837;10.170568;0.11492168
17:46:43:398;17:46:43:375;-0.7086837;10.170568;0.11492168
17:46:43:406;17:46:43:375;-0.7086837;10.170568;0.11492168
17:46:43:414;17:46:43:375;-0.7086837;10.170568;0.11492168
17:46:43:421;17:46:43:375;-0.7086837;10.170568;0.11492168
17:46:43:429;17:46:43:375;-0.7086837;10.170568;0.11492168
17:46:43:437;17:46:43:375;-0.7086837;10.170568;0.11492168
17:46:43:445;17:46:43:375;-0.7086837;10.170568;0.11492168
17:46:43:453;17:46:43:375;-0.7086837;10.170568;0.11492168
17:46:43:460;17:46:43:375;-0.7086837;10.170568;0.11492168
17:46:43:468;17:46:43:375;-0.7086837;10.170568;0.11492168
17:46:43:476;17:46:43:375;-0.7086837;10.170568;0.11492168
17:46:43:484;17:46:43:477;-0.40222588;10.113108;0.1340753
17:46:43:492;17:46:43:477;-0.40222588;10.113108;0.1340753
17:46:43:500;17:46:43:477;-0.40222588;10.113108;0.1340753
17:46:43:507;17:46:43:477;-0.40222588;10.113108;0.1340753
17:46:43:515;17:46:43:477;-0.40222588;10.113108;0.1340753
17:46:43:523;17:46:43:477;-0.40222588;10.113108;0.1340753
17:46:43:531;17:46:43:477;-0.40222588;10.113108;0.1340753
17:46:43:539;17:46:43:477;-0.40222588;10.113108;0.1340753
17:46:43:546;17:46:43:477;-0.40222588;10.113108;0.1340753
17:46:43:554;17:46:43:477;-0.40222588;10.113108;0.1340753
17:46:43:562;17:46:43:477;-0.40222588;10.113108;0.1340753
17:46:43:570;17:46:43:477;-0.40222588;10.113108;0.1340753
17:46:43:578;17:46:43:477;-0.40222588;10.113108;0.1340753
17:46:43:585;17:46:43:477;-0.40222588;10.113108;0.1340753
17:46:43:593;17:46:43:592;-0.38307226;9.864111;0.2681506
17:46:43:601;17:46:43:592;-0.38307226;9.864111;0.2681506
17:46:43:609;17:46:43:592;-0.38307226;9.864111;0.2681506
17:46:43:617;17:46:43:592;-0.38307226;9.864111;0.2681506
17:46:43:625;17:46:43:592;-0.38307226;9.864111;0.2681506
17:46:43:632;17:46:43:592;-0.38307226;9.864111;0.2681506
17:46:43:640;17:46:43:592;-0.38307226;9.864111;0.2681506
17:46:43:648;17:46:43:592;-0.38307226;9.864111;0.2681506
17:46:43:656;17:46:43:592;-0.38307226;9.864111;0.2681506
17:46:43:664;17:46:43:592;-0.38307226;9.864111;0.2681506
17:46:43:671;17:46:43:592;-0.38307226;9.864111;0.2681506
17:46:43:679;17:46:43:592;-0.38307226;9.864111;0.2681506
17:46:43:687;17:46:43:592;-0.38307226;9.864111;0.2681506
17:46:43:695;17:46:43:592;-0.38307226;9.864111;0.2681506
17:46:43:703;17:46:43:592;-0.38307226;9.864111;0.2681506
17:46:43:710;17:46:43:710;-0.30645782;9.021352;0.30645782
17:46:43:718;17:46:43:710;-0.30645782;9.021352;0.30645782
17:46:43:726;17:46:43:710;-0.30645782;9.021352;0.30645782
17:46:43:734;17:46:43:710;-0.30645782;9.021352;0.30645782
17:46:43:742;17:46:43:710;-0.30645782;9.021352;0.30645782
17:46:43:750;17:46:43:710;-0.30645782;9.021352;0.30645782
17:46:43:757;17:46:43:710;-0.30645782;9.021352;0.30645782
17:46:43:765;17:46:43:710;-0.30645782;9.021352;0.30645782
17:46:43:773;17:46:43:710;-0.30645782;9.021352;0.30645782
17:46:43:781;17:46:43:710;-0.30645782;9.021352;0.30645782
17:46:43:789;17:46:43:710;-0.30645782;9.021352;0.30645782
17:46:43:796;17:46:43:710;-0.30645782;9.021352;0.30645782
17:46:43:804;17:46:43:710;-0.30645782;9.021352;0.30645782
17:46:43:812;17:46:43:710;-0.30645782;9.021352;0.30645782
17:46:43:820;17:46:43:710;-0.30645782;9.021352;0.30645782
17:46:43:828;17:46:43:827;-1.1683705;10.457873;-0.9576807
17:46:43:835;17:46:43:827;-1.1683705;10.457873;-0.9576807
17:46:43:843;17:46:43:827;-1.1683705;10.457873;-0.9576807
17:46:43:851;17:46:43:827;-1.1683705;10.457873;-0.9576807
17:46:43:859;17:46:43:827;-1.1683705;10.457873;-0.9576807
17:46:43:867;17:46:43:827;-1.1683705;10.457873;-0.9576807
17:46:43:875;17:46:43:827;-1.1683705;10.457873;-0.9576807
17:46:43:882;17:46:43:827;-1.1683705;10.457873;-0.9576807
17:46:43:890;17:46:43:827;-1.1683705;10.457873;-0.9576807
17:46:43:898;17:46:43:827;-1.1683705;10.457873;-0.9576807
17:46:43:906;17:46:43:827;-1.1683705;10.457873;-0.9576807
17:46:43:914;17:46:43:827;-1.1683705;10.457873;-0.9576807
17:46:43:921;17:46:43:827;-1.1683705;10.457873;-0.9576807
17:46:43:929;17:46:43:827;-1.1683705;10.457873;-0.9576807
17:46:43:937;17:46:43:827;-1.1683705;10.457873;-0.9576807
17:46:43:945;17:46:43:944;-1.6663644;9.289502;0.21068975
17:46:43:953;17:46:43:944;-1.6663644;9.289502;0.21068975
17:46:43:960;17:46:43:944;-1.6663644;9.289502;0.21068975
17:46:43:968;17:46:43:944;-1.6663644;9.289502;0.21068975
17:46:43:976;17:46:43:944;-1.6663644;9.289502;0.21068975
17:46:43:984;17:46:43:944;-1.6663644;9.289502;0.21068975
17:46:43:992;17:46:43:944;-1.6663644;9.289502;0.21068975
17:46:44:000;17:46:43:944;-1.6663644;9.289502;0.21068975
17:46:44:007;17:46:43:944;-1.6663644;9.289502;0.21068975
17:46:44:015;17:46:43:944;-1.6663644;9.289502;0.21068975
17:46:44:023;17:46:43:944;-1.6663644;9.289502;0.21068975
17:46:44:031;17:46:43:944;-1.6663644;9.289502;0.21068975
17:46:44:039;17:46:43:944;-1.6663644;9.289502;0.21068975
17:46:44:046;17:46:43:944;-1.6663644;9.289502;0.21068975
17:46:44:054;17:46:43:944;-1.6663644;9.289502;0.21068975
17:46:44:062;17:46:44:062;-1.0534488;10.304645;-0.36391866
17:46:44:070;17:46:44:062;-1.0534488;10.304645;-0.36391866
17:46:44:078;17:46:44:062;-1.0534488;10.304645;-0.36391866
17:46:44:085;17:46:44:062;-1.0534488;10.304645;-0.36391866
17:46:44:093;17:46:44:062;-1.0534488;10.304645;-0.36391866
17:46:44:101;17:46:44:062;-1.0534488;10.304645;-0.36391866
17:46:44:109;17:46:44:062;-1.0534488;10.304645;-0.36391866
17:46:44:117;17:46:44:062;-1.0534488;10.304645;-0.36391866
17:46:44:125;17:46:44:062;-1.0534488;10.304645;-0.36391866
17:46:44:132;17:46:44:062;-1.0534488;10.304645;-0.36391866
17:46:44:140;17:46:44:062;-1.0534488;10.304645;-0.36391866
17:46:44:148;17:46:44:062;-1.0534488;10.304645;-0.36391866
17:46:44:156;17:46:44:062;-1.0534488;10.304645;-0.36391866
17:46:44:164;17:46:44:062;-1.0534488;10.304645;-0.36391866
17:46:44:171;17:46:44:062;-1.0534488;10.304645;-0.36391866
17:46:44:179;17:46:44:062;-1.0534488;10.304645;-0.36391866
17:46:44:187;17:46:44:180;-0.93852705;9.730036;0.11492168
17:46:44:195;17:46:44:180;-0.93852705;9.730036;0.11492168
17:46:44:203;17:46:44:180;-0.93852705;9.730036;0.11492168
17:46:44:210;17:46:44:180;-0.93852705;9.730036;0.11492168
17:46:44:218;17:46:44:180;-0.93852705;9.730036;0.11492168
17:46:44:226;17:46:44:180;-0.93852705;9.730036;0.11492168
17:46:44:234;17:46:44:180;-0.93852705;9.730036;0.11492168
17:46:44:242;17:46:44:180;-0.93852705;9.730036;0.11492168
17:46:44:250;17:46:44:180;-0.93852705;9.730036;0.11492168
17:46:44:257;17:46:44:180;-0.93852705;9.730036;0.11492168
17:46:44:265;17:46:44:180;-0.93852705;9.730036;0.11492168
17:46:44:273;17:46:44:180;-0.93852705;9.730036;0.11492168
17:46:44:281;17:46:44:180;-0.93852705;9.730036;0.11492168
17:46:44:289;17:46:44:180;-0.93852705;9.730036;0.11492168
17:46:44:296;17:46:44:295;-0.5746084;11.204864;-0.4213795
17:46:44:304;17:46:44:295;-0.5746084;11.204864;-0.4213795
17:46:44:312;17:46:44:295;-0.5746084;11.204864;-0.4213795
17:46:44:320;17:46:44:295;-0.5746084;11.204864;-0.4213795
17:46:44:328;17:46:44:295;-0.5746084;11.204864;-0.4213795
17:46:44:335;17:46:44:295;-0.5746084;11.204864;-0.4213795
17:46:44:343;17:46:44:295;-0.5746084;11.204864;-0.4213795
17:46:44:351;17:46:44:295;-0.5746084;11.204864;-0.4213795
17:46:44:359;17:46:44:295;-0.5746084;11.204864;-0.4213795
17:46:44:367;17:46:44:295;-0.5746084;11.204864;-0.4213795
17:46:44:375;17:46:44:295;-0.5746084;11.204864;-0.4213795
17:46:44:382;17:46:44:295;-0.5746084;11.204864;-0.4213795
17:46:44:390;17:46:44:295;-0.5746084;11.204864;-0.4213795
17:46:44:398;17:46:44:295;-0.5746084;11.204864;-0.4213795
17:46:44:406;17:46:44:295;-0.5746084;11.204864;-0.4213795
17:46:44:414;17:46:44:414;-0.8619126;9.959879;-0.80445176
17:46:44:421;17:46:44:414;-0.8619126;9.959879;-0.80445176
17:46:44:429;17:46:44:414;-0.8619126;9.959879;-0.80445176
17:46:44:437;17:46:44:414;-0.8619126;9.959879;-0.80445176
17:46:44:445;17:46:44:414;-0.8619126;9.959879;-0.80445176
17:46:44:453;17:46:44:414;-0.8619126;9.959879;-0.80445176
17:46:44:460;17:46:44:414;-0.8619126;9.959879;-0.80445176
17:46:44:468;17:46:44:414;-0.8619126;9.959879;-0.80445176
17:46:44:476;17:46:44:414;-0.8619126;9.959879;-0.80445176
17:46:44:484;17:46:44:414;-0.8619126;9.959879;-0.80445176
17:46:44:492;17:46:44:414;-0.8619126;9.959879;-0.80445176
17:46:44:500;17:46:44:414;-0.8619126;9.959879;-0.80445176
17:46:44:507;17:46:44:414;-0.8619126;9.959879;-0.80445176
17:46:44:515;17:46:44:414;-0.8619126;9.959879;-0.80445176
17:46:44:523;17:46:44:414;-0.8619126;9.959879;-0.80445176
17:46:44:531;17:46:44:414;-0.8619126;9.959879;-0.80445176
17:46:44:539;17:46:44:414;-0.8619126;9.959879;-0.80445176
17:46:44:546;17:46:44:541;-1.2449849;10.496181;-0.36391866
17:46:44:554;17:46:44:541;-1.2449849;10.496181;-0.36391866
17:46:44:562;17:46:44:541;-1.2449849;10.496181;-0.36391866
17:46:44:570;17:46:44:541;-1.2449849;10.496181;-0.36391866
17:46:44:578;17:46:44:541;-1.2449849;10.496181;-0.36391866
17:46:44:585;17:46:44:541;-1.2449849;10.496181;-0.36391866
17:46:44:593;17:46:44:541;-1.2449849;10.496181;-0.36391866
17:46:44:601;17:46:44:541;-1.2449849;10.496181;-0.36391866
17:46:44:609;17:46:44:541;-1.2449849;10.496181;-0.36391866
17:46:44:617;17:46:44:541;-1.2449849;10.496181;-0.36391866
17:46:44:625;17:46:44:541;-1.2449849;10.496181;-0.36391866
17:46:44:632;17:46:44:541;-1.2449849;10.496181;-0.36391866
17:46:44:640;17:46:44:541;-1.2449849;10.496181;-0.36391866
17:46:44:648;17:46:44:541;-1.2449849;10.496181;-0.36391866
17:46:44:656;17:46:44:541;-1.2449849;10.496181;-0.36391866
17:46:44:664;17:46:44:660;-1.4748282;10.01734;-0.49799395
17:46:44:671;17:46:44:660;-1.4748282;10.01734;-0.49799395
17:46:44:679;17:46:44:660;-1.4748282;10.01734;-0.49799395
17:46:44:687;17:46:44:660;-1.4748282;10.01734;-0.49799395
17:46:44:695;17:46:44:660;-1.4748282;10.01734;-0.49799395
17:46:44:703;17:46:44:660;-1.4748282;10.01734;-0.49799395
17:46:44:710;17:46:44:660;-1.4748282;10.01734;-0.49799395
17:46:44:718;17:46:44:660;-1.4748282;10.01734;-0.49799395
17:46:44:726;17:46:44:660;-1.4748282;10.01734;-0.49799395
17:46:44:734;17:46:44:660;-1.4748282;10.01734;-0.49799395
17:46:44:742;17:46:44:660;-1.4748282;10.01734;-0.49799395
17:46:44:750;17:46:44:660;-1.4748282;10.01734;-0.49799395
17:46:44:757;17:46:44:660;-1.4748282;10.01734;-0.49799395
17:46:44:765;17:46:44:764;0.05746084;9.749189;0.05746084
17:46:44:773;17:46:44:764;0.05746084;9.749189;0.05746084
17:46:44:781;17:46:44:764;0.05746084;9.749189;0.05746084
17:46:44:789;17:46:44:764;0.05746084;9.749189;0.05746084
17:46:44:796;17:46:44:764;0.05746084;9.749189;0.05746084
17:46:44:804;17:46:44:764;0.05746084;9.749189;0.05746084
17:46:44:812;17:46:44:764;0.05746084;9.749189;0.05746084
17:46:44:820;17:46:44:764;0.05746084;9.749189;0.05746084
17:46:44:828;17:46:44:764;0.05746084;9.749189;0.05746084
17:46:44:835;17:46:44:764;0.05746084;9.749189;0.05746084
17:46:44:843;17:46:44:764;0.05746084;9.749189;0.05746084
17:46:44:851;17:46:44:764;0.05746084;9.749189;0.05746084
17:46:44:859;17:46:44:764;0.05746084;9.749189;0.05746084
17:46:44:867;17:46:44:764;0.05746084;9.749189;0.05746084
17:46:44:875;17:46:44:873;0.30645782;9.959879;-0.32561144
17:46:44:882;17:46:44:873;0.30645782;9.959879;-0.32561144
17:46:44:890;17:46:44:873;0.30645782;9.959879;-0.32561144
17:46:44:898;17:46:44:873;0.30645782;9.959879;-0.32561144
17:46:44:906;17:46:44:873;0.30645782;9.959879;-0.32561144
17:46:44:914;17:46:44:873;0.30645782;9.959879;-0.32561144
17:46:44:921;17:46:44:873;0.30645782;9.959879;-0.32561144
17:46:44:929;17:46:44:873;0.30645782;9.959879;-0.32561144
17:46:44:937;17:46:44:873;0.30645782;9.959879;-0.32561144
17:46:44:945;17:46:44:873;0.30645782;9.959879;-0.32561144
17:46:44:953;17:46:44:873;0.30645782;9.959879;-0.32561144
17:46:44:960;17:46:44:873;0.30645782;9.959879;-0.32561144
17:46:44:968;17:46:44:873;0.30645782;9.959879;-0.32561144
17:46:44:976;17:46:44:873;0.30645782;9.959879;-0.32561144
17:46:44:984;17:46:44:979;0.095768064;10.649409;-0.5554548
17:46:44:992;17:46:44:979;0.095768064;10.649409;-0.5554548
17:46:45:000;17:46:44:979;0.095768064;10.649409;-0.5554548
17:46:45:007;17:46:44:979;0.095768064;10.649409;-0.5554548
17:46:45:015;17:46:44:979;0.095768064;10.649409;-0.5554548
17:46:45:023;17:46:44:979;0.095768064;10.649409;-0.5554548
17:46:45:031;17:46:44:979;0.095768064;10.649409;-0.5554548
17:46:45:039;17:46:44:979;0.095768064;10.649409;-0.5554548
17:46:45:046;17:46:44:979;0.095768064;10.649409;-0.5554548
17:46:45:054;17:46:44:979;0.095768064;10.649409;-0.5554548
17:46:45:062;17:46:44:979;0.095768064;10.649409;-0.5554548
17:46:45:070;17:46:44:979;0.095768064;10.649409;-0.5554548
17:46:45:078;17:46:44:979;0.095768064;10.649409;-0.5554548
17:46:45:085;17:46:44:979;0.095768064;10.649409;-0.5554548
17:46:45:093;17:46:44:979;0.095768064;10.649409;-0.5554548
17:46:45:101;17:46:45:098;-0.38307226;10.362105;-0.61291564
17:46:45:109;17:46:45:098;-0.38307226;10.362105;-0.61291564
17:46:45:117;17:46:45:098;-0.38307226;10.362105;-0.61291564
17:46:45:125;17:46:45:098;-0.38307226;10.362105;-0.61291564
17:46:45:132;17:46:45:098;-0.38307226;10.362105;-0.61291564
17:46:45:140;17:46:45:098;-0.38307226;10.362105;-0.61291564
17:46:45:148;17:46:45:098;-0.38307226;10.362105;-0.61291564
17:46:45:156;17:46:45:098;-0.38307226;10.362105;-0.61291564
17:46:45:164;17:46:45:098;-0.38307226;10.362105;-0.61291564
17:46:45:171;17:46:45:098;-0.38307226;10.362105;-0.61291564
17:46:45:179;17:46:45:098;-0.38307226;10.362105;-0.61291564
17:46:45:187;17:46:45:098;-0.38307226;10.362105;-0.61291564
17:46:45:195;17:46:45:098;-0.38307226;10.362105;-0.61291564
17:46:45:203;17:46:45:098;-0.38307226;10.362105;-0.61291564
17:46:45:210;17:46:45:098;-0.38307226;10.362105;-0.61291564
17:46:45:218;17:46:45:214;-1.436521;10.496181;-0.6512229
17:46:45:226;17:46:45:214;-1.436521;10.496181;-0.6512229
17:46:45:234;17:46:45:214;-1.436521;10.496181;-0.6512229
17:46:45:242;17:46:45:214;-1.436521;10.496181;-0.6512229
17:46:45:250;17:46:45:214;-1.436521;10.496181;-0.6512229
17:46:45:257;17:46:45:214;-1.436521;10.496181;-0.6512229
17:46:45:265;17:46:45:214;-1.436521;10.496181;-0.6512229
17:46:45:273;17:46:45:214;-1.436521;10.496181;-0.6512229
17:46:45:281;17:46:45:214;-1.436521;10.496181;-0.6512229
17:46:45:289;17:46:45:214;-1.436521;10.496181;-0.6512229
17:46:45:296;17:46:45:214;-1.436521;10.496181;-0.6512229
17:46:45:304;17:46:45:214;-1.436521;10.496181;-0.6512229
17:46:45:312;17:46:45:214;-1.436521;10.496181;-0.6512229
17:46:45:320;17:46:45:214;-1.436521;10.496181;-0.6512229
17:46:45:328;17:46:45:214;-1.436521;10.496181;-0.6512229
17:46:45:335;17:46:45:331;-0.61291564;10.323798;-0.7278373
17:46:45:343;17:46:45:331;-0.61291564;10.323798;-0.7278373
17:46:45:351;17:46:45:331;-0.61291564;10.323798;-0.7278373
17:46:45:359;17:46:45:331;-0.61291564;10.323798;-0.7278373
17:46:45:367;17:46:45:331;-0.61291564;10.323798;-0.7278373
17:46:45:375;17:46:45:331;-0.61291564;10.323798;-0.7278373
17:46:45:382;17:46:45:331;-0.61291564;10.323798;-0.7278373
17:46:45:390;17:46:45:331;-0.61291564;10.323798;-0.7278373
17:46:45:398;17:46:45:331;-0.61291564;10.323798;-0.7278373
17:46:45:406;17:46:45:331;-0.61291564;10.323798;-0.7278373
17:46:45:414;17:46:45:331;-0.61291564;10.323798;-0.7278373
17:46:45:421;17:46:45:331;-0.61291564;10.323798;-0.7278373
17:46:45:429;17:46:45:331;-0.61291564;10.323798;-0.7278373
17:46:45:437;17:46:45:331;-0.61291564;10.323798;-0.7278373
17:46:45:445;17:46:45:445;-0.6512229;9.653421;-0.11492168
17:46:45:453;17:46:45:445;-0.6512229;9.653421;-0.11492168
17:46:45:460;17:46:45:445;-0.6512229;9.653421;-0.11492168
17:46:45:468;17:46:45:445;-0.6512229;9.653421;-0.11492168
17:46:45:476;17:46:45:445;-0.6512229;9.653421;-0.11492168
17:46:45:484;17:46:45:445;-0.6512229;9.653421;-0.11492168
17:46:45:492;17:46:45:445;-0.6512229;9.653421;-0.11492168
17:46:45:500;17:46:45:445;-0.6512229;9.653421;-0.11492168
17:46:45:507;17:46:45:445;-0.6512229;9.653421;-0.11492168
17:46:45:515;17:46:45:445;-0.6512229;9.653421;-0.11492168
17:46:45:523;17:46:45:445;-0.6512229;9.653421;-0.11492168
17:46:45:531;17:46:45:445;-0.6512229;9.653421;-0.11492168
17:46:45:539;17:46:45:445;-0.6512229;9.653421;-0.11492168
17:46:45:546;17:46:45:546;0.4405331;10.400413;-0.2681506
17:46:45:554;17:46:45:546;0.4405331;10.400413;-0.2681506
17:46:45:562;17:46:45:546;0.4405331;10.400413;-0.2681506
17:46:45:570;17:46:45:546;0.4405331;10.400413;-0.2681506
17:46:45:578;17:46:45:546;0.4405331;10.400413;-0.2681506
17:46:45:585;17:46:45:546;0.4405331;10.400413;-0.2681506
17:46:45:593;17:46:45:546;0.4405331;10.400413;-0.2681506
17:46:45:601;17:46:45:546;0.4405331;10.400413;-0.2681506
17:46:45:609;17:46:45:546;0.4405331;10.400413;-0.2681506
17:46:45:617;17:46:45:546;0.4405331;10.400413;-0.2681506
17:46:45:625;17:46:45:546;0.4405331;10.400413;-0.2681506
17:46:45:632;17:46:45:546;0.4405331;10.400413;-0.2681506
17:46:45:640;17:46:45:546;0.4405331;10.400413;-0.2681506
17:46:45:648;17:46:45:546;0.4405331;10.400413;-0.2681506
17:46:45:656;17:46:45:546;0.4405331;10.400413;-0.2681506
17:46:45:664;17:46:45:546;0.4405331;10.400413;-0.2681506
17:46:45:671;17:46:45:667;0.32561144;9.959879;0.4213795
17:46:45:679;17:46:45:667;0.32561144;9.959879;0.4213795
17:46:45:687;17:46:45:667;0.32561144;9.959879;0.4213795
17:46:45:695;17:46:45:667;0.32561144;9.959879;0.4213795
17:46:45:703;17:46:45:667;0.32561144;9.959879;0.4213795
17:46:45:710;17:46:45:667;0.32561144;9.959879;0.4213795
17:46:45:718;17:46:45:667;0.32561144;9.959879;0.4213795
17:46:45:726;17:46:45:667;0.32561144;9.959879;0.4213795
17:46:45:734;17:46:45:667;0.32561144;9.959879;0.4213795
17:46:45:742;17:46:45:667;0.32561144;9.959879;0.4213795
17:46:45:750;17:46:45:667;0.32561144;9.959879;0.4213795
17:46:45:757;17:46:45:667;0.32561144;9.959879;0.4213795
17:46:45:765;17:46:45:667;0.32561144;9.959879;0.4213795
17:46:45:773;17:46:45:667;0.32561144;9.959879;0.4213795
17:46:45:781;17:46:45:667;0.32561144;9.959879;0.4213795
17:46:45:789;17:46:45:667;0.32561144;9.959879;0.4213795
17:46:45:796;17:46:45:667;0.32561144;9.959879;0.4213795
17:46:45:804;17:46:45:667;0.32561144;9.959879;0.4213795
17:46:45:812;17:46:45:812;-0.6703765;10.572795;-0.7278373
17:46:45:820;17:46:45:812;-0.6703765;10.572795;-0.7278373
17:46:45:828;17:46:45:812;-0.6703765;10.572795;-0.7278373
17:46:45:835;17:46:45:812;-0.6703765;10.572795;-0.7278373
17:46:45:843;17:46:45:812;-0.6703765;10.572795;-0.7278373
17:46:45:851;17:46:45:812;-0.6703765;10.572795;-0.7278373
17:46:45:859;17:46:45:812;-0.6703765;10.572795;-0.7278373
17:46:45:867;17:46:45:812;-0.6703765;10.572795;-0.7278373
17:46:45:875;17:46:45:812;-0.6703765;10.572795;-0.7278373
17:46:45:882;17:46:45:812;-0.6703765;10.572795;-0.7278373
17:46:45:890;17:46:45:812;-0.6703765;10.572795;-0.7278373
17:46:45:898;17:46:45:812;-0.6703765;10.572795;-0.7278373
17:46:45:906;17:46:45:812;-0.6703765;10.572795;-0.7278373
17:46:45:914;17:46:45:812;-0.6703765;10.572795;-0.7278373
17:46:45:921;17:46:45:917;0.038307227;9.768343;0.30645782
17:46:45:929;17:46:45:917;0.038307227;9.768343;0.30645782
17:46:45:937;17:46:45:917;0.038307227;9.768343;0.30645782
17:46:45:945;17:46:45:917;0.038307227;9.768343;0.30645782
17:46:45:953;17:46:45:917;0.038307227;9.768343;0.30645782
17:46:45:960;17:46:45:917;0.038307227;9.768343;0.30645782
17:46:45:968;17:46:45:917;0.038307227;9.768343;0.30645782
17:46:45:976;17:46:45:917;0.038307227;9.768343;0.30645782
17:46:45:984;17:46:45:917;0.038307227;9.768343;0.30645782
17:46:45:992;17:46:45:917;0.038307227;9.768343;0.30645782
17:46:46:000;17:46:45:917;0.038307227;9.768343;0.30645782
17:46:46:007;17:46:45:917;0.038307227;9.768343;0.30645782
17:46:46:015;17:46:45:917;0.038307227;9.768343;0.30645782
17:46:46:023;17:46:45:917;0.038307227;9.768343;0.30645782
17:46:46:031;17:46:45:917;0.038307227;9.768343;0.30645782
17:46:46:039;17:46:46:035;-0.24899697;10.572795;-0.30645782
17:46:46:046;17:46:46:035;-0.24899697;10.572795;-0.30645782
17:46:46:054;17:46:46:035;-0.24899697;10.572795;-0.30645782
17:46:46:062;17:46:46:035;-0.24899697;10.572795;-0.30645782
17:46:46:070;17:46:46:035;-0.24899697;10.572795;-0.30645782
17:46:46:078;17:46:46:035;-0.24899697;10.572795;-0.30645782
17:46:46:085;17:46:46:035;-0.24899697;10.572795;-0.30645782
17:46:46:093;17:46:46:035;-0.24899697;10.572795;-0.30645782
17:46:46:101;17:46:46:035;-0.24899697;10.572795;-0.30645782
17:46:46:109;17:46:46:035;-0.24899697;10.572795;-0.30645782
17:46:46:117;17:46:46:035;-0.24899697;10.572795;-0.30645782
17:46:46:125;17:46:46:035;-0.24899697;10.572795;-0.30645782
17:46:46:132;17:46:46:035;-0.24899697;10.572795;-0.30645782
17:46:46:140;17:46:46:035;-0.24899697;10.572795;-0.30645782
17:46:46:148;17:46:46:035;-0.24899697;10.572795;-0.30645782
17:46:46:156;17:46:46:151;-1.2641385;9.691729;0.8619126
17:46:46:164;17:46:46:151;-1.2641385;9.691729;0.8619126
17:46:46:171;17:46:46:151;-1.2641385;9.691729;0.8619126
17:46:46:179;17:46:46:151;-1.2641385;9.691729;0.8619126
17:46:46:187;17:46:46:151;-1.2641385;9.691729;0.8619126
17:46:46:195;17:46:46:151;-1.2641385;9.691729;0.8619126
17:46:46:203;17:46:46:151;-1.2641385;9.691729;0.8619126
17:46:46:210;17:46:46:151;-1.2641385;9.691729;0.8619126
17:46:46:218;17:46:46:151;-1.2641385;9.691729;0.8619126
17:46:46:226;17:46:46:151;-1.2641385;9.691729;0.8619126
17:46:46:234;17:46:46:151;-1.2641385;9.691729;0.8619126
17:46:46:242;17:46:46:151;-1.2641385;9.691729;0.8619126
17:46:46:250;17:46:46:151;-1.2641385;9.691729;0.8619126
17:46:46:257;17:46:46:151;-1.2641385;9.691729;0.8619126
17:46:46:265;17:46:46:151;-1.2641385;9.691729;0.8619126
17:46:46:273;17:46:46:269;-0.038307227;9.883265;0.05746084
17:46:46:281;17:46:46:269;-0.038307227;9.883265;0.05746084
17:46:46:289;17:46:46:269;-0.038307227;9.883265;0.05746084
17:46:46:296;17:46:46:269;-0.038307227;9.883265;0.05746084
17:46:46:304;17:46:46:269;-0.038307227;9.883265;0.05746084
17:46:46:312;17:46:46:269;-0.038307227;9.883265;0.05746084
17:46:46:320;17:46:46:269;-0.038307227;9.883265;0.05746084
17:46:46:328;17:46:46:269;-0.038307227;9.883265;0.05746084
17:46:46:335;17:46:46:269;-0.038307227;9.883265;0.05746084
17:46:46:343;17:46:46:269;-0.038307227;9.883265;0.05746084
17:46:46:351;17:46:46:269;-0.038307227;9.883265;0.05746084
17:46:46:359;17:46:46:269;-0.038307227;9.883265;0.05746084
17:46:46:367;17:46:46:269;-0.038307227;9.883265;0.05746084
17:46:46:375;17:46:46:269;-0.038307227;9.883265;0.05746084
17:46:46:382;17:46:46:269;-0.038307227;9.883265;0.05746084
17:46:46:390;17:46:46:385;0.30645782;10.668563;-0.4405331
17:46:46:398;17:46:46:385;0.30645782;10.668563;-0.4405331
17:46:46:406;17:46:46:385;0.30645782;10.668563;-0.4405331
17:46:46:414;17:46:46:385;0.30645782;10.668563;-0.4405331
17:46:46:421;17:46:46:385;0.30645782;10.668563;-0.4405331
17:46:46:429;17:46:46:385;0.30645782;10.668563;-0.4405331
17:46:46:437;17:46:46:385;0.30645782;10.668563;-0.4405331
17:46:46:445;17:46:46:385;0.30645782;10.668563;-0.4405331
17:46:46:453;17:46:46:385;0.30645782;10.668563;-0.4405331
17:46:46:460;17:46:46:385;0.30645782;10.668563;-0.4405331
17:46:46:468;17:46:46:385;0.30645782;10.668563;-0.4405331
17:46:46:476;17:46:46:385;0.30645782;10.668563;-0.4405331
17:46:46:484;17:46:46:385;0.30645782;10.668563;-0.4405331
17:46:46:492;17:46:46:385;0.30645782;10.668563;-0.4405331
17:46:46:500;17:46:46:385;0.30645782;10.668563;-0.4405331
17:46:46:507;17:46:46:503;-0.47884035;10.055647;-0.019153614
17:46:46:515;17:46:46:503;-0.47884035;10.055647;-0.019153614
17:46:46:523;17:46:46:503;-0.47884035;10.055647;-0.019153614
17:46:46:531;17:46:46:503;-0.47884035;10.055647;-0.019153614
17:46:46:539;17:46:46:503;-0.47884035;10.055647;-0.019153614
17:46:46:546;17:46:46:503;-0.47884035;10.055647;-0.019153614
17:46:46:554;17:46:46:503;-0.47884035;10.055647;-0.019153614
17:46:46:562;17:46:46:503;-0.47884035;10.055647;-0.019153614
17:46:46:570;17:46:46:503;-0.47884035;10.055647;-0.019153614
17:46:46:578;17:46:46:503;-0.47884035;10.055647;-0.019153614
17:46:46:585;17:46:46:503;-0.47884035;10.055647;-0.019153614
17:46:46:593;17:46:46:503;-0.47884035;10.055647;-0.019153614
17:46:46:601;17:46:46:503;-0.47884035;10.055647;-0.019153614
17:46:46:609;17:46:46:503;-0.47884035;10.055647;-0.019153614
17:46:46:617;17:46:46:503;-0.47884035;10.055647;-0.019153614
17:46:46:625;17:46:46:622;-0.6703765;10.132261;0.47884035
17:46:46:632;17:46:46:622;-0.6703765;10.132261;0.47884035
17:46:46:640;17:46:46:622;-0.6703765;10.132261;0.47884035
17:46:46:648;17:46:46:622;-0.6703765;10.132261;0.47884035
17:46:46:656;17:46:46:622;-0.6703765;10.132261;0.47884035
17:46:46:664;17:46:46:622;-0.6703765;10.132261;0.47884035
17:46:46:671;17:46:46:622;-0.6703765;10.132261;0.47884035
17:46:46:679;17:46:46:622;-0.6703765;10.132261;0.47884035
17:46:46:687;17:46:46:622;-0.6703765;10.132261;0.47884035
17:46:46:695;17:46:46:622;-0.6703765;10.132261;0.47884035
17:46:46:703;17:46:46:622;-0.6703765;10.132261;0.47884035
17:46:46:710;17:46:46:622;-0.6703765;10.132261;0.47884035
17:46:46:718;17:46:46:622;-0.6703765;10.132261;0.47884035
17:46:46:726;17:46:46:622;-0.6703765;10.132261;0.47884035
17:46:46:734;17:46:46:622;-0.6703765;10.132261;0.47884035
17:46:46:742;17:46:46:742;-0.11492168;9.021352;0.6703765
17:46:46:750;17:46:46:742;-0.11492168;9.021352;0.6703765
17:46:46:757;17:46:46:742;-0.11492168;9.021352;0.6703765
17:46:46:765;17:46:46:742;-0.11492168;9.021352;0.6703765
17:46:46:773;17:46:46:742;-0.11492168;9.021352;0.6703765
17:46:46:781;17:46:46:742;-0.11492168;9.021352;0.6703765
17:46:46:789;17:46:46:742;-0.11492168;9.021352;0.6703765
17:46:46:796;17:46:46:742;-0.11492168;9.021352;0.6703765
17:46:46:804;17:46:46:742;-0.11492168;9.021352;0.6703765
17:46:46:812;17:46:46:742;-0.11492168;9.021352;0.6703765
17:46:46:820;17:46:46:742;-0.11492168;9.021352;0.6703765
17:46:46:828;17:46:46:742;-0.11492168;9.021352;0.6703765
17:46:46:835;17:46:46:742;-0.11492168;9.021352;0.6703765
17:46:46:843;17:46:46:742;-0.11492168;9.021352;0.6703765
17:46:46:851;17:46:46:742;-0.11492168;9.021352;0.6703765
17:46:46:859;17:46:46:742;-0.11492168;9.021352;0.6703765
17:46:46:867;17:46:46:860;-0.49799395;10.802638;0.51714754
17:46:46:875;17:46:46:860;-0.49799395;10.802638;0.51714754
17:46:46:882;17:46:46:860;-0.49799395;10.802638;0.51714754
17:46:46:890;17:46:46:860;-0.49799395;10.802638;0.51714754
17:46:46:898;17:46:46:860;-0.49799395;10.802638;0.51714754
17:46:46:906;17:46:46:860;-0.49799395;10.802638;0.51714754
17:46:46:914;17:46:46:860;-0.49799395;10.802638;0.51714754
17:46:46:921;17:46:46:860;-0.49799395;10.802638;0.51714754
17:46:46:929;17:46:46:860;-0.49799395;10.802638;0.51714754
17:46:46:937;17:46:46:860;-0.49799395;10.802638;0.51714754
17:46:46:945;17:46:46:860;-0.49799395;10.802638;0.51714754
17:46:46:953;17:46:46:860;-0.49799395;10.802638;0.51714754
17:46:46:960;17:46:46:860;-0.49799395;10.802638;0.51714754
17:46:46:968;17:46:46:961;0.19153613;9.787497;-0.36391866
17:46:46:976;17:46:46:961;0.19153613;9.787497;-0.36391866
17:46:46:984;17:46:46:961;0.19153613;9.787497;-0.36391866
17:46:46:992;17:46:46:961;0.19153613;9.787497;-0.36391866
17:46:47:000;17:46:46:961;0.19153613;9.787497;-0.36391866
17:46:47:007;17:46:46:961;0.19153613;9.787497;-0.36391866
17:46:47:015;17:46:46:961;0.19153613;9.787497;-0.36391866
17:46:47:023;17:46:46:961;0.19153613;9.787497;-0.36391866
17:46:47:031;17:46:46:961;0.19153613;9.787497;-0.36391866
17:46:47:039;17:46:46:961;0.19153613;9.787497;-0.36391866
17:46:47:046;17:46:46:961;0.19153613;9.787497;-0.36391866
17:46:47:054;17:46:46:961;0.19153613;9.787497;-0.36391866
17:46:47:062;17:46:46:961;0.19153613;9.787497;-0.36391866
17:46:47:070;17:46:46:961;0.19153613;9.787497;-0.36391866
17:46:47:078;17:46:47:074;-0.61291564;10.0748005;0.2873042
17:46:47:085;17:46:47:074;-0.61291564;10.0748005;0.2873042
17:46:47:093;17:46:47:074;-0.61291564;10.0748005;0.2873042
17:46:47:101;17:46:47:074;-0.61291564;10.0748005;0.2873042
17:46:47:109;17:46:47:074;-0.61291564;10.0748005;0.2873042
17:46:47:117;17:46:47:074;-0.61291564;10.0748005;0.2873042
17:46:47:125;17:46:47:074;-0.61291564;10.0748005;0.2873042
17:46:47:132;17:46:47:074;-0.61291564;10.0748005;0.2873042
17:46:47:140;17:46:47:074;-0.61291564;10.0748005;0.2873042
17:46:47:148;17:46:47:074;-0.61291564;10.0748005;0.2873042
17:46:47:156;17:46:47:074;-0.61291564;10.0748005;0.2873042
17:46:47:164;17:46:47:074;-0.61291564;10.0748005;0.2873042
17:46:47:171;17:46:47:074;-0.61291564;10.0748005;0.2873042
17:46:47:179;17:46:47:074;-0.61291564;10.0748005;0.2873042
17:46:47:187;17:46:47:074;-0.61291564;10.0748005;0.2873042
17:46:47:195;17:46:47:191;0.15322891;10.266336;-0.47884035
17:46:47:203;17:46:47:191;0.15322891;10.266336;-0.47884035
17:46:47:210;17:46:47:191;0.15322891;10.266336;-0.47884035
17:46:47:218;17:46:47:191;0.15322891;10.266336;-0.47884035
17:46:47:226;17:46:47:191;0.15322891;10.266336;-0.47884035
17:46:47:234;17:46:47:191;0.15322891;10.266336;-0.47884035
17:46:47:242;17:46:47:191;0.15322891;10.266336;-0.47884035
17:46:47:250;17:46:47:191;0.15322891;10.266336;-0.47884035
17:46:47:257;17:46:47:191;0.15322891;10.266336;-0.47884035
17:46:47:265;17:46:47:191;0.15322891;10.266336;-0.47884035
17:46:47:273;17:46:47:191;0.15322891;10.266336;-0.47884035
17:46:47:281;17:46:47:191;0.15322891;10.266336;-0.47884035
17:46:47:289;17:46:47:191;0.15322891;10.266336;-0.47884035
17:46:47:296;17:46:47:191;0.15322891;10.266336;-0.47884035
17:46:47:304;17:46:47:191;0.15322891;10.266336;-0.47884035
17:46:47:312;17:46:47:309;-0.51714754;10.28549;0.21068975
17:46:47:320;17:46:47:309;-0.51714754;10.28549;0.21068975
17:46:47:328;17:46:47:309;-0.51714754;10.28549;0.21068975
17:46:47:335;17:46:47:309;-0.51714754;10.28549;0.21068975
17:46:47:343;17:46:47:309;-0.51714754;10.28549;0.21068975
17:46:47:351;17:46:47:309;-0.51714754;10.28549;0.21068975
17:46:47:359;17:46:47:309;-0.51714754;10.28549;0.21068975
17:46:47:367;17:46:47:309;-0.51714754;10.28549;0.21068975
17:46:47:375;17:46:47:309;-0.51714754;10.28549;0.21068975
17:46:47:382;17:46:47:309;-0.51714754;10.28549;0.21068975
17:46:47:390;17:46:47:309;-0.51714754;10.28549;0.21068975
17:46:47:398;17:46:47:309;-0.51714754;10.28549;0.21068975
17:46:47:406;17:46:47:309;-0.51714754;10.28549;0.21068975
17:46:47:414;17:46:47:309;-0.51714754;10.28549;0.21068975
17:46:47:421;17:46:47:309;-0.51714754;10.28549;0.21068975
17:46:47:429;17:46:47:309;-0.51714754;10.28549;0.21068975
17:46:47:437;17:46:47:309;-0.51714754;10.28549;0.21068975
17:46:47:445;17:46:47:438;-0.78529817;10.342952;0.038307227
17:46:47:453;17:46:47:438;-0.78529817;10.342952;0.038307227
17:46:47:460;17:46:47:438;-0.78529817;10.342952;0.038307227
17:46:47:468;17:46:47:438;-0.78529817;10.342952;0.038307227
17:46:47:476;17:46:47:438;-0.78529817;10.342952;0.038307227
17:46:47:484;17:46:47:438;-0.78529817;10.342952;0.038307227
17:46:47:492;17:46:47:438;-0.78529817;10.342952;0.038307227
17:46:47:500;17:46:47:438;-0.78529817;10.342952;0.038307227
17:46:47:507;17:46:47:438;-0.78529817;10.342952;0.038307227
17:46:47:515;17:46:47:438;-0.78529817;10.342952;0.038307227
17:46:47:523;17:46:47:438;-0.78529817;10.342952;0.038307227
17:46:47:531;17:46:47:438;-0.78529817;10.342952;0.038307227
17:46:47:539;17:46:47:438;-0.78529817;10.342952;0.038307227
17:46:47:546;17:46:47:438;-0.78529817;10.342952;0.038307227
17:46:47:554;17:46:47:438;-0.78529817;10.342952;0.038307227
17:46:47:562;17:46:47:438;-0.78529817;10.342952;0.038307227
17:46:47:570;17:46:47:570;-0.45968673;9.059659;1.0342951
17:46:47:578;17:46:47:570;-0.45968673;9.059659;1.0342951
17:46:47:585;17:46:47:570;-0.45968673;9.059659;1.0342951
17:46:47:593;17:46:47:570;-0.45968673;9.059659;1.0342951
17:46:47:601;17:46:47:570;-0.45968673;9.059659;1.0342951
17:46:47:609;17:46:47:570;-0.45968673;9.059659;1.0342951
17:46:47:617;17:46:47:570;-0.45968673;9.059659;1.0342951
17:46:47:625;17:46:47:570;-0.45968673;9.059659;1.0342951
17:46:47:632;17:46:47:570;-0.45968673;9.059659;1.0342951
17:46:47:640;17:46:47:570;-0.45968673;9.059659;1.0342951
17:46:47:648;17:46:47:570;-0.45968673;9.059659;1.0342951
17:46:47:656;17:46:47:570;-0.45968673;9.059659;1.0342951
17:46:47:664;17:46:47:570;-0.45968673;9.059659;1.0342951
17:46:47:671;17:46:47:570;-0.45968673;9.059659;1.0342951
17:46:47:679;17:46:47:570;-0.45968673;9.059659;1.0342951
17:46:47:687;17:46:47:680;-0.2681506;10.28549;0.15322891
17:46:47:695;17:46:47:680;-0.2681506;10.28549;0.15322891
17:46:47:703;17:46:47:680;-0.2681506;10.28549;0.15322891
17:46:47:710;17:46:47:680;-0.2681506;10.28549;0.15322891
17:46:47:718;17:46:47:680;-0.2681506;10.28549;0.15322891
17:46:47:726;17:46:47:680;-0.2681506;10.28549;0.15322891
17:46:47:734;17:46:47:680;-0.2681506;10.28549;0.15322891
17:46:47:742;17:46:47:680;-0.2681506;10.28549;0.15322891
17:46:47:750;17:46:47:680;-0.2681506;10.28549;0.15322891
17:46:47:757;17:46:47:680;-0.2681506;10.28549;0.15322891
17:46:47:765;17:46:47:680;-0.2681506;10.28549;0.15322891
17:46:47:773;17:46:47:680;-0.2681506;10.28549;0.15322891
17:46:47:781;17:46:47:680;-0.2681506;10.28549;0.15322891
17:46:47:789;17:46:47:680;-0.2681506;10.28549;0.15322891
17:46:47:796;17:46:47:680;-0.2681506;10.28549;0.15322891
17:46:47:804;17:46:47:798;0.019153614;10.170568;-0.21068975
17:46:47:812;17:46:47:798;0.019153614;10.170568;-0.21068975
17:46:47:820;17:46:47:798;0.019153614;10.170568;-0.21068975
17:46:47:828;17:46:47:798;0.019153614;10.170568;-0.21068975
17:46:47:835;17:46:47:798;0.019153614;10.170568;-0.21068975
17:46:47:843;17:46:47:798;0.019153614;10.170568;-0.21068975
17:46:47:851;17:46:47:798;0.019153614;10.170568;-0.21068975
17:46:47:859;17:46:47:798;0.019153614;10.170568;-0.21068975
17:46:47:867;17:46:47:798;0.019153614;10.170568;-0.21068975
17:46:47:875;17:46:47:798;0.019153614;10.170568;-0.21068975
17:46:47:882;17:46:47:798;0.019153614;10.170568;-0.21068975
17:46:47:890;17:46:47:798;0.019153614;10.170568;-0.21068975
17:46:47:898;17:46:47:798;0.019153614;10.170568;-0.21068975
17:46:47:906;17:46:47:798;0.019153614;10.170568;-0.21068975
17:46:47:914;17:46:47:910;-0.22984336;9.442732;1.0151415
17:46:47:921;17:46:47:910;-0.22984336;9.442732;1.0151415
17:46:47:929;17:46:47:910;-0.22984336;9.442732;1.0151415
17:46:47:937;17:46:47:910;-0.22984336;9.442732;1.0151415
17:46:47:945;17:46:47:910;-0.22984336;9.442732;1.0151415
17:46:47:953;17:46:47:910;-0.22984336;9.442732;1.0151415
17:46:47:960;17:46:47:910;-0.22984336;9.442732;1.0151415
17:46:47:968;17:46:47:910;-0.22984336;9.442732;1.0151415
17:46:47:976;17:46:47:910;-0.22984336;9.442732;1.0151415
17:46:47:984;17:46:47:910;-0.22984336;9.442732;1.0151415
17:46:47:992;17:46:47:910;-0.22984336;9.442732;1.0151415
17:46:48:000;17:46:47:910;-0.22984336;9.442732;1.0151415
17:46:48:007;17:46:47:910;-0.22984336;9.442732;1.0151415
17:46:48:015;17:46:48:014;-0.19153613;10.43872;0.15322891
17:46:48:023;17:46:48:014;-0.19153613;10.43872;0.15322891
17:46:48:031;17:46:48:014;-0.19153613;10.43872;0.15322891
17:46:48:039;17:46:48:014;-0.19153613;10.43872;0.15322891
17:46:48:046;17:46:48:014;-0.19153613;10.43872;0.15322891
17:46:48:054;17:46:48:014;-0.19153613;10.43872;0.15322891
17:46:48:062;17:46:48:014;-0.19153613;10.43872;0.15322891
17:46:48:070;17:46:48:014;-0.19153613;10.43872;0.15322891
17:46:48:078;17:46:48:014;-0.19153613;10.43872;0.15322891
17:46:48:085;17:46:48:014;-0.19153613;10.43872;0.15322891
17:46:48:093;17:46:48:014;-0.19153613;10.43872;0.15322891
17:46:48:101;17:46:48:014;-0.19153613;10.43872;0.15322891
17:46:48:109;17:46:48:014;-0.19153613;10.43872;0.15322891
17:46:48:117;17:46:48:014;-0.19153613;10.43872;0.15322891
17:46:48:125;17:46:48:014;-0.19153613;10.43872;0.15322891
17:46:48:132;17:46:48:014;-0.19153613;10.43872;0.15322891
17:46:48:140;17:46:48:014;-0.19153613;10.43872;0.15322891
17:46:48:148;17:46:48:014;-0.19153613;10.43872;0.15322891
17:46:48:156;17:46:48:151;-0.34476504;10.745177;-0.4405331
17:46:48:164;17:46:48:151;-0.34476504;10.745177;-0.4405331
17:46:48:171;17:46:48:151;-0.34476504;10.745177;-0.4405331
17:46:48:179;17:46:48:151;-0.34476504;10.745177;-0.4405331
17:46:48:187;17:46:48:151;-0.34476504;10.745177;-0.4405331
17:46:48:195;17:46:48:151;-0.34476504;10.745177;-0.4405331
17:46:48:203;17:46:48:151;-0.34476504;10.745177;-0.4405331
17:46:48:210;17:46:48:151;-0.34476504;10.745177;-0.4405331
17:46:48:218;17:46:48:151;-0.34476504;10.745177;-0.4405331
17:46:48:226;17:46:48:151;-0.34476504;10.745177;-0.4405331
17:46:48:234;17:46:48:151;-0.34476504;10.745177;-0.4405331
17:46:48:242;17:46:48:151;-0.34476504;10.745177;-0.4405331
17:46:48:250;17:46:48:151;-0.34476504;10.745177;-0.4405331
17:46:48:257;17:46:48:151;-0.34476504;10.745177;-0.4405331
17:46:48:265;17:46:48:151;-0.34476504;10.745177;-0.4405331
17:46:48:273;17:46:48:269;0.19153613;10.630256;-0.2873042
17:46:48:281;17:46:48:269;0.19153613;10.630256;-0.2873042
17:46:48:289;17:46:48:269;0.19153613;10.630256;-0.2873042
17:46:48:296;17:46:48:269;0.19153613;10.630256;-0.2873042
17:46:48:304;17:46:48:269;0.19153613;10.630256;-0.2873042
17:46:48:312;17:46:48:269;0.19153613;10.630256;-0.2873042
17:46:48:320;17:46:48:269;0.19153613;10.630256;-0.2873042
17:46:48:328;17:46:48:269;0.19153613;10.630256;-0.2873042
17:46:48:335;17:46:48:269;0.19153613;10.630256;-0.2873042
17:46:48:343;17:46:48:269;0.19153613;10.630256;-0.2873042
17:46:48:351;17:46:48:269;0.19153613;10.630256;-0.2873042
17:46:48:359;17:46:48:269;0.19153613;10.630256;-0.2873042
17:46:48:367;17:46:48:269;0.19153613;10.630256;-0.2873042
17:46:48:375;17:46:48:269;0.19153613;10.630256;-0.2873042
17:46:48:382;17:46:48:269;0.19153613;10.630256;-0.2873042
17:46:48:390;17:46:48:385;-0.24899697;9.653421;0.5554548
17:46:48:398;17:46:48:385;-0.24899697;9.653421;0.5554548
17:46:48:406;17:46:48:385;-0.24899697;9.653421;0.5554548
17:46:48:414;17:46:48:385;-0.24899697;9.653421;0.5554548
17:46:48:421;17:46:48:385;-0.24899697;9.653421;0.5554548
17:46:48:429;17:46:48:385;-0.24899697;9.653421;0.5554548
17:46:48:437;17:46:48:385;-0.24899697;9.653421;0.5554548
17:46:48:445;17:46:48:385;-0.24899697;9.653421;0.5554548
17:46:48:453;17:46:48:385;-0.24899697;9.653421;0.5554548
17:46:48:460;17:46:48:385;-0.24899697;9.653421;0.5554548
17:46:48:468;17:46:48:385;-0.24899697;9.653421;0.5554548
17:46:48:476;17:46:48:385;-0.24899697;9.653421;0.5554548
17:46:48:484;17:46:48:385;-0.24899697;9.653421;0.5554548
17:46:48:492;17:46:48:385;-0.24899697;9.653421;0.5554548
17:46:48:500;17:46:48:385;-0.24899697;9.653421;0.5554548
17:46:48:507;17:46:48:503;-0.5746084;9.825804;0.49799395
17:46:48:515;17:46:48:503;-0.5746084;9.825804;0.49799395
17:46:48:523;17:46:48:503;-0.5746084;9.825804;0.49799395
17:46:48:531;17:46:48:503;-0.5746084;9.825804;0.49799395
17:46:48:539;17:46:48:503;-0.5746084;9.825804;0.49799395
17:46:48:546;17:46:48:503;-0.5746084;9.825804;0.49799395
17:46:48:554;17:46:48:503;-0.5746084;9.825804;0.49799395
17:46:48:562;17:46:48:503;-0.5746084;9.825804;0.49799395
17:46:48:570;17:46:48:503;-0.5746084;9.825804;0.49799395
17:46:48:578;17:46:48:503;-0.5746084;9.825804;0.49799395
17:46:48:585;17:46:48:503;-0.5746084;9.825804;0.49799395
17:46:48:593;17:46:48:503;-0.5746084;9.825804;0.49799395
17:46:48:601;17:46:48:503;-0.5746084;9.825804;0.49799395
17:46:48:609;17:46:48:503;-0.5746084;9.825804;0.49799395
17:46:48:617;17:46:48:503;-0.5746084;9.825804;0.49799395
17:46:48:625;17:46:48:622;0.076614454;10.515334;-0.2873042
17:46:48:632;17:46:48:622;0.076614454;10.515334;-0.2873042
17:46:48:640;17:46:48:622;0.076614454;10.515334;-0.2873042
17:46:48:648;17:46:48:622;0.076614454;10.515334;-0.2873042
17:46:48:656;17:46:48:622;0.076614454;10.515334;-0.2873042
17:46:48:664;17:46:48:622;0.076614454;10.515334;-0.2873042
17:46:48:671;17:46:48:622;0.076614454;10.515334;-0.2873042
17:46:48:679;17:46:48:622;0.076614454;10.515334;-0.2873042
17:46:48:687;17:46:48:622;0.076614454;10.515334;-0.2873042
17:46:48:695;17:46:48:622;0.076614454;10.515334;-0.2873042
17:46:48:703;17:46:48:622;0.076614454;10.515334;-0.2873042
17:46:48:710;17:46:48:622;0.076614454;10.515334;-0.2873042
17:46:48:718;17:46:48:622;0.076614454;10.515334;-0.2873042
17:46:48:726;17:46:48:622;0.076614454;10.515334;-0.2873042
17:46:48:734;17:46:48:622;0.076614454;10.515334;-0.2873042
17:46:48:742;17:46:48:740;-0.2681506;9.902418;0.6895301
17:46:48:750;17:46:48:740;-0.2681506;9.902418;0.6895301
17:46:48:757;17:46:48:740;-0.2681506;9.902418;0.6895301
17:46:48:765;17:46:48:740;-0.2681506;9.902418;0.6895301
17:46:48:773;17:46:48:740;-0.2681506;9.902418;0.6895301
17:46:48:781;17:46:48:740;-0.2681506;9.902418;0.6895301
17:46:48:789;17:46:48:740;-0.2681506;9.902418;0.6895301
17:46:48:796;17:46:48:740;-0.2681506;9.902418;0.6895301
17:46:48:804;17:46:48:740;-0.2681506;9.902418;0.6895301
17:46:48:812;17:46:48:740;-0.2681506;9.902418;0.6895301
17:46:48:820;17:46:48:740;-0.2681506;9.902418;0.6895301
17:46:48:828;17:46:48:740;-0.2681506;9.902418;0.6895301
17:46:48:835;17:46:48:740;-0.2681506;9.902418;0.6895301
17:46:48:843;17:46:48:740;-0.2681506;9.902418;0.6895301
17:46:48:851;17:46:48:740;-0.2681506;9.902418;0.6895301
17:46:48:859;17:46:48:856;-0.21068975;9.691729;0.36391866
17:46:48:867;17:46:48:856;-0.21068975;9.691729;0.36391866
17:46:48:875;17:46:48:856;-0.21068975;9.691729;0.36391866
17:46:48:882;17:46:48:856;-0.21068975;9.691729;0.36391866
17:46:48:890;17:46:48:856;-0.21068975;9.691729;0.36391866
17:46:48:898;17:46:48:856;-0.21068975;9.691729;0.36391866
17:46:48:906;17:46:48:856;-0.21068975;9.691729;0.36391866
17:46:48:914;17:46:48:856;-0.21068975;9.691729;0.36391866
17:46:48:921;17:46:48:856;-0.21068975;9.691729;0.36391866
17:46:48:929;17:46:48:856;-0.21068975;9.691729;0.36391866
17:46:48:937;17:46:48:856;-0.21068975;9.691729;0.36391866
17:46:48:945;17:46:48:856;-0.21068975;9.691729;0.36391866
17:46:48:953;17:46:48:856;-0.21068975;9.691729;0.36391866
17:46:48:960;17:46:48:957;-0.30645782;9.32781;1.0342951
17:46:48:968;17:46:48:957;-0.30645782;9.32781;1.0342951
17:46:48:976;17:46:48:957;-0.30645782;9.32781;1.0342951
17:46:48:984;17:46:48:957;-0.30645782;9.32781;1.0342951
17:46:48:992;17:46:48:957;-0.30645782;9.32781;1.0342951
17:46:49:000;17:46:48:957;-0.30645782;9.32781;1.0342951
17:46:49:007;17:46:48:957;-0.30645782;9.32781;1.0342951
17:46:49:015;17:46:48:957;-0.30645782;9.32781;1.0342951
17:46:49:023;17:46:48:957;-0.30645782;9.32781;1.0342951
17:46:49:031;17:46:48:957;-0.30645782;9.32781;1.0342951
17:46:49:039;17:46:48:957;-0.30645782;9.32781;1.0342951
17:46:49:046;17:46:48:957;-0.30645782;9.32781;1.0342951
17:46:49:054;17:46:48:957;-0.30645782;9.32781;1.0342951
17:46:49:062;17:46:48:957;-0.30645782;9.32781;1.0342951
17:46:49:070;17:46:48:957;-0.30645782;9.32781;1.0342951
17:46:49:078;17:46:49:077;0.21068975;11.204864;-0.2681506
17:46:49:085;17:46:49:077;0.21068975;11.204864;-0.2681506
17:46:49:093;17:46:49:077;0.21068975;11.204864;-0.2681506
17:46:49:101;17:46:49:077;0.21068975;11.204864;-0.2681506
17:46:49:109;17:46:49:077;0.21068975;11.204864;-0.2681506
17:46:49:117;17:46:49:077;0.21068975;11.204864;-0.2681506
17:46:49:125;17:46:49:077;0.21068975;11.204864;-0.2681506
17:46:49:132;17:46:49:077;0.21068975;11.204864;-0.2681506
17:46:49:140;17:46:49:077;0.21068975;11.204864;-0.2681506
17:46:49:148;17:46:49:077;0.21068975;11.204864;-0.2681506
17:46:49:156;17:46:49:077;0.21068975;11.204864;-0.2681506
17:46:49:164;17:46:49:077;0.21068975;11.204864;-0.2681506
17:46:49:171;17:46:49:077;0.21068975;11.204864;-0.2681506
17:46:49:179;17:46:49:077;0.21068975;11.204864;-0.2681506
17:46:49:187;17:46:49:077;0.21068975;11.204864;-0.2681506
17:46:49:195;17:46:49:191;-0.21068975;9.461885;1.0151415
17:46:49:203;17:46:49:191;-0.21068975;9.461885;1.0151415
17:46:49:210;17:46:49:191;-0.21068975;9.461885;1.0151415
17:46:49:218;17:46:49:191;-0.21068975;9.461885;1.0151415
17:46:49:226;17:46:49:191;-0.21068975;9.461885;1.0151415
17:46:49:234;17:46:49:191;-0.21068975;9.461885;1.0151415
17:46:49:242;17:46:49:191;-0.21068975;9.461885;1.0151415
17:46:49:250;17:46:49:191;-0.21068975;9.461885;1.0151415
17:46:49:257;17:46:49:191;-0.21068975;9.461885;1.0151415
17:46:49:265;17:46:49:191;-0.21068975;9.461885;1.0151415
17:46:49:273;17:46:49:191;-0.21068975;9.461885;1.0151415
17:46:49:281;17:46:49:191;-0.21068975;9.461885;1.0151415
17:46:49:289;17:46:49:191;-0.21068975;9.461885;1.0151415
17:46:49:296;17:46:49:191;-0.21068975;9.461885;1.0151415
17:46:49:304;17:46:49:191;-0.21068975;9.461885;1.0151415
17:46:49:312;17:46:49:308;0.095768064;9.346964;1.283292
17:46:49:320;17:46:49:308;0.095768064;9.346964;1.283292
17:46:49:328;17:46:49:308;0.095768064;9.346964;1.283292
17:46:49:335;17:46:49:308;0.095768064;9.346964;1.283292
17:46:49:343;17:46:49:308;0.095768064;9.346964;1.283292
17:46:49:351;17:46:49:308;0.095768064;9.346964;1.283292
17:46:49:359;17:46:49:308;0.095768064;9.346964;1.283292
17:46:49:367;17:46:49:308;0.095768064;9.346964;1.283292
17:46:49:375;17:46:49:308;0.095768064;9.346964;1.283292
17:46:49:382;17:46:49:308;0.095768064;9.346964;1.283292
17:46:49:390;17:46:49:308;0.095768064;9.346964;1.283292
17:46:49:398;17:46:49:308;0.095768064;9.346964;1.283292
17:46:49:406;17:46:49:308;0.095768064;9.346964;1.283292
17:46:49:414;17:46:49:308;0.095768064;9.346964;1.283292
17:46:49:421;17:46:49:308;0.095768064;9.346964;1.283292
17:46:49:429;17:46:49:426;-0.49799395;11.81778;0.38307226
17:46:49:437;17:46:49:426;-0.49799395;11.81778;0.38307226
17:46:49:445;17:46:49:426;-0.49799395;11.81778;0.38307226
17:46:49:453;17:46:49:426;-0.49799395;11.81778;0.38307226
17:46:49:460;17:46:49:426;-0.49799395;11.81778;0.38307226
17:46:49:468;17:46:49:426;-0.49799395;11.81778;0.38307226
17:46:49:476;17:46:49:426;-0.49799395;11.81778;0.38307226
17:46:49:484;17:46:49:426;-0.49799395;11.81778;0.38307226
17:46:49:492;17:46:49:426;-0.49799395;11.81778;0.38307226
17:46:49:500;17:46:49:426;-0.49799395;11.81778;0.38307226
17:46:49:507;17:46:49:426;-0.49799395;11.81778;0.38307226
17:46:49:515;17:46:49:426;-0.49799395;11.81778;0.38307226
17:46:49:523;17:46:49:426;-0.49799395;11.81778;0.38307226
17:46:49:531;17:46:49:426;-0.49799395;11.81778;0.38307226
17:46:49:539;17:46:49:426;-0.49799395;11.81778;0.38307226
17:46:49:546;17:46:49:543;0.095768064;8.714894;1.8770541
17:46:49:554;17:46:49:543;0.095768064;8.714894;1.8770541
17:46:49:562;17:46:49:543;0.095768064;8.714894;1.8770541
17:46:49:570;17:46:49:543;0.095768064;8.714894;1.8770541
17:46:49:578;17:46:49:543;0.095768064;8.714894;1.8770541
17:46:49:585;17:46:49:543;0.095768064;8.714894;1.8770541
17:46:49:593;17:46:49:543;0.095768064;8.714894;1.8770541
17:46:49:601;17:46:49:543;0.095768064;8.714894;1.8770541
17:46:49:609;17:46:49:543;0.095768064;8.714894;1.8770541
17:46:49:617;17:46:49:543;0.095768064;8.714894;1.8770541
17:46:49:625;17:46:49:543;0.095768064;8.714894;1.8770541
17:46:49:632;17:46:49:543;0.095768064;8.714894;1.8770541
17:46:49:640;17:46:49:543;0.095768064;8.714894;1.8770541
17:46:49:648;17:46:49:543;0.095768064;8.714894;1.8770541
17:46:49:656;17:46:49:543;0.095768064;8.714894;1.8770541
17:46:49:664;17:46:49:659;-0.11492168;10.97502;0.5363012
17:46:49:671;17:46:49:659;-0.11492168;10.97502;0.5363012
17:46:49:679;17:46:49:659;-0.11492168;10.97502;0.5363012
17:46:49:687;17:46:49:659;-0.11492168;10.97502;0.5363012
17:46:49:695;17:46:49:659;-0.11492168;10.97502;0.5363012
17:46:49:703;17:46:49:659;-0.11492168;10.97502;0.5363012
17:46:49:710;17:46:49:659;-0.11492168;10.97502;0.5363012
17:46:49:718;17:46:49:659;-0.11492168;10.97502;0.5363012
17:46:49:726;17:46:49:659;-0.11492168;10.97502;0.5363012
17:46:49:734;17:46:49:659;-0.11492168;10.97502;0.5363012
17:46:49:742;17:46:49:659;-0.11492168;10.97502;0.5363012
17:46:49:750;17:46:49:659;-0.11492168;10.97502;0.5363012
17:46:49:757;17:46:49:659;-0.11492168;10.97502;0.5363012
17:46:49:765;17:46:49:659;-0.11492168;10.97502;0.5363012
17:46:49:773;17:46:49:659;-0.11492168;10.97502;0.5363012
17:46:49:781;17:46:49:777;-0.019153614;8.734048;1.4748282
17:46:49:789;17:46:49:777;-0.019153614;8.734048;1.4748282
17:46:49:796;17:46:49:777;-0.019153614;8.734048;1.4748282
17:46:49:804;17:46:49:777;-0.019153614;8.734048;1.4748282
17:46:49:812;17:46:49:777;-0.019153614;8.734048;1.4748282
17:46:49:820;17:46:49:777;-0.019153614;8.734048;1.4748282
17:46:49:828;17:46:49:777;-0.019153614;8.734048;1.4748282
17:46:49:835;17:46:49:777;-0.019153614;8.734048;1.4748282
17:46:49:843;17:46:49:777;-0.019153614;8.734048;1.4748282
17:46:49:851;17:46:49:777;-0.019153614;8.734048;1.4748282
17:46:49:859;17:46:49:777;-0.019153614;8.734048;1.4748282
17:46:49:867;17:46:49:777;-0.019153614;8.734048;1.4748282
17:46:49:875;17:46:49:777;-0.019153614;8.734048;1.4748282
17:46:49:882;17:46:49:777;-0.019153614;8.734048;1.4748282
17:46:49:890;17:46:49:777;-0.019153614;8.734048;1.4748282
17:46:49:898;17:46:49:896;0.095768064;9.959879;1.0151415
17:46:49:906;17:46:49:896;0.095768064;9.959879;1.0151415
17:46:49:914;17:46:49:896;0.095768064;9.959879;1.0151415
17:46:49:921;17:46:49:896;0.095768064;9.959879;1.0151415
17:46:49:929;17:46:49:896;0.095768064;9.959879;1.0151415
17:46:49:937;17:46:49:896;0.095768064;9.959879;1.0151415
17:46:49:945;17:46:49:896;0.095768064;9.959879;1.0151415
17:46:49:953;17:46:49:896;0.095768064;9.959879;1.0151415
17:46:49:960;17:46:49:896;0.095768064;9.959879;1.0151415
17:46:49:968;17:46:49:896;0.095768064;9.959879;1.0151415
17:46:49:976;17:46:49:896;0.095768064;9.959879;1.0151415
17:46:49:984;17:46:49:896;0.095768064;9.959879;1.0151415
17:46:49:992;17:46:49:896;0.095768064;9.959879;1.0151415
17:46:50:000;17:46:49:896;0.095768064;9.959879;1.0151415
17:46:50:007;17:46:49:896;0.095768064;9.959879;1.0151415
17:46:50:015;17:46:50:013;-0.24899697;10.97502;0.91937345
17:46:50:023;17:46:50:013;-0.24899697;10.97502;0.91937345
17:46:50:031;17:46:50:013;-0.24899697;10.97502;0.91937345
17:46:50:039;17:46:50:013;-0.24899697;10.97502;0.91937345
17:46:50:046;17:46:50:013;-0.24899697;10.97502;0.91937345
17:46:50:054;17:46:50:013;-0.24899697;10.97502;0.91937345
17:46:50:062;17:46:50:013;-0.24899697;10.97502;0.91937345
17:46:50:070;17:46:50:013;-0.24899697;10.97502;0.91937345
17:46:50:078;17:46:50:013;-0.24899697;10.97502;0.91937345
17:46:50:085;17:46:50:013;-0.24899697;10.97502;0.91937345
17:46:50:093;17:46:50:013;-0.24899697;10.97502;0.91937345
17:46:50:101;17:46:50:013;-0.24899697;10.97502;0.91937345
17:46:50:109;17:46:50:013;-0.24899697;10.97502;0.91937345
17:46:50:117;17:46:50:013;-0.24899697;10.97502;0.91937345
17:46:50:125;17:46:50:013;-0.24899697;10.97502;0.91937345
17:46:50:132;17:46:50:128;0.36391866;8.829816;1.8962077
17:46:50:140;17:46:50:128;0.36391866;8.829816;1.8962077
17:46:50:148;17:46:50:128;0.36391866;8.829816;1.8962077
17:46:50:156;17:46:50:128;0.36391866;8.829816;1.8962077
17:46:50:164;17:46:50:128;0.36391866;8.829816;1.8962077
17:46:50:171;17:46:50:128;0.36391866;8.829816;1.8962077
17:46:50:179;17:46:50:128;0.36391866;8.829816;1.8962077
17:46:50:187;17:46:50:128;0.36391866;8.829816;1.8962077
17:46:50:195;17:46:50:128;0.36391866;8.829816;1.8962077
17:46:50:203;17:46:50:128;0.36391866;8.829816;1.8962077
17:46:50:210;17:46:50:128;0.36391866;8.829816;1.8962077
17:46:50:218;17:46:50:128;0.36391866;8.829816;1.8962077
17:46:50:226;17:46:50:128;0.36391866;8.829816;1.8962077
17:46:50:234;17:46:50:128;0.36391866;8.829816;1.8962077
17:46:50:242;17:46:50:128;0.36391866;8.829816;1.8962077
17:46:50:250;17:46:50:246;-0.019153614;10.936713;0.40222588
17:46:50:257;17:46:50:246;-0.019153614;10.936713;0.40222588
17:46:50:265;17:46:50:246;-0.019153614;10.936713;0.40222588
17:46:50:273;17:46:50:246;-0.019153614;10.936713;0.40222588
17:46:50:281;17:46:50:246;-0.019153614;10.936713;0.40222588
17:46:50:289;17:46:50:246;-0.019153614;10.936713;0.40222588
17:46:50:296;17:46:50:246;-0.019153614;10.936713;0.40222588
17:46:50:304;17:46:50:246;-0.019153614;10.936713;0.40222588
17:46:50:312;17:46:50:246;-0.019153614;10.936713;0.40222588
17:46:50:320;17:46:50:246;-0.019153614;10.936713;0.40222588
17:46:50:328;17:46:50:246;-0.019153614;10.936713;0.40222588
17:46:50:335;17:46:50:246;-0.019153614;10.936713;0.40222588
17:46:50:343;17:46:50:246;-0.019153614;10.936713;0.40222588
17:46:50:351;17:46:50:246;-0.019153614;10.936713;0.40222588
17:46:50:359;17:46:50:246;-0.019153614;10.936713;0.40222588
17:46:50:367;17:46:50:363;-0.038307227;8.963891;1.7621324
17:46:50:375;17:46:50:363;-0.038307227;8.963891;1.7621324
17:46:50:382;17:46:50:363;-0.038307227;8.963891;1.7621324
17:46:50:390;17:46:50:363;-0.038307227;8.963891;1.7621324
17:46:50:398;17:46:50:363;-0.038307227;8.963891;1.7621324
17:46:50:406;17:46:50:363;-0.038307227;8.963891;1.7621324
17:46:50:414;17:46:50:363;-0.038307227;8.963891;1.7621324
17:46:50:421;17:46:50:363;-0.038307227;8.963891;1.7621324
17:46:50:429;17:46:50:363;-0.038307227;8.963891;1.7621324
17:46:50:437;17:46:50:363;-0.038307227;8.963891;1.7621324
17:46:50:445;17:46:50:363;-0.038307227;8.963891;1.7621324
17:46:50:453;17:46:50:363;-0.038307227;8.963891;1.7621324
17:46:50:460;17:46:50:363;-0.038307227;8.963891;1.7621324
17:46:50:468;17:46:50:363;-0.038307227;8.963891;1.7621324
17:46:50:476;17:46:50:363;-0.038307227;8.963891;1.7621324
17:46:50:484;17:46:50:483;0.30645782;10.611102;0.22984336
17:46:50:492;17:46:50:483;0.30645782;10.611102;0.22984336
17:46:50:500;17:46:50:483;0.30645782;10.611102;0.22984336
17:46:50:507;17:46:50:483;0.30645782;10.611102;0.22984336
17:46:50:515;17:46:50:483;0.30645782;10.611102;0.22984336
17:46:50:523;17:46:50:483;0.30645782;10.611102;0.22984336
17:46:50:531;17:46:50:483;0.30645782;10.611102;0.22984336
17:46:50:539;17:46:50:483;0.30645782;10.611102;0.22984336
17:46:50:546;17:46:50:483;0.30645782;10.611102;0.22984336
17:46:50:554;17:46:50:483;0.30645782;10.611102;0.22984336
17:46:50:562;17:46:50:483;0.30645782;10.611102;0.22984336
17:46:50:570;17:46:50:483;0.30645782;10.611102;0.22984336
17:46:50:578;17:46:50:483;0.30645782;10.611102;0.22984336
17:46:50:585;17:46:50:483;0.30645782;10.611102;0.22984336
17:46:50:593;17:46:50:483;0.30645782;10.611102;0.22984336
17:46:50:601;17:46:50:599;-0.076614454;9.461885;1.3024458
17:46:50:609;17:46:50:599;-0.076614454;9.461885;1.3024458
17:46:50:617;17:46:50:599;-0.076614454;9.461885;1.3024458
17:46:50:625;17:46:50:599;-0.076614454;9.461885;1.3024458
17:46:50:632;17:46:50:599;-0.076614454;9.461885;1.3024458
17:46:50:640;17:46:50:599;-0.076614454;9.461885;1.3024458
17:46:50:648;17:46:50:599;-0.076614454;9.461885;1.3024458
17:46:50:656;17:46:50:599;-0.076614454;9.461885;1.3024458
17:46:50:664;17:46:50:599;-0.076614454;9.461885;1.3024458
17:46:50:671;17:46:50:599;-0.076614454;9.461885;1.3024458
17:46:50:679;17:46:50:599;-0.076614454;9.461885;1.3024458
17:46:50:687;17:46:50:599;-0.076614454;9.461885;1.3024458
17:46:50:695;17:46:50:599;-0.076614454;9.461885;1.3024458
17:46:50:703;17:46:50:700;-0.45968673;10.208876;0.9768343
17:46:50:710;17:46:50:700;-0.45968673;10.208876;0.9768343
17:46:50:718;17:46:50:700;-0.45968673;10.208876;0.9768343
17:46:50:726;17:46:50:700;-0.45968673;10.208876;0.9768343
17:46:50:734;17:46:50:700;-0.45968673;10.208876;0.9768343
17:46:50:742;17:46:50:700;-0.45968673;10.208876;0.9768343
17:46:50:750;17:46:50:700;-0.45968673;10.208876;0.9768343
17:46:50:757;17:46:50:700;-0.45968673;10.208876;0.9768343
17:46:50:765;17:46:50:700;-0.45968673;10.208876;0.9768343
17:46:50:773;17:46:50:700;-0.45968673;10.208876;0.9768343
17:46:50:781;17:46:50:700;-0.45968673;10.208876;0.9768343
17:46:50:789;17:46:50:700;-0.45968673;10.208876;0.9768343
17:46:50:796;17:46:50:700;-0.45968673;10.208876;0.9768343
17:46:50:804;17:46:50:700;-0.45968673;10.208876;0.9768343
17:46:50:812;17:46:50:700;-0.45968673;10.208876;0.9768343
17:46:50:820;17:46:50:819;0.2681506;9.825804;1.091756
17:46:50:828;17:46:50:819;0.2681506;9.825804;1.091756
17:46:50:835;17:46:50:819;0.2681506;9.825804;1.091756
17:46:50:843;17:46:50:819;0.2681506;9.825804;1.091756
17:46:50:851;17:46:50:819;0.2681506;9.825804;1.091756
17:46:50:859;17:46:50:819;0.2681506;9.825804;1.091756
17:46:50:867;17:46:50:819;0.2681506;9.825804;1.091756
17:46:50:875;17:46:50:819;0.2681506;9.825804;1.091756
17:46:50:882;17:46:50:819;0.2681506;9.825804;1.091756
17:46:50:890;17:46:50:819;0.2681506;9.825804;1.091756
17:46:50:898;17:46:50:819;0.2681506;9.825804;1.091756
17:46:50:906;17:46:50:819;0.2681506;9.825804;1.091756
17:46:50:914;17:46:50:819;0.2681506;9.825804;1.091756
17:46:50:921;17:46:50:819;0.2681506;9.825804;1.091756
17:46:50:929;17:46:50:819;0.2681506;9.825804;1.091756
17:46:50:937;17:46:50:936;-0.30645782;10.534488;0.6512229
17:46:50:945;17:46:50:936;-0.30645782;10.534488;0.6512229
17:46:50:953;17:46:50:936;-0.30645782;10.534488;0.6512229
17:46:50:960;17:46:50:936;-0.30645782;10.534488;0.6512229
17:46:50:968;17:46:50:936;-0.30645782;10.534488;0.6512229
17:46:50:976;17:46:50:936;-0.30645782;10.534488;0.6512229
17:46:50:984;17:46:50:936;-0.30645782;10.534488;0.6512229
17:46:50:992;17:46:50:936;-0.30645782;10.534488;0.6512229
17:46:51:000;17:46:50:936;-0.30645782;10.534488;0.6512229
17:46:51:007;17:46:50:936;-0.30645782;10.534488;0.6512229
17:46:51:015;17:46:50:936;-0.30645782;10.534488;0.6512229
17:46:51:023;17:46:50:936;-0.30645782;10.534488;0.6512229
17:46:51:031;17:46:50:936;-0.30645782;10.534488;0.6512229
17:46:51:039;17:46:50:936;-0.30645782;10.534488;0.6512229
17:46:51:046;17:46:50:936;-0.30645782;10.534488;0.6512229
17:46:51:054;17:46:51:052;-0.019153614;9.730036;1.1875241
17:46:51:062;17:46:51:052;-0.019153614;9.730036;1.1875241
17:46:51:070;17:46:51:052;-0.019153614;9.730036;1.1875241
17:46:51:078;17:46:51:052;-0.019153614;9.730036;1.1875241
17:46:51:085;17:46:51:052;-0.019153614;9.730036;1.1875241
17:46:51:093;17:46:51:052;-0.019153614;9.730036;1.1875241
17:46:51:101;17:46:51:052;-0.019153614;9.730036;1.1875241
17:46:51:109;17:46:51:052;-0.019153614;9.730036;1.1875241
17:46:51:117;17:46:51:052;-0.019153614;9.730036;1.1875241
17:46:51:125;17:46:51:052;-0.019153614;9.730036;1.1875241
17:46:51:132;17:46:51:052;-0.019153614;9.730036;1.1875241
17:46:51:140;17:46:51:052;-0.019153614;9.730036;1.1875241
17:46:51:148;17:46:51:052;-0.019153614;9.730036;1.1875241
17:46:51:156;17:46:51:052;-0.019153614;9.730036;1.1875241
17:46:51:164;17:46:51:052;-0.019153614;9.730036;1.1875241
17:46:51:171;17:46:51:170;-0.17238252;11.128249;0.2681506
17:46:51:179;17:46:51:170;-0.17238252;11.128249;0.2681506
17:46:51:187;17:46:51:170;-0.17238252;11.128249;0.2681506
17:46:51:195;17:46:51:170;-0.17238252;11.128249;0.2681506
17:46:51:203;17:46:51:170;-0.17238252;11.128249;0.2681506
17:46:51:210;17:46:51:170;-0.17238252;11.128249;0.2681506
17:46:51:218;17:46:51:170;-0.17238252;11.128249;0.2681506
17:46:51:226;17:46:51:170;-0.17238252;11.128249;0.2681506
17:46:51:234;17:46:51:170;-0.17238252;11.128249;0.2681506
17:46:51:242;17:46:51:170;-0.17238252;11.128249;0.2681506
17:46:51:250;17:46:51:170;-0.17238252;11.128249;0.2681506
17:46:51:257;17:46:51:170;-0.17238252;11.128249;0.2681506
17:46:51:265;17:46:51:170;-0.17238252;11.128249;0.2681506
17:46:51:273;17:46:51:170;-0.17238252;11.128249;0.2681506
17:46:51:281;17:46:51:170;-0.17238252;11.128249;0.2681506
17:46:51:289;17:46:51:286;-0.30645782;9.251195;1.8387469
17:46:51:296;17:46:51:286;-0.30645782;9.251195;1.8387469
17:46:51:304;17:46:51:286;-0.30645782;9.251195;1.8387469
17:46:51:312;17:46:51:286;-0.30645782;9.251195;1.8387469
17:46:51:320;17:46:51:286;-0.30645782;9.251195;1.8387469
17:46:51:328;17:46:51:286;-0.30645782;9.251195;1.8387469
17:46:51:335;17:46:51:286;-0.30645782;9.251195;1.8387469
17:46:51:343;17:46:51:286;-0.30645782;9.251195;1.8387469
17:46:51:351;17:46:51:286;-0.30645782;9.251195;1.8387469
17:46:51:359;17:46:51:286;-0.30645782;9.251195;1.8387469
17:46:51:367;17:46:51:286;-0.30645782;9.251195;1.8387469
17:46:51:375;17:46:51:286;-0.30645782;9.251195;1.8387469
17:46:51:382;17:46:51:286;-0.30645782;9.251195;1.8387469
17:46:51:390;17:46:51:286;-0.30645782;9.251195;1.8387469
17:46:51:398;17:46:51:286;-0.30645782;9.251195;1.8387469
17:46:51:406;17:46:51:403;-0.019153614;10.6877165;0.11492168
17:46:51:414;17:46:51:403;-0.019153614;10.6877165;0.11492168
17:46:51:421;17:46:51:403;-0.019153614;10.6877165;0.11492168
17:46:51:429;17:46:51:403;-0.019153614;10.6877165;0.11492168
17:46:51:437;17:46:51:403;-0.019153614;10.6877165;0.11492168
17:46:51:445;17:46:51:403;-0.019153614;10.6877165;0.11492168
17:46:51:453;17:46:51:403;-0.019153614;10.6877165;0.11492168
17:46:51:460;17:46:51:403;-0.019153614;10.6877165;0.11492168
17:46:51:468;17:46:51:403;-0.019153614;10.6877165;0.11492168
17:46:51:476;17:46:51:403;-0.019153614;10.6877165;0.11492168
17:46:51:484;17:46:51:403;-0.019153614;10.6877165;0.11492168
17:46:51:492;17:46:51:403;-0.019153614;10.6877165;0.11492168
17:46:51:500;17:46:51:403;-0.019153614;10.6877165;0.11492168
17:46:51:507;17:46:51:504;0.038307227;10.477027;0.5363012
17:46:51:515;17:46:51:504;0.038307227;10.477027;0.5363012
17:46:51:523;17:46:51:504;0.038307227;10.477027;0.5363012
17:46:51:531;17:46:51:504;0.038307227;10.477027;0.5363012
17:46:51:539;17:46:51:504;0.038307227;10.477027;0.5363012
17:46:51:546;17:46:51:504;0.038307227;10.477027;0.5363012
17:46:51:554;17:46:51:504;0.038307227;10.477027;0.5363012
17:46:51:562;17:46:51:504;0.038307227;10.477027;0.5363012
17:46:51:570;17:46:51:504;0.038307227;10.477027;0.5363012
17:46:51:578;17:46:51:504;0.038307227;10.477027;0.5363012
17:46:51:585;17:46:51:504;0.038307227;10.477027;0.5363012
17:46:51:593;17:46:51:504;0.038307227;10.477027;0.5363012
17:46:51:601;17:46:51:504;0.038307227;10.477027;0.5363012
17:46:51:609;17:46:51:504;0.038307227;10.477027;0.5363012
17:46:51:617;17:46:51:504;0.038307227;10.477027;0.5363012
17:46:51:625;17:46:51:622;0.15322891;9.212888;1.7429788
17:46:51:632;17:46:51:622;0.15322891;9.212888;1.7429788
17:46:51:640;17:46:51:622;0.15322891;9.212888;1.7429788
17:46:51:648;17:46:51:622;0.15322891;9.212888;1.7429788
17:46:51:656;17:46:51:622;0.15322891;9.212888;1.7429788
17:46:51:664;17:46:51:622;0.15322891;9.212888;1.7429788
17:46:51:671;17:46:51:622;0.15322891;9.212888;1.7429788
17:46:51:679;17:46:51:622;0.15322891;9.212888;1.7429788
17:46:51:687;17:46:51:622;0.15322891;9.212888;1.7429788
17:46:51:695;17:46:51:622;0.15322891;9.212888;1.7429788
17:46:51:703;17:46:51:622;0.15322891;9.212888;1.7429788
17:46:51:710;17:46:51:622;0.15322891;9.212888;1.7429788
17:46:51:718;17:46:51:622;0.15322891;9.212888;1.7429788
17:46:51:726;17:46:51:622;0.15322891;9.212888;1.7429788
17:46:51:734;17:46:51:622;0.15322891;9.212888;1.7429788
17:46:51:742;17:46:51:739;-0.095768064;11.013328;0.076614454
17:46:51:750;17:46:51:739;-0.095768064;11.013328;0.076614454
17:46:51:757;17:46:51:739;-0.095768064;11.013328;0.076614454
17:46:51:765;17:46:51:739;-0.095768064;11.013328;0.076614454
17:46:51:773;17:46:51:739;-0.095768064;11.013328;0.076614454
17:46:51:781;17:46:51:739;-0.095768064;11.013328;0.076614454
17:46:51:789;17:46:51:739;-0.095768064;11.013328;0.076614454
17:46:51:796;17:46:51:739;-0.095768064;11.013328;0.076614454
17:46:51:804;17:46:51:739;-0.095768064;11.013328;0.076614454
17:46:51:812;17:46:51:739;-0.095768064;11.013328;0.076614454
17:46:51:820;17:46:51:739;-0.095768064;11.013328;0.076614454
17:46:51:828;17:46:51:739;-0.095768064;11.013328;0.076614454
17:46:51:835;17:46:51:739;-0.095768064;11.013328;0.076614454
17:46:51:843;17:46:51:739;-0.095768064;11.013328;0.076614454
17:46:51:851;17:46:51:739;-0.095768064;11.013328;0.076614454
17:46:51:859;17:46:51:855;-0.17238252;9.136273;1.8195933
17:46:51:867;17:46:51:855;-0.17238252;9.136273;1.8195933
17:46:51:875;17:46:51:855;-0.17238252;9.136273;1.8195933
17:46:51:882;17:46:51:855;-0.17238252;9.136273;1.8195933
17:46:51:890;17:46:51:855;-0.17238252;9.136273;1.8195933
17:46:51:898;17:46:51:855;-0.17238252;9.136273;1.8195933
17:46:51:906;17:46:51:855;-0.17238252;9.136273;1.8195933
17:46:51:914;17:46:51:855;-0.17238252;9.136273;1.8195933
17:46:51:921;17:46:51:855;-0.17238252;9.136273;1.8195933
17:46:51:929;17:46:51:855;-0.17238252;9.136273;1.8195933
17:46:51:937;17:46:51:855;-0.17238252;9.136273;1.8195933
17:46:51:945;17:46:51:855;-0.17238252;9.136273;1.8195933
17:46:51:953;17:46:51:855;-0.17238252;9.136273;1.8195933
17:46:51:960;17:46:51:855;-0.17238252;9.136273;1.8195933
17:46:51:968;17:46:51:855;-0.17238252;9.136273;1.8195933
17:46:51:976;17:46:51:973;-0.019153614;10.611102;0.34476504
17:46:51:984;17:46:51:973;-0.019153614;10.611102;0.34476504
17:46:51:992;17:46:51:973;-0.019153614;10.611102;0.34476504
17:46:52:000;17:46:51:973;-0.019153614;10.611102;0.34476504
17:46:52:007;17:46:51:973;-0.019153614;10.611102;0.34476504
17:46:52:015;17:46:51:973;-0.019153614;10.611102;0.34476504
17:46:52:023;17:46:51:973;-0.019153614;10.611102;0.34476504
17:46:52:031;17:46:51:973;-0.019153614;10.611102;0.34476504
17:46:52:039;17:46:51:973;-0.019153614;10.611102;0.34476504
17:46:52:046;17:46:51:973;-0.019153614;10.611102;0.34476504
17:46:52:054;17:46:51:973;-0.019153614;10.611102;0.34476504
17:46:52:062;17:46:51:973;-0.019153614;10.611102;0.34476504
17:46:52:070;17:46:51:973;-0.019153614;10.611102;0.34476504
17:46:52:078;17:46:51:973;-0.019153614;10.611102;0.34476504
17:46:52:085;17:46:51:973;-0.019153614;10.611102;0.34476504
17:46:52:093;17:46:52:093;-0.2873042;9.346964;1.8004397
17:46:52:101;17:46:52:093;-0.2873042;9.346964;1.8004397
17:46:52:109;17:46:52:093;-0.2873042;9.346964;1.8004397
17:46:52:117;17:46:52:093;-0.2873042;9.346964;1.8004397
17:46:52:125;17:46:52:093;-0.2873042;9.346964;1.8004397
17:46:52:132;17:46:52:093;-0.2873042;9.346964;1.8004397
17:46:52:140;17:46:52:093;-0.2873042;9.346964;1.8004397
17:46:52:148;17:46:52:093;-0.2873042;9.346964;1.8004397
17:46:52:156;17:46:52:093;-0.2873042;9.346964;1.8004397
17:46:52:164;17:46:52:093;-0.2873042;9.346964;1.8004397
17:46:52:171;17:46:52:093;-0.2873042;9.346964;1.8004397
17:46:52:179;17:46:52:093;-0.2873042;9.346964;1.8004397
17:46:52:187;17:46:52:093;-0.2873042;9.346964;1.8004397
17:46:52:195;17:46:52:093;-0.2873042;9.346964;1.8004397
17:46:52:203;17:46:52:093;-0.2873042;9.346964;1.8004397
17:46:52:210;17:46:52:207;0.1340753;10.419566;0.6895301
17:46:52:218;17:46:52:207;0.1340753;10.419566;0.6895301
17:46:52:226;17:46:52:207;0.1340753;10.419566;0.6895301
17:46:52:234;17:46:52:207;0.1340753;10.419566;0.6895301
17:46:52:242;17:46:52:207;0.1340753;10.419566;0.6895301
17:46:52:250;17:46:52:207;0.1340753;10.419566;0.6895301
17:46:52:257;17:46:52:207;0.1340753;10.419566;0.6895301
17:46:52:265;17:46:52:207;0.1340753;10.419566;0.6895301
17:46:52:273;17:46:52:207;0.1340753;10.419566;0.6895301
17:46:52:281;17:46:52:207;0.1340753;10.419566;0.6895301
17:46:52:289;17:46:52:207;0.1340753;10.419566;0.6895301
17:46:52:296;17:46:52:207;0.1340753;10.419566;0.6895301
17:46:52:304;17:46:52:207;0.1340753;10.419566;0.6895301
17:46:52:312;17:46:52:207;0.1340753;10.419566;0.6895301
17:46:52:320;17:46:52:207;0.1340753;10.419566;0.6895301
17:46:52:328;17:46:52:324;-0.21068975;9.423578;1.5514427
17:46:52:335;17:46:52:324;-0.21068975;9.423578;1.5514427
17:46:52:343;17:46:52:324;-0.21068975;9.423578;1.5514427
17:46:52:351;17:46:52:324;-0.21068975;9.423578;1.5514427
17:46:52:359;17:46:52:324;-0.21068975;9.423578;1.5514427
17:46:52:367;17:46:52:324;-0.21068975;9.423578;1.5514427
17:46:52:375;17:46:52:324;-0.21068975;9.423578;1.5514427
17:46:52:382;17:46:52:324;-0.21068975;9.423578;1.5514427
17:46:52:390;17:46:52:324;-0.21068975;9.423578;1.5514427
17:46:52:398;17:46:52:324;-0.21068975;9.423578;1.5514427
17:46:52:406;17:46:52:324;-0.21068975;9.423578;1.5514427
17:46:52:414;17:46:52:324;-0.21068975;9.423578;1.5514427
17:46:52:421;17:46:52:324;-0.21068975;9.423578;1.5514427
17:46:52:429;17:46:52:324;-0.21068975;9.423578;1.5514427
17:46:52:437;17:46:52:324;-0.21068975;9.423578;1.5514427
17:46:52:445;17:46:52:441;-0.15322891;10.611102;1.0534488
17:46:52:453;17:46:52:441;-0.15322891;10.611102;1.0534488
17:46:52:460;17:46:52:441;-0.15322891;10.611102;1.0534488
17:46:52:468;17:46:52:441;-0.15322891;10.611102;1.0534488
17:46:52:476;17:46:52:441;-0.15322891;10.611102;1.0534488
17:46:52:484;17:46:52:441;-0.15322891;10.611102;1.0534488
17:46:52:492;17:46:52:441;-0.15322891;10.611102;1.0534488
17:46:52:500;17:46:52:441;-0.15322891;10.611102;1.0534488
17:46:52:507;17:46:52:441;-0.15322891;10.611102;1.0534488
17:46:52:515;17:46:52:441;-0.15322891;10.611102;1.0534488
17:46:52:523;17:46:52:441;-0.15322891;10.611102;1.0534488
17:46:52:531;17:46:52:441;-0.15322891;10.611102;1.0534488
17:46:52:539;17:46:52:441;-0.15322891;10.611102;1.0534488
17:46:52:546;17:46:52:441;-0.15322891;10.611102;1.0534488
17:46:52:554;17:46:52:441;-0.15322891;10.611102;1.0534488
17:46:52:562;17:46:52:560;-0.30645782;9.768343;1.2641385
17:46:52:570;17:46:52:560;-0.30645782;9.768343;1.2641385
17:46:52:578;17:46:52:560;-0.30645782;9.768343;1.2641385
17:46:52:585;17:46:52:560;-0.30645782;9.768343;1.2641385
17:46:52:593;17:46:52:560;-0.30645782;9.768343;1.2641385
17:46:52:601;17:46:52:560;-0.30645782;9.768343;1.2641385
17:46:52:609;17:46:52:560;-0.30645782;9.768343;1.2641385
17:46:52:617;17:46:52:560;-0.30645782;9.768343;1.2641385
17:46:52:625;17:46:52:560;-0.30645782;9.768343;1.2641385
17:46:52:632;17:46:52:560;-0.30645782;9.768343;1.2641385
17:46:52:640;17:46:52:560;-0.30645782;9.768343;1.2641385
17:46:52:648;17:46:52:560;-0.30645782;9.768343;1.2641385
17:46:52:656;17:46:52:560;-0.30645782;9.768343;1.2641385
17:46:52:664;17:46:52:662;0.095768064;10.668563;0.36391866
17:46:52:671;17:46:52:662;0.095768064;10.668563;0.36391866
17:46:52:679;17:46:52:662;0.095768064;10.668563;0.36391866
17:46:52:687;17:46:52:662;0.095768064;10.668563;0.36391866
17:46:52:695;17:46:52:662;0.095768064;10.668563;0.36391866
17:46:52:703;17:46:52:662;0.095768064;10.668563;0.36391866
17:46:52:710;17:46:52:662;0.095768064;10.668563;0.36391866
17:46:52:718;17:46:52:662;0.095768064;10.668563;0.36391866
17:46:52:726;17:46:52:662;0.095768064;10.668563;0.36391866
17:46:52:734;17:46:52:662;0.095768064;10.668563;0.36391866
17:46:52:742;17:46:52:662;0.095768064;10.668563;0.36391866
17:46:52:750;17:46:52:662;0.095768064;10.668563;0.36391866
17:46:52:757;17:46:52:662;0.095768064;10.668563;0.36391866
17:46:52:765;17:46:52:662;0.095768064;10.668563;0.36391866
17:46:52:773;17:46:52:773;-0.05746084;10.879252;0.24899697
17:46:52:781;17:46:52:773;-0.05746084;10.879252;0.24899697
17:46:52:789;17:46:52:773;-0.05746084;10.879252;0.24899697
17:46:52:796;17:46:52:773;-0.05746084;10.879252;0.24899697
17:46:52:804;17:46:52:773;-0.05746084;10.879252;0.24899697
17:46:52:812;17:46:52:773;-0.05746084;10.879252;0.24899697
17:46:52:820;17:46:52:773;-0.05746084;10.879252;0.24899697
17:46:52:828;17:46:52:773;-0.05746084;10.879252;0.24899697
17:46:52:835;17:46:52:773;-0.05746084;10.879252;0.24899697
17:46:52:843;17:46:52:773;-0.05746084;10.879252;0.24899697
17:46:52:851;17:46:52:773;-0.05746084;10.879252;0.24899697
17:46:52:859;17:46:52:773;-0.05746084;10.879252;0.24899697
17:46:52:867;17:46:52:773;-0.05746084;10.879252;0.24899697
17:46:52:875;17:46:52:773;-0.05746084;10.879252;0.24899697
17:46:52:882;17:46:52:773;-0.05746084;10.879252;0.24899697
17:46:52:890;17:46:52:890;-0.2873042;9.557653;1.4748282
17:46:52:898;17:46:52:890;-0.2873042;9.557653;1.4748282
17:46:52:906;17:46:52:890;-0.2873042;9.557653;1.4748282
17:46:52:914;17:46:52:890;-0.2873042;9.557653;1.4748282
17:46:52:921;17:46:52:890;-0.2873042;9.557653;1.4748282
17:46:52:929;17:46:52:890;-0.2873042;9.557653;1.4748282
17:46:52:937;17:46:52:890;-0.2873042;9.557653;1.4748282
17:46:52:945;17:46:52:890;-0.2873042;9.557653;1.4748282
17:46:52:953;17:46:52:890;-0.2873042;9.557653;1.4748282
17:46:52:960;17:46:52:890;-0.2873042;9.557653;1.4748282
17:46:52:968;17:46:52:890;-0.2873042;9.557653;1.4748282
17:46:52:976;17:46:52:890;-0.2873042;9.557653;1.4748282
17:46:52:984;17:46:52:890;-0.2873042;9.557653;1.4748282
17:46:52:992;17:46:52:890;-0.2873042;9.557653;1.4748282
17:46:53:000;17:46:52:890;-0.2873042;9.557653;1.4748282
17:46:53:007;17:46:52:890;-0.2873042;9.557653;1.4748282
17:46:53:015;17:46:53:008;-0.24899697;10.745177;0.49799395
17:46:53:023;17:46:53:008;-0.24899697;10.745177;0.49799395
17:46:53:031;17:46:53:008;-0.24899697;10.745177;0.49799395
17:46:53:039;17:46:53:008;-0.24899697;10.745177;0.49799395
17:46:53:046;17:46:53:008;-0.24899697;10.745177;0.49799395
17:46:53:054;17:46:53:008;-0.24899697;10.745177;0.49799395
17:46:53:062;17:46:53:008;-0.24899697;10.745177;0.49799395
17:46:53:070;17:46:53:008;-0.24899697;10.745177;0.49799395
17:46:53:078;17:46:53:008;-0.24899697;10.745177;0.49799395
17:46:53:085;17:46:53:008;-0.24899697;10.745177;0.49799395
17:46:53:093;17:46:53:008;-0.24899697;10.745177;0.49799395
17:46:53:101;17:46:53:008;-0.24899697;10.745177;0.49799395
17:46:53:109;17:46:53:008;-0.24899697;10.745177;0.49799395
17:46:53:117;17:46:53:008;-0.24899697;10.745177;0.49799395
17:46:53:125;17:46:53:008;-0.24899697;10.745177;0.49799395
17:46:53:132;17:46:53:130;-0.45968673;9.749189;1.2066777
17:46:53:140;17:46:53:130;-0.45968673;9.749189;1.2066777
17:46:53:148;17:46:53:130;-0.45968673;9.749189;1.2066777
17:46:53:156;17:46:53:130;-0.45968673;9.749189;1.2066777
17:46:53:164;17:46:53:130;-0.45968673;9.749189;1.2066777
17:46:53:171;17:46:53:130;-0.45968673;9.749189;1.2066777
17:46:53:179;17:46:53:130;-0.45968673;9.749189;1.2066777
17:46:53:187;17:46:53:130;-0.45968673;9.749189;1.2066777
17:46:53:195;17:46:53:130;-0.45968673;9.749189;1.2066777
17:46:53:203;17:46:53:130;-0.45968673;9.749189;1.2066777
17:46:53:210;17:46:53:130;-0.45968673;9.749189;1.2066777
17:46:53:218;17:46:53:130;-0.45968673;9.749189;1.2066777
17:46:53:226;17:46:53:130;-0.45968673;9.749189;1.2066777
17:46:53:234;17:46:53:130;-0.45968673;9.749189;1.2066777
17:46:53:242;17:46:53:242;-0.05746084;9.940725;0.34476504
17:46:53:250;17:46:53:242;-0.05746084;9.940725;0.34476504
17:46:53:257;17:46:53:242;-0.05746084;9.940725;0.34476504
17:46:53:265;17:46:53:242;-0.05746084;9.940725;0.34476504
17:46:53:273;17:46:53:242;-0.05746084;9.940725;0.34476504
17:46:53:281;17:46:53:242;-0.05746084;9.940725;0.34476504
17:46:53:289;17:46:53:242;-0.05746084;9.940725;0.34476504
17:46:53:296;17:46:53:242;-0.05746084;9.940725;0.34476504
17:46:53:304;17:46:53:242;-0.05746084;9.940725;0.34476504
17:46:53:312;17:46:53:242;-0.05746084;9.940725;0.34476504
17:46:53:320;17:46:53:242;-0.05746084;9.940725;0.34476504
17:46:53:328;17:46:53:242;-0.05746084;9.940725;0.34476504
17:46:53:335;17:46:53:242;-0.05746084;9.940725;0.34476504
17:46:53:343;17:46:53:342;-0.05746084;9.998186;0.19153613
17:46:53:351;17:46:53:342;-0.05746084;9.998186;0.19153613
17:46:53:359;17:46:53:342;-0.05746084;9.998186;0.19153613
17:46:53:367;17:46:53:342;-0.05746084;9.998186;0.19153613
17:46:53:375;17:46:53:342;-0.05746084;9.998186;0.19153613
17:46:53:382;17:46:53:342;-0.05746084;9.998186;0.19153613
17:46:53:390;17:46:53:342;-0.05746084;9.998186;0.19153613
17:46:53:398;17:46:53:342;-0.05746084;9.998186;0.19153613
17:46:53:406;17:46:53:342;-0.05746084;9.998186;0.19153613
17:46:53:414;17:46:53:342;-0.05746084;9.998186;0.19153613
17:46:53:421;17:46:53:342;-0.05746084;9.998186;0.19153613
17:46:53:429;17:46:53:342;-0.05746084;9.998186;0.19153613
17:46:53:437;17:46:53:342;-0.05746084;9.998186;0.19153613
17:46:53:445;17:46:53:342;-0.05746084;9.998186;0.19153613
17:46:53:453;17:46:53:342;-0.05746084;9.998186;0.19153613
17:46:53:460;17:46:53:460;-0.22984336;9.940725;0.2681506
17:46:53:468;17:46:53:460;-0.22984336;9.940725;0.2681506
17:46:53:476;17:46:53:460;-0.22984336;9.940725;0.2681506
