Time_Biotrace;Time_Accel;AccelX;AccelY;AccelZ
11:59:36:234;11:59:36:130;0.1340753;11.109096;-0.2681506
11:59:36:242;11:59:36:235;0.40222588;9.80665;-0.8619126
11:59:36:250;11:59:36:235;0.40222588;9.80665;-0.8619126
11:59:36:257;11:59:36:235;0.40222588;9.80665;-0.8619126
11:59:36:265;11:59:36:235;0.40222588;9.80665;-0.8619126
11:59:36:273;11:59:36:235;0.40222588;9.80665;-0.8619126
11:59:36:281;11:59:36:235;0.40222588;9.80665;-0.8619126
11:59:36:289;11:59:36:235;0.40222588;9.80665;-0.8619126
11:59:36:296;11:59:36:235;0.40222588;9.80665;-0.8619126
11:59:36:304;11:59:36:235;0.40222588;9.80665;-0.8619126
11:59:36:312;11:59:36:235;0.40222588;9.80665;-0.8619126
11:59:36:320;11:59:36:235;0.40222588;9.80665;-0.8619126
11:59:36:328;11:59:36:235;0.40222588;9.80665;-0.8619126
11:59:36:335;11:59:36:235;0.40222588;9.80665;-0.8619126
11:59:36:343;11:59:36:235;0.40222588;9.80665;-0.8619126
11:59:36:351;11:59:36:235;0.40222588;9.80665;-0.8619126
11:59:36:359;11:59:36:353;-0.2681506;9.940725;0.34476504
11:59:36:367;11:59:36:353;-0.2681506;9.940725;0.34476504
11:59:36:375;11:59:36:353;-0.2681506;9.940725;0.34476504
11:59:36:382;11:59:36:353;-0.2681506;9.940725;0.34476504
11:59:36:390;11:59:36:353;-0.2681506;9.940725;0.34476504
11:59:36:398;11:59:36:353;-0.2681506;9.940725;0.34476504
11:59:36:406;11:59:36:353;-0.2681506;9.940725;0.34476504
11:59:36:414;11:59:36:353;-0.2681506;9.940725;0.34476504
11:59:36:421;11:59:36:353;-0.2681506;9.940725;0.34476504
11:59:36:429;11:59:36:353;-0.2681506;9.940725;0.34476504
11:59:36:437;11:59:36:353;-0.2681506;9.940725;0.34476504
11:59:36:445;11:59:36:353;-0.2681506;9.940725;0.34476504
11:59:36:453;11:59:36:353;-0.2681506;9.940725;0.34476504
11:59:36:460;11:59:36:455;0.38307226;9.864111;0.2873042
11:59:36:468;11:59:36:455;0.38307226;9.864111;0.2873042
11:59:36:476;11:59:36:455;0.38307226;9.864111;0.2873042
11:59:36:484;11:59:36:455;0.38307226;9.864111;0.2873042
11:59:36:492;11:59:36:455;0.38307226;9.864111;0.2873042
11:59:36:500;11:59:36:455;0.38307226;9.864111;0.2873042
11:59:36:507;11:59:36:455;0.38307226;9.864111;0.2873042
11:59:36:515;11:59:36:455;0.38307226;9.864111;0.2873042
11:59:36:523;11:59:36:455;0.38307226;9.864111;0.2873042
11:59:36:531;11:59:36:455;0.38307226;9.864111;0.2873042
11:59:36:539;11:59:36:455;0.38307226;9.864111;0.2873042
11:59:36:546;11:59:36:455;0.38307226;9.864111;0.2873042
11:59:36:554;11:59:36:455;0.38307226;9.864111;0.2873042
11:59:36:562;11:59:36:558;-0.22984336;10.496181;-0.22984336
11:59:36:570;11:59:36:558;-0.22984336;10.496181;-0.22984336
11:59:36:578;11:59:36:558;-0.22984336;10.496181;-0.22984336
11:59:36:585;11:59:36:558;-0.22984336;10.496181;-0.22984336
11:59:36:593;11:59:36:558;-0.22984336;10.496181;-0.22984336
11:59:36:601;11:59:36:558;-0.22984336;10.496181;-0.22984336
11:59:36:609;11:59:36:558;-0.22984336;10.496181;-0.22984336
11:59:36:617;11:59:36:558;-0.22984336;10.496181;-0.22984336
11:59:36:625;11:59:36:558;-0.22984336;10.496181;-0.22984336
11:59:36:632;11:59:36:558;-0.22984336;10.496181;-0.22984336
11:59:36:640;11:59:36:558;-0.22984336;10.496181;-0.22984336
11:59:36:648;11:59:36:558;-0.22984336;10.496181;-0.22984336
11:59:36:656;11:59:36:558;-0.22984336;10.496181;-0.22984336
11:59:36:664;11:59:36:558;-0.22984336;10.496181;-0.22984336
11:59:36:671;11:59:36:558;-0.22984336;10.496181;-0.22984336
11:59:36:679;11:59:36:558;-0.22984336;10.496181;-0.22984336
11:59:36:687;11:59:36:558;-0.22984336;10.496181;-0.22984336
11:59:36:695;11:59:36:558;-0.22984336;10.496181;-0.22984336
11:59:36:703;11:59:36:558;-0.22984336;10.496181;-0.22984336
11:59:36:710;11:59:36:705;-0.038307227;9.730036;0.17238252
11:59:36:718;11:59:36:705;-0.038307227;9.730036;0.17238252
11:59:36:726;11:59:36:705;-0.038307227;9.730036;0.17238252
11:59:36:734;11:59:36:705;-0.038307227;9.730036;0.17238252
11:59:36:742;11:59:36:705;-0.038307227;9.730036;0.17238252
11:59:36:750;11:59:36:705;-0.038307227;9.730036;0.17238252
11:59:36:757;11:59:36:705;-0.038307227;9.730036;0.17238252
11:59:36:765;11:59:36:705;-0.038307227;9.730036;0.17238252
11:59:36:773;11:59:36:705;-0.038307227;9.730036;0.17238252
11:59:36:781;11:59:36:705;-0.038307227;9.730036;0.17238252
11:59:36:789;11:59:36:705;-0.038307227;9.730036;0.17238252
11:59:36:796;11:59:36:705;-0.038307227;9.730036;0.17238252
11:59:36:804;11:59:36:705;-0.038307227;9.730036;0.17238252
11:59:36:812;11:59:36:705;-0.038307227;9.730036;0.17238252
11:59:36:820;11:59:36:705;-0.038307227;9.730036;0.17238252
11:59:36:828;11:59:36:822;0.24899697;9.844957;0.5363012
11:59:36:835;11:59:36:822;0.24899697;9.844957;0.5363012
11:59:36:843;11:59:36:822;0.24899697;9.844957;0.5363012
11:59:36:851;11:59:36:822;0.24899697;9.844957;0.5363012
11:59:36:859;11:59:36:822;0.24899697;9.844957;0.5363012
11:59:36:867;11:59:36:822;0.24899697;9.844957;0.5363012
11:59:36:875;11:59:36:822;0.24899697;9.844957;0.5363012
11:59:36:882;11:59:36:822;0.24899697;9.844957;0.5363012
11:59:36:890;11:59:36:822;0.24899697;9.844957;0.5363012
11:59:36:898;11:59:36:822;0.24899697;9.844957;0.5363012
11:59:36:906;11:59:36:822;0.24899697;9.844957;0.5363012
11:59:36:914;11:59:36:822;0.24899697;9.844957;0.5363012
11:59:36:921;11:59:36:822;0.24899697;9.844957;0.5363012
11:59:36:929;11:59:36:822;0.24899697;9.844957;0.5363012
11:59:36:937;11:59:36:822;0.24899697;9.844957;0.5363012
11:59:36:945;11:59:36:942;-0.63206923;11.60709;-0.30645782
11:59:36:953;11:59:36:942;-0.63206923;11.60709;-0.30645782
11:59:36:960;11:59:36:942;-0.63206923;11.60709;-0.30645782
11:59:36:968;11:59:36:942;-0.63206923;11.60709;-0.30645782
11:59:36:976;11:59:36:942;-0.63206923;11.60709;-0.30645782
11:59:36:984;11:59:36:942;-0.63206923;11.60709;-0.30645782
11:59:36:992;11:59:36:942;-0.63206923;11.60709;-0.30645782
11:59:37:000;11:59:36:942;-0.63206923;11.60709;-0.30645782
11:59:37:007;11:59:36:942;-0.63206923;11.60709;-0.30645782
11:59:37:015;11:59:36:942;-0.63206923;11.60709;-0.30645782
11:59:37:023;11:59:36:942;-0.63206923;11.60709;-0.30645782
11:59:37:031;11:59:36:942;-0.63206923;11.60709;-0.30645782
11:59:37:039;11:59:36:942;-0.63206923;11.60709;-0.30645782
11:59:37:046;11:59:37:043;-0.1340753;10.43872;-0.34476504
11:59:37:054;11:59:37:043;-0.1340753;10.43872;-0.34476504
11:59:37:062;11:59:37:043;-0.1340753;10.43872;-0.34476504
11:59:37:070;11:59:37:043;-0.1340753;10.43872;-0.34476504
11:59:37:078;11:59:37:043;-0.1340753;10.43872;-0.34476504
11:59:37:085;11:59:37:043;-0.1340753;10.43872;-0.34476504
11:59:37:093;11:59:37:043;-0.1340753;10.43872;-0.34476504
11:59:37:101;11:59:37:043;-0.1340753;10.43872;-0.34476504
11:59:37:109;11:59:37:043;-0.1340753;10.43872;-0.34476504
11:59:37:117;11:59:37:043;-0.1340753;10.43872;-0.34476504
11:59:37:125;11:59:37:043;-0.1340753;10.43872;-0.34476504
11:59:37:132;11:59:37:043;-0.1340753;10.43872;-0.34476504
11:59:37:140;11:59:37:043;-0.1340753;10.43872;-0.34476504
11:59:37:148;11:59:37:043;-0.1340753;10.43872;-0.34476504
11:59:37:156;11:59:37:149;0.17238252;10.783484;-1.436521
11:59:37:164;11:59:37:149;0.17238252;10.783484;-1.436521
11:59:37:171;11:59:37:149;0.17238252;10.783484;-1.436521
11:59:37:179;11:59:37:149;0.17238252;10.783484;-1.436521
11:59:37:187;11:59:37:149;0.17238252;10.783484;-1.436521
11:59:37:195;11:59:37:149;0.17238252;10.783484;-1.436521
11:59:37:203;11:59:37:149;0.17238252;10.783484;-1.436521
11:59:37:210;11:59:37:149;0.17238252;10.783484;-1.436521
11:59:37:218;11:59:37:149;0.17238252;10.783484;-1.436521
11:59:37:226;11:59:37:149;0.17238252;10.783484;-1.436521
11:59:37:234;11:59:37:149;0.17238252;10.783484;-1.436521
11:59:37:242;11:59:37:149;0.17238252;10.783484;-1.436521
11:59:37:250;11:59:37:250;0.1340753;10.247183;-0.2681506
11:59:37:257;11:59:37:250;0.1340753;10.247183;-0.2681506
11:59:37:265;11:59:37:250;0.1340753;10.247183;-0.2681506
11:59:37:273;11:59:37:250;0.1340753;10.247183;-0.2681506
11:59:37:281;11:59:37:250;0.1340753;10.247183;-0.2681506
11:59:37:289;11:59:37:250;0.1340753;10.247183;-0.2681506
11:59:37:296;11:59:37:250;0.1340753;10.247183;-0.2681506
11:59:37:304;11:59:37:250;0.1340753;10.247183;-0.2681506
11:59:37:312;11:59:37:250;0.1340753;10.247183;-0.2681506
11:59:37:320;11:59:37:250;0.1340753;10.247183;-0.2681506
11:59:37:328;11:59:37:250;0.1340753;10.247183;-0.2681506
11:59:37:335;11:59:37:250;0.1340753;10.247183;-0.2681506
11:59:37:343;11:59:37:250;0.1340753;10.247183;-0.2681506
11:59:37:351;11:59:37:250;0.1340753;10.247183;-0.2681506
11:59:37:359;11:59:37:354;-0.15322891;8.293514;-0.40222588
11:59:37:367;11:59:37:354;-0.15322891;8.293514;-0.40222588
11:59:37:375;11:59:37:354;-0.15322891;8.293514;-0.40222588
11:59:37:382;11:59:37:354;-0.15322891;8.293514;-0.40222588
11:59:37:390;11:59:37:354;-0.15322891;8.293514;-0.40222588
11:59:37:398;11:59:37:354;-0.15322891;8.293514;-0.40222588
11:59:37:406;11:59:37:354;-0.15322891;8.293514;-0.40222588
11:59:37:414;11:59:37:354;-0.15322891;8.293514;-0.40222588
11:59:37:421;11:59:37:354;-0.15322891;8.293514;-0.40222588
11:59:37:429;11:59:37:354;-0.15322891;8.293514;-0.40222588
11:59:37:437;11:59:37:354;-0.15322891;8.293514;-0.40222588
11:59:37:445;11:59:37:354;-0.15322891;8.293514;-0.40222588
11:59:37:453;11:59:37:354;-0.15322891;8.293514;-0.40222588
11:59:37:460;11:59:37:456;0.8619126;9.481039;0.6512229
11:59:37:468;11:59:37:456;0.8619126;9.481039;0.6512229
11:59:37:476;11:59:37:456;0.8619126;9.481039;0.6512229
11:59:37:484;11:59:37:456;0.8619126;9.481039;0.6512229
11:59:37:492;11:59:37:456;0.8619126;9.481039;0.6512229
11:59:37:500;11:59:37:456;0.8619126;9.481039;0.6512229
11:59:37:507;11:59:37:456;0.8619126;9.481039;0.6512229
11:59:37:515;11:59:37:456;0.8619126;9.481039;0.6512229
11:59:37:523;11:59:37:456;0.8619126;9.481039;0.6512229
11:59:37:531;11:59:37:456;0.8619126;9.481039;0.6512229
11:59:37:539;11:59:37:456;0.8619126;9.481039;0.6512229
11:59:37:546;11:59:37:456;0.8619126;9.481039;0.6512229
11:59:37:554;11:59:37:456;0.8619126;9.481039;0.6512229
11:59:37:562;11:59:37:558;0.15322891;11.722012;0.19153613
11:59:37:570;11:59:37:558;0.15322891;11.722012;0.19153613
11:59:37:578;11:59:37:558;0.15322891;11.722012;0.19153613
11:59:37:585;11:59:37:558;0.15322891;11.722012;0.19153613
11:59:37:593;11:59:37:558;0.15322891;11.722012;0.19153613
11:59:37:601;11:59:37:558;0.15322891;11.722012;0.19153613
11:59:37:609;11:59:37:558;0.15322891;11.722012;0.19153613
11:59:37:617;11:59:37:558;0.15322891;11.722012;0.19153613
11:59:37:625;11:59:37:558;0.15322891;11.722012;0.19153613
11:59:37:632;11:59:37:558;0.15322891;11.722012;0.19153613
11:59:37:640;11:59:37:558;0.15322891;11.722012;0.19153613
11:59:37:648;11:59:37:558;0.15322891;11.722012;0.19153613
11:59:37:656;11:59:37:558;0.15322891;11.722012;0.19153613
11:59:37:664;11:59:37:558;0.15322891;11.722012;0.19153613
11:59:37:671;11:59:37:558;0.15322891;11.722012;0.19153613
11:59:37:679;11:59:37:558;0.15322891;11.722012;0.19153613
11:59:37:687;11:59:37:558;0.15322891;11.722012;0.19153613
11:59:37:695;11:59:37:558;0.15322891;11.722012;0.19153613
11:59:37:703;11:59:37:558;0.15322891;11.722012;0.19153613
11:59:37:710;11:59:37:558;0.15322891;11.722012;0.19153613
11:59:37:718;11:59:37:718;-0.40222588;10.113108;0.36391866
11:59:37:726;11:59:37:718;-0.40222588;10.113108;0.36391866
11:59:37:734;11:59:37:718;-0.40222588;10.113108;0.36391866
11:59:37:742;11:59:37:718;-0.40222588;10.113108;0.36391866
11:59:37:750;11:59:37:718;-0.40222588;10.113108;0.36391866
11:59:37:757;11:59:37:718;-0.40222588;10.113108;0.36391866
11:59:37:765;11:59:37:718;-0.40222588;10.113108;0.36391866
11:59:37:773;11:59:37:718;-0.40222588;10.113108;0.36391866
11:59:37:781;11:59:37:718;-0.40222588;10.113108;0.36391866
11:59:37:789;11:59:37:718;-0.40222588;10.113108;0.36391866
11:59:37:796;11:59:37:718;-0.40222588;10.113108;0.36391866
11:59:37:804;11:59:37:718;-0.40222588;10.113108;0.36391866
11:59:37:812;11:59:37:718;-0.40222588;10.113108;0.36391866
11:59:37:820;11:59:37:718;-0.40222588;10.113108;0.36391866
11:59:37:828;11:59:37:718;-0.40222588;10.113108;0.36391866
11:59:37:835;11:59:37:835;-0.9768343;9.404425;1.2066777
11:59:37:843;11:59:37:835;-0.9768343;9.404425;1.2066777
11:59:37:851;11:59:37:835;-0.9768343;9.404425;1.2066777
11:59:37:859;11:59:37:835;-0.9768343;9.404425;1.2066777
11:59:37:867;11:59:37:835;-0.9768343;9.404425;1.2066777
11:59:37:875;11:59:37:835;-0.9768343;9.404425;1.2066777
11:59:37:882;11:59:37:835;-0.9768343;9.404425;1.2066777
11:59:37:890;11:59:37:835;-0.9768343;9.404425;1.2066777
11:59:37:898;11:59:37:835;-0.9768343;9.404425;1.2066777
11:59:37:906;11:59:37:835;-0.9768343;9.404425;1.2066777
11:59:37:914;11:59:37:835;-0.9768343;9.404425;1.2066777
11:59:37:921;11:59:37:835;-0.9768343;9.404425;1.2066777
11:59:37:929;11:59:37:835;-0.9768343;9.404425;1.2066777
11:59:37:937;11:59:37:835;-0.9768343;9.404425;1.2066777
11:59:37:945;11:59:37:835;-0.9768343;9.404425;1.2066777
11:59:37:953;11:59:37:952;0.30645782;11.626244;0.038307227
11:59:37:960;11:59:37:952;0.30645782;11.626244;0.038307227
11:59:37:968;11:59:37:952;0.30645782;11.626244;0.038307227
11:59:37:976;11:59:37:952;0.30645782;11.626244;0.038307227
11:59:37:984;11:59:37:952;0.30645782;11.626244;0.038307227
11:59:37:992;11:59:37:952;0.30645782;11.626244;0.038307227
11:59:38:000;11:59:37:952;0.30645782;11.626244;0.038307227
11:59:38:007;11:59:37:952;0.30645782;11.626244;0.038307227
11:59:38:015;11:59:37:952;0.30645782;11.626244;0.038307227
11:59:38:023;11:59:37:952;0.30645782;11.626244;0.038307227
11:59:38:031;11:59:37:952;0.30645782;11.626244;0.038307227
11:59:38:039;11:59:37:952;0.30645782;11.626244;0.038307227
11:59:38:046;11:59:37:952;0.30645782;11.626244;0.038307227
11:59:38:054;11:59:37:952;0.30645782;11.626244;0.038307227
11:59:38:062;11:59:38:055;-0.47884035;11.013328;-0.32561144
11:59:38:070;11:59:38:055;-0.47884035;11.013328;-0.32561144
11:59:38:078;11:59:38:055;-0.47884035;11.013328;-0.32561144
11:59:38:085;11:59:38:055;-0.47884035;11.013328;-0.32561144
11:59:38:093;11:59:38:055;-0.47884035;11.013328;-0.32561144
11:59:38:101;11:59:38:055;-0.47884035;11.013328;-0.32561144
11:59:38:109;11:59:38:055;-0.47884035;11.013328;-0.32561144
11:59:38:117;11:59:38:055;-0.47884035;11.013328;-0.32561144
11:59:38:125;11:59:38:055;-0.47884035;11.013328;-0.32561144
11:59:38:132;11:59:38:055;-0.47884035;11.013328;-0.32561144
11:59:38:140;11:59:38:055;-0.47884035;11.013328;-0.32561144
11:59:38:148;11:59:38:055;-0.47884035;11.013328;-0.32561144
11:59:38:156;11:59:38:055;-0.47884035;11.013328;-0.32561144
11:59:38:164;11:59:38:055;-0.47884035;11.013328;-0.32561144
11:59:38:171;11:59:38:167;-0.59376204;11.032481;0.30645782
11:59:38:179;11:59:38:167;-0.59376204;11.032481;0.30645782
11:59:38:187;11:59:38:167;-0.59376204;11.032481;0.30645782
11:59:38:195;11:59:38:167;-0.59376204;11.032481;0.30645782
11:59:38:203;11:59:38:167;-0.59376204;11.032481;0.30645782
11:59:38:210;11:59:38:167;-0.59376204;11.032481;0.30645782
11:59:38:218;11:59:38:167;-0.59376204;11.032481;0.30645782
11:59:38:226;11:59:38:167;-0.59376204;11.032481;0.30645782
11:59:38:234;11:59:38:167;-0.59376204;11.032481;0.30645782
11:59:38:242;11:59:38:167;-0.59376204;11.032481;0.30645782
11:59:38:250;11:59:38:167;-0.59376204;11.032481;0.30645782
11:59:38:257;11:59:38:167;-0.59376204;11.032481;0.30645782
11:59:38:265;11:59:38:167;-0.59376204;11.032481;0.30645782
11:59:38:273;11:59:38:271;0.11492168;10.860099;-0.61291564
11:59:38:281;11:59:38:271;0.11492168;10.860099;-0.61291564
11:59:38:289;11:59:38:271;0.11492168;10.860099;-0.61291564
11:59:38:296;11:59:38:271;0.11492168;10.860099;-0.61291564
11:59:38:304;11:59:38:271;0.11492168;10.860099;-0.61291564
11:59:38:312;11:59:38:271;0.11492168;10.860099;-0.61291564
11:59:38:320;11:59:38:271;0.11492168;10.860099;-0.61291564
11:59:38:328;11:59:38:271;0.11492168;10.860099;-0.61291564
11:59:38:335;11:59:38:271;0.11492168;10.860099;-0.61291564
11:59:38:343;11:59:38:271;0.11492168;10.860099;-0.61291564
11:59:38:351;11:59:38:271;0.11492168;10.860099;-0.61291564
11:59:38:359;11:59:38:271;0.11492168;10.860099;-0.61291564
11:59:38:367;11:59:38:271;0.11492168;10.860099;-0.61291564
11:59:38:375;11:59:38:271;0.11492168;10.860099;-0.61291564
11:59:38:382;11:59:38:377;0.38307226;10.055647;1.2641385
11:59:38:390;11:59:38:377;0.38307226;10.055647;1.2641385
11:59:38:398;11:59:38:377;0.38307226;10.055647;1.2641385
11:59:38:406;11:59:38:377;0.38307226;10.055647;1.2641385
11:59:38:414;11:59:38:377;0.38307226;10.055647;1.2641385
11:59:38:421;11:59:38:377;0.38307226;10.055647;1.2641385
11:59:38:429;11:59:38:377;0.38307226;10.055647;1.2641385
11:59:38:437;11:59:38:377;0.38307226;10.055647;1.2641385
11:59:38:445;11:59:38:377;0.38307226;10.055647;1.2641385
11:59:38:453;11:59:38:377;0.38307226;10.055647;1.2641385
11:59:38:460;11:59:38:377;0.38307226;10.055647;1.2641385
11:59:38:468;11:59:38:377;0.38307226;10.055647;1.2641385
11:59:38:476;11:59:38:377;0.38307226;10.055647;1.2641385
11:59:38:484;11:59:38:377;0.38307226;10.055647;1.2641385
11:59:38:492;11:59:38:491;-0.61291564;10.745177;0.2873042
11:59:38:500;11:59:38:491;-0.61291564;10.745177;0.2873042
11:59:38:507;11:59:38:491;-0.61291564;10.745177;0.2873042
11:59:38:515;11:59:38:491;-0.61291564;10.745177;0.2873042
11:59:38:523;11:59:38:491;-0.61291564;10.745177;0.2873042
11:59:38:531;11:59:38:491;-0.61291564;10.745177;0.2873042
11:59:38:539;11:59:38:491;-0.61291564;10.745177;0.2873042
11:59:38:546;11:59:38:491;-0.61291564;10.745177;0.2873042
11:59:38:554;11:59:38:491;-0.61291564;10.745177;0.2873042
11:59:38:562;11:59:38:491;-0.61291564;10.745177;0.2873042
11:59:38:570;11:59:38:491;-0.61291564;10.745177;0.2873042
11:59:38:578;11:59:38:491;-0.61291564;10.745177;0.2873042
11:59:38:585;11:59:38:491;-0.61291564;10.745177;0.2873042
11:59:38:593;11:59:38:491;-0.61291564;10.745177;0.2873042
11:59:38:601;11:59:38:600;-0.095768064;10.668563;0.4213795
11:59:38:609;11:59:38:600;-0.095768064;10.668563;0.4213795
11:59:38:617;11:59:38:600;-0.095768064;10.668563;0.4213795
11:59:38:625;11:59:38:600;-0.095768064;10.668563;0.4213795
11:59:38:632;11:59:38:600;-0.095768064;10.668563;0.4213795
11:59:38:640;11:59:38:600;-0.095768064;10.668563;0.4213795
11:59:38:648;11:59:38:600;-0.095768064;10.668563;0.4213795
11:59:38:656;11:59:38:600;-0.095768064;10.668563;0.4213795
11:59:38:664;11:59:38:600;-0.095768064;10.668563;0.4213795
11:59:38:671;11:59:38:600;-0.095768064;10.668563;0.4213795
11:59:38:679;11:59:38:600;-0.095768064;10.668563;0.4213795
11:59:38:687;11:59:38:600;-0.095768064;10.668563;0.4213795
11:59:38:695;11:59:38:600;-0.095768064;10.668563;0.4213795
11:59:38:703;11:59:38:600;-0.095768064;10.668563;0.4213795
11:59:38:710;11:59:38:600;-0.095768064;10.668563;0.4213795
11:59:38:718;11:59:38:711;0.038307227;9.155427;-0.17238252
11:59:38:726;11:59:38:711;0.038307227;9.155427;-0.17238252
11:59:38:734;11:59:38:711;0.038307227;9.155427;-0.17238252
11:59:38:742;11:59:38:711;0.038307227;9.155427;-0.17238252
11:59:38:750;11:59:38:711;0.038307227;9.155427;-0.17238252
11:59:38:757;11:59:38:711;0.038307227;9.155427;-0.17238252
11:59:38:765;11:59:38:711;0.038307227;9.155427;-0.17238252
11:59:38:773;11:59:38:711;0.038307227;9.155427;-0.17238252
11:59:38:781;11:59:38:711;0.038307227;9.155427;-0.17238252
11:59:38:789;11:59:38:711;0.038307227;9.155427;-0.17238252
11:59:38:796;11:59:38:711;0.038307227;9.155427;-0.17238252
11:59:38:804;11:59:38:711;0.038307227;9.155427;-0.17238252
11:59:38:812;11:59:38:711;0.038307227;9.155427;-0.17238252
11:59:38:820;11:59:38:711;0.038307227;9.155427;-0.17238252
11:59:38:828;11:59:38:711;0.038307227;9.155427;-0.17238252
11:59:38:835;11:59:38:829;0.05746084;9.021352;0.7086837
11:59:38:843;11:59:38:829;0.05746084;9.021352;0.7086837
11:59:38:851;11:59:38:829;0.05746084;9.021352;0.7086837
11:59:38:859;11:59:38:829;0.05746084;9.021352;0.7086837
11:59:38:867;11:59:38:829;0.05746084;9.021352;0.7086837
11:59:38:875;11:59:38:829;0.05746084;9.021352;0.7086837
11:59:38:882;11:59:38:829;0.05746084;9.021352;0.7086837
11:59:38:890;11:59:38:829;0.05746084;9.021352;0.7086837
11:59:38:898;11:59:38:829;0.05746084;9.021352;0.7086837
11:59:38:906;11:59:38:829;0.05746084;9.021352;0.7086837
11:59:38:914;11:59:38:829;0.05746084;9.021352;0.7086837
11:59:38:921;11:59:38:829;0.05746084;9.021352;0.7086837
11:59:38:929;11:59:38:829;0.05746084;9.021352;0.7086837
11:59:38:937;11:59:38:931;-0.32561144;9.940725;0.1340753
11:59:38:945;11:59:38:931;-0.32561144;9.940725;0.1340753
11:59:38:953;11:59:38:931;-0.32561144;9.940725;0.1340753
11:59:38:960;11:59:38:931;-0.32561144;9.940725;0.1340753
11:59:38:968;11:59:38:931;-0.32561144;9.940725;0.1340753
11:59:38:976;11:59:38:931;-0.32561144;9.940725;0.1340753
11:59:38:984;11:59:38:931;-0.32561144;9.940725;0.1340753
11:59:38:992;11:59:38:931;-0.32561144;9.940725;0.1340753
11:59:39:000;11:59:38:931;-0.32561144;9.940725;0.1340753
11:59:39:007;11:59:38:931;-0.32561144;9.940725;0.1340753
11:59:39:015;11:59:38:931;-0.32561144;9.940725;0.1340753
11:59:39:023;11:59:38:931;-0.32561144;9.940725;0.1340753
11:59:39:031;11:59:38:931;-0.32561144;9.940725;0.1340753
11:59:39:039;11:59:38:931;-0.32561144;9.940725;0.1340753
11:59:39:046;11:59:38:931;-0.32561144;9.940725;0.1340753
11:59:39:054;11:59:39:052;1.0726024;10.189722;-0.24899697
11:59:39:062;11:59:39:052;1.0726024;10.189722;-0.24899697
11:59:39:070;11:59:39:052;1.0726024;10.189722;-0.24899697
11:59:39:078;11:59:39:052;1.0726024;10.189722;-0.24899697
11:59:39:085;11:59:39:052;1.0726024;10.189722;-0.24899697
11:59:39:093;11:59:39:052;1.0726024;10.189722;-0.24899697
11:59:39:101;11:59:39:052;1.0726024;10.189722;-0.24899697
11:59:39:109;11:59:39:052;1.0726024;10.189722;-0.24899697
11:59:39:117;11:59:39:052;1.0726024;10.189722;-0.24899697
11:59:39:125;11:59:39:052;1.0726024;10.189722;-0.24899697
11:59:39:132;11:59:39:052;1.0726024;10.189722;-0.24899697
11:59:39:140;11:59:39:052;1.0726024;10.189722;-0.24899697
11:59:39:148;11:59:39:052;1.0726024;10.189722;-0.24899697
11:59:39:156;11:59:39:052;1.0726024;10.189722;-0.24899697
11:59:39:164;11:59:39:162;0.24899697;10.342952;-0.076614454
11:59:39:171;11:59:39:162;0.24899697;10.342952;-0.076614454
11:59:39:179;11:59:39:162;0.24899697;10.342952;-0.076614454
11:59:39:187;11:59:39:162;0.24899697;10.342952;-0.076614454
11:59:39:195;11:59:39:162;0.24899697;10.342952;-0.076614454
11:59:39:203;11:59:39:162;0.24899697;10.342952;-0.076614454
11:59:39:210;11:59:39:162;0.24899697;10.342952;-0.076614454
11:59:39:218;11:59:39:162;0.24899697;10.342952;-0.076614454
11:59:39:226;11:59:39:162;0.24899697;10.342952;-0.076614454
11:59:39:234;11:59:39:162;0.24899697;10.342952;-0.076614454
11:59:39:242;11:59:39:162;0.24899697;10.342952;-0.076614454
11:59:39:250;11:59:39:162;0.24899697;10.342952;-0.076614454
11:59:39:257;11:59:39:162;0.24899697;10.342952;-0.076614454
11:59:39:265;11:59:39:264;0.22984336;10.419566;-0.11492168
11:59:39:273;11:59:39:264;0.22984336;10.419566;-0.11492168
11:59:39:281;11:59:39:264;0.22984336;10.419566;-0.11492168
11:59:39:289;11:59:39:264;0.22984336;10.419566;-0.11492168
11:59:39:296;11:59:39:264;0.22984336;10.419566;-0.11492168
11:59:39:304;11:59:39:264;0.22984336;10.419566;-0.11492168
11:59:39:312;11:59:39:264;0.22984336;10.419566;-0.11492168
11:59:39:320;11:59:39:264;0.22984336;10.419566;-0.11492168
11:59:39:328;11:59:39:264;0.22984336;10.419566;-0.11492168
11:59:39:335;11:59:39:264;0.22984336;10.419566;-0.11492168
11:59:39:343;11:59:39:264;0.22984336;10.419566;-0.11492168
11:59:39:351;11:59:39:264;0.22984336;10.419566;-0.11492168
11:59:39:359;11:59:39:264;0.22984336;10.419566;-0.11492168
11:59:39:367;11:59:39:264;0.22984336;10.419566;-0.11492168
11:59:39:375;11:59:39:264;0.22984336;10.419566;-0.11492168
11:59:39:382;11:59:39:264;0.22984336;10.419566;-0.11492168
11:59:39:390;11:59:39:264;0.22984336;10.419566;-0.11492168
11:59:39:398;11:59:39:264;0.22984336;10.419566;-0.11492168
11:59:39:406;11:59:39:406;-0.21068975;9.710882;0.11492168
11:59:39:414;11:59:39:406;-0.21068975;9.710882;0.11492168
11:59:39:421;11:59:39:406;-0.21068975;9.710882;0.11492168
11:59:39:429;11:59:39:406;-0.21068975;9.710882;0.11492168
11:59:39:437;11:59:39:406;-0.21068975;9.710882;0.11492168
11:59:39:445;11:59:39:406;-0.21068975;9.710882;0.11492168
11:59:39:453;11:59:39:406;-0.21068975;9.710882;0.11492168
11:59:39:460;11:59:39:406;-0.21068975;9.710882;0.11492168
11:59:39:468;11:59:39:406;-0.21068975;9.710882;0.11492168
11:59:39:476;11:59:39:406;-0.21068975;9.710882;0.11492168
11:59:39:484;11:59:39:406;-0.21068975;9.710882;0.11492168
11:59:39:492;11:59:39:406;-0.21068975;9.710882;0.11492168
11:59:39:500;11:59:39:406;-0.21068975;9.710882;0.11492168
11:59:39:507;11:59:39:406;-0.21068975;9.710882;0.11492168
11:59:39:515;11:59:39:406;-0.21068975;9.710882;0.11492168
11:59:39:523;11:59:39:406;-0.21068975;9.710882;0.11492168
11:59:39:531;11:59:39:526;-0.38307226;8.791509;0.6703765
11:59:39:539;11:59:39:526;-0.38307226;8.791509;0.6703765
11:59:39:546;11:59:39:526;-0.38307226;8.791509;0.6703765
11:59:39:554;11:59:39:526;-0.38307226;8.791509;0.6703765
11:59:39:562;11:59:39:526;-0.38307226;8.791509;0.6703765
11:59:39:570;11:59:39:526;-0.38307226;8.791509;0.6703765
11:59:39:578;11:59:39:526;-0.38307226;8.791509;0.6703765
11:59:39:585;11:59:39:526;-0.38307226;8.791509;0.6703765
11:59:39:593;11:59:39:526;-0.38307226;8.791509;0.6703765
11:59:39:601;11:59:39:526;-0.38307226;8.791509;0.6703765
11:59:39:609;11:59:39:526;-0.38307226;8.791509;0.6703765
11:59:39:617;11:59:39:526;-0.38307226;8.791509;0.6703765
11:59:39:625;11:59:39:526;-0.38307226;8.791509;0.6703765
11:59:39:632;11:59:39:628;-0.095768064;9.998186;0.4405331
11:59:39:640;11:59:39:628;-0.095768064;9.998186;0.4405331
11:59:39:648;11:59:39:628;-0.095768064;9.998186;0.4405331
11:59:39:656;11:59:39:628;-0.095768064;9.998186;0.4405331
11:59:39:664;11:59:39:628;-0.095768064;9.998186;0.4405331
11:59:39:671;11:59:39:628;-0.095768064;9.998186;0.4405331
11:59:39:679;11:59:39:628;-0.095768064;9.998186;0.4405331
11:59:39:687;11:59:39:628;-0.095768064;9.998186;0.4405331
11:59:39:695;11:59:39:628;-0.095768064;9.998186;0.4405331
11:59:39:703;11:59:39:628;-0.095768064;9.998186;0.4405331
11:59:39:710;11:59:39:628;-0.095768064;9.998186;0.4405331
11:59:39:718;11:59:39:628;-0.095768064;9.998186;0.4405331
11:59:39:726;11:59:39:628;-0.095768064;9.998186;0.4405331
11:59:39:734;11:59:39:628;-0.095768064;9.998186;0.4405331
11:59:39:742;11:59:39:628;-0.095768064;9.998186;0.4405331
11:59:39:750;11:59:39:628;-0.095768064;9.998186;0.4405331
11:59:39:757;11:59:39:628;-0.095768064;9.998186;0.4405331
11:59:39:765;11:59:39:628;-0.095768064;9.998186;0.4405331
11:59:39:773;11:59:39:768;-0.2873042;9.3661175;0.2681506
11:59:39:781;11:59:39:768;-0.2873042;9.3661175;0.2681506
11:59:39:789;11:59:39:768;-0.2873042;9.3661175;0.2681506
11:59:39:796;11:59:39:768;-0.2873042;9.3661175;0.2681506
11:59:39:804;11:59:39:768;-0.2873042;9.3661175;0.2681506
11:59:39:812;11:59:39:768;-0.2873042;9.3661175;0.2681506
11:59:39:820;11:59:39:768;-0.2873042;9.3661175;0.2681506
11:59:39:828;11:59:39:768;-0.2873042;9.3661175;0.2681506
11:59:39:835;11:59:39:768;-0.2873042;9.3661175;0.2681506
11:59:39:843;11:59:39:768;-0.2873042;9.3661175;0.2681506
11:59:39:851;11:59:39:768;-0.2873042;9.3661175;0.2681506
11:59:39:859;11:59:39:768;-0.2873042;9.3661175;0.2681506
11:59:39:867;11:59:39:768;-0.2873042;9.3661175;0.2681506
11:59:39:875;11:59:39:768;-0.2873042;9.3661175;0.2681506
11:59:39:882;11:59:39:768;-0.2873042;9.3661175;0.2681506
11:59:39:890;11:59:39:888;0.038307227;10.496181;0.038307227
11:59:39:898;11:59:39:888;0.038307227;10.496181;0.038307227
11:59:39:906;11:59:39:888;0.038307227;10.496181;0.038307227
11:59:39:914;11:59:39:888;0.038307227;10.496181;0.038307227
11:59:39:921;11:59:39:888;0.038307227;10.496181;0.038307227
11:59:39:929;11:59:39:888;0.038307227;10.496181;0.038307227
11:59:39:937;11:59:39:888;0.038307227;10.496181;0.038307227
11:59:39:945;11:59:39:888;0.038307227;10.496181;0.038307227
11:59:39:953;11:59:39:888;0.038307227;10.496181;0.038307227
11:59:39:960;11:59:39:888;0.038307227;10.496181;0.038307227
11:59:39:968;11:59:39:888;0.038307227;10.496181;0.038307227
11:59:39:976;11:59:39:888;0.038307227;10.496181;0.038307227
11:59:39:984;11:59:39:888;0.038307227;10.496181;0.038307227
11:59:39:992;11:59:39:990;0.40222588;10.170568;0.51714754
11:59:40:000;11:59:39:990;0.40222588;10.170568;0.51714754
11:59:40:007;11:59:39:990;0.40222588;10.170568;0.51714754
11:59:40:015;11:59:39:990;0.40222588;10.170568;0.51714754
11:59:40:023;11:59:39:990;0.40222588;10.170568;0.51714754
11:59:40:031;11:59:39:990;0.40222588;10.170568;0.51714754
11:59:40:039;11:59:39:990;0.40222588;10.170568;0.51714754
11:59:40:046;11:59:39:990;0.40222588;10.170568;0.51714754
11:59:40:054;11:59:39:990;0.40222588;10.170568;0.51714754
11:59:40:062;11:59:39:990;0.40222588;10.170568;0.51714754
11:59:40:070;11:59:39:990;0.40222588;10.170568;0.51714754
11:59:40:078;11:59:39:990;0.40222588;10.170568;0.51714754
11:59:40:085;11:59:39:990;0.40222588;10.170568;0.51714754
11:59:40:093;11:59:39:990;0.40222588;10.170568;0.51714754
11:59:40:101;11:59:40:101;-0.9576807;9.768343;0.80445176
11:59:40:109;11:59:40:101;-0.9576807;9.768343;0.80445176
11:59:40:117;11:59:40:101;-0.9576807;9.768343;0.80445176
11:59:40:125;11:59:40:101;-0.9576807;9.768343;0.80445176
11:59:40:132;11:59:40:101;-0.9576807;9.768343;0.80445176
11:59:40:140;11:59:40:101;-0.9576807;9.768343;0.80445176
11:59:40:148;11:59:40:101;-0.9576807;9.768343;0.80445176
11:59:40:156;11:59:40:101;-0.9576807;9.768343;0.80445176
11:59:40:164;11:59:40:101;-0.9576807;9.768343;0.80445176
11:59:40:171;11:59:40:101;-0.9576807;9.768343;0.80445176
11:59:40:179;11:59:40:101;-0.9576807;9.768343;0.80445176
11:59:40:187;11:59:40:101;-0.9576807;9.768343;0.80445176
11:59:40:195;11:59:40:101;-0.9576807;9.768343;0.80445176
11:59:40:203;11:59:40:101;-0.9576807;9.768343;0.80445176
11:59:40:210;11:59:40:101;-0.9576807;9.768343;0.80445176
11:59:40:218;11:59:40:213;-0.21068975;7.5082164;0.32561144
11:59:40:226;11:59:40:213;-0.21068975;7.5082164;0.32561144
11:59:40:234;11:59:40:213;-0.21068975;7.5082164;0.32561144
11:59:40:242;11:59:40:213;-0.21068975;7.5082164;0.32561144
11:59:40:250;11:59:40:213;-0.21068975;7.5082164;0.32561144
11:59:40:257;11:59:40:213;-0.21068975;7.5082164;0.32561144
11:59:40:265;11:59:40:213;-0.21068975;7.5082164;0.32561144
11:59:40:273;11:59:40:213;-0.21068975;7.5082164;0.32561144
11:59:40:281;11:59:40:213;-0.21068975;7.5082164;0.32561144
11:59:40:289;11:59:40:213;-0.21068975;7.5082164;0.32561144
11:59:40:296;11:59:40:213;-0.21068975;7.5082164;0.32561144
11:59:40:304;11:59:40:213;-0.21068975;7.5082164;0.32561144
11:59:40:312;11:59:40:213;-0.21068975;7.5082164;0.32561144
11:59:40:320;11:59:40:213;-0.21068975;7.5082164;0.32561144
11:59:40:328;11:59:40:213;-0.21068975;7.5082164;0.32561144
11:59:40:335;11:59:40:333;-2.4133554;11.492168;0.21068975
11:59:40:343;11:59:40:333;-2.4133554;11.492168;0.21068975
11:59:40:351;11:59:40:333;-2.4133554;11.492168;0.21068975
11:59:40:359;11:59:40:333;-2.4133554;11.492168;0.21068975
11:59:40:367;11:59:40:333;-2.4133554;11.492168;0.21068975
11:59:40:375;11:59:40:333;-2.4133554;11.492168;0.21068975
11:59:40:382;11:59:40:333;-2.4133554;11.492168;0.21068975
11:59:40:390;11:59:40:333;-2.4133554;11.492168;0.21068975
11:59:40:398;11:59:40:333;-2.4133554;11.492168;0.21068975
11:59:40:406;11:59:40:333;-2.4133554;11.492168;0.21068975
11:59:40:414;11:59:40:333;-2.4133554;11.492168;0.21068975
11:59:40:421;11:59:40:333;-2.4133554;11.492168;0.21068975
11:59:40:429;11:59:40:333;-2.4133554;11.492168;0.21068975
11:59:40:437;11:59:40:333;-2.4133554;11.492168;0.21068975
11:59:40:445;11:59:40:333;-2.4133554;11.492168;0.21068975
11:59:40:453;11:59:40:453;0.4405331;10.036493;0.40222588
11:59:40:460;11:59:40:453;0.4405331;10.036493;0.40222588
11:59:40:468;11:59:40:453;0.4405331;10.036493;0.40222588
11:59:40:476;11:59:40:453;0.4405331;10.036493;0.40222588
11:59:40:484;11:59:40:453;0.4405331;10.036493;0.40222588
11:59:40:492;11:59:40:453;0.4405331;10.036493;0.40222588
11:59:40:500;11:59:40:453;0.4405331;10.036493;0.40222588
11:59:40:507;11:59:40:453;0.4405331;10.036493;0.40222588
11:59:40:515;11:59:40:453;0.4405331;10.036493;0.40222588
11:59:40:523;11:59:40:453;0.4405331;10.036493;0.40222588
11:59:40:531;11:59:40:453;0.4405331;10.036493;0.40222588
11:59:40:539;11:59:40:453;0.4405331;10.036493;0.40222588
11:59:40:546;11:59:40:453;0.4405331;10.036493;0.40222588
11:59:40:554;11:59:40:554;0.11492168;10.266336;-0.24899697
11:59:40:562;11:59:40:554;0.11492168;10.266336;-0.24899697
11:59:40:570;11:59:40:554;0.11492168;10.266336;-0.24899697
11:59:40:578;11:59:40:554;0.11492168;10.266336;-0.24899697
11:59:40:585;11:59:40:554;0.11492168;10.266336;-0.24899697
11:59:40:593;11:59:40:554;0.11492168;10.266336;-0.24899697
11:59:40:601;11:59:40:554;0.11492168;10.266336;-0.24899697
11:59:40:609;11:59:40:554;0.11492168;10.266336;-0.24899697
11:59:40:617;11:59:40:554;0.11492168;10.266336;-0.24899697
11:59:40:625;11:59:40:554;0.11492168;10.266336;-0.24899697
11:59:40:632;11:59:40:554;0.11492168;10.266336;-0.24899697
11:59:40:640;11:59:40:554;0.11492168;10.266336;-0.24899697
11:59:40:648;11:59:40:554;0.11492168;10.266336;-0.24899697
11:59:40:656;11:59:40:554;0.11492168;10.266336;-0.24899697
11:59:40:664;11:59:40:554;0.11492168;10.266336;-0.24899697
11:59:40:671;11:59:40:668;-0.1340753;9.883265;-0.2873042
11:59:40:679;11:59:40:668;-0.1340753;9.883265;-0.2873042
11:59:40:687;11:59:40:668;-0.1340753;9.883265;-0.2873042
11:59:40:695;11:59:40:668;-0.1340753;9.883265;-0.2873042
11:59:40:703;11:59:40:668;-0.1340753;9.883265;-0.2873042
11:59:40:710;11:59:40:668;-0.1340753;9.883265;-0.2873042
11:59:40:718;11:59:40:668;-0.1340753;9.883265;-0.2873042
11:59:40:726;11:59:40:668;-0.1340753;9.883265;-0.2873042
11:59:40:734;11:59:40:668;-0.1340753;9.883265;-0.2873042
11:59:40:742;11:59:40:668;-0.1340753;9.883265;-0.2873042
11:59:40:750;11:59:40:668;-0.1340753;9.883265;-0.2873042
11:59:40:757;11:59:40:668;-0.1340753;9.883265;-0.2873042
11:59:40:765;11:59:40:668;-0.1340753;9.883265;-0.2873042
11:59:40:773;11:59:40:668;-0.1340753;9.883265;-0.2873042
11:59:40:781;11:59:40:668;-0.1340753;9.883265;-0.2873042
11:59:40:789;11:59:40:668;-0.1340753;9.883265;-0.2873042
11:59:40:796;11:59:40:668;-0.1340753;9.883265;-0.2873042
11:59:40:804;11:59:40:801;-0.6512229;10.553641;0.2873042
11:59:40:812;11:59:40:801;-0.6512229;10.553641;0.2873042
11:59:40:820;11:59:40:801;-0.6512229;10.553641;0.2873042
11:59:40:828;11:59:40:801;-0.6512229;10.553641;0.2873042
11:59:40:835;11:59:40:801;-0.6512229;10.553641;0.2873042
11:59:40:843;11:59:40:801;-0.6512229;10.553641;0.2873042
11:59:40:851;11:59:40:801;-0.6512229;10.553641;0.2873042
11:59:40:859;11:59:40:801;-0.6512229;10.553641;0.2873042
11:59:40:867;11:59:40:801;-0.6512229;10.553641;0.2873042
11:59:40:875;11:59:40:801;-0.6512229;10.553641;0.2873042
11:59:40:882;11:59:40:801;-0.6512229;10.553641;0.2873042
11:59:40:890;11:59:40:801;-0.6512229;10.553641;0.2873042
11:59:40:898;11:59:40:801;-0.6512229;10.553641;0.2873042
11:59:40:906;11:59:40:801;-0.6512229;10.553641;0.2873042
11:59:40:914;11:59:40:908;0.038307227;10.381259;-0.019153614
11:59:40:921;11:59:40:908;0.038307227;10.381259;-0.019153614
11:59:40:929;11:59:40:908;0.038307227;10.381259;-0.019153614
11:59:40:937;11:59:40:908;0.038307227;10.381259;-0.019153614
11:59:40:945;11:59:40:908;0.038307227;10.381259;-0.019153614
11:59:40:953;11:59:40:908;0.038307227;10.381259;-0.019153614
11:59:40:960;11:59:40:908;0.038307227;10.381259;-0.019153614
11:59:40:968;11:59:40:908;0.038307227;10.381259;-0.019153614
11:59:40:976;11:59:40:908;0.038307227;10.381259;-0.019153614
11:59:40:984;11:59:40:908;0.038307227;10.381259;-0.019153614
11:59:40:992;11:59:40:908;0.038307227;10.381259;-0.019153614
11:59:41:000;11:59:40:908;0.038307227;10.381259;-0.019153614
11:59:41:007;11:59:40:908;0.038307227;10.381259;-0.019153614
11:59:41:015;11:59:40:908;0.038307227;10.381259;-0.019153614
11:59:41:023;11:59:40:908;0.038307227;10.381259;-0.019153614
11:59:41:031;11:59:41:027;-0.9576807;9.998186;0.93852705
11:59:41:039;11:59:41:027;-0.9576807;9.998186;0.93852705
11:59:41:046;11:59:41:027;-0.9576807;9.998186;0.93852705
11:59:41:054;11:59:41:027;-0.9576807;9.998186;0.93852705
11:59:41:062;11:59:41:027;-0.9576807;9.998186;0.93852705
11:59:41:070;11:59:41:027;-0.9576807;9.998186;0.93852705
11:59:41:078;11:59:41:027;-0.9576807;9.998186;0.93852705
11:59:41:085;11:59:41:027;-0.9576807;9.998186;0.93852705
11:59:41:093;11:59:41:027;-0.9576807;9.998186;0.93852705
11:59:41:101;11:59:41:027;-0.9576807;9.998186;0.93852705
11:59:41:109;11:59:41:027;-0.9576807;9.998186;0.93852705
11:59:41:117;11:59:41:027;-0.9576807;9.998186;0.93852705
11:59:41:125;11:59:41:027;-0.9576807;9.998186;0.93852705
11:59:41:132;11:59:41:130;-1.4939818;11.434708;0.51714754
11:59:41:140;11:59:41:130;-1.4939818;11.434708;0.51714754
11:59:41:148;11:59:41:130;-1.4939818;11.434708;0.51714754
11:59:41:156;11:59:41:130;-1.4939818;11.434708;0.51714754
11:59:41:164;11:59:41:130;-1.4939818;11.434708;0.51714754
11:59:41:171;11:59:41:130;-1.4939818;11.434708;0.51714754
11:59:41:179;11:59:41:130;-1.4939818;11.434708;0.51714754
11:59:41:187;11:59:41:130;-1.4939818;11.434708;0.51714754
11:59:41:195;11:59:41:130;-1.4939818;11.434708;0.51714754
11:59:41:203;11:59:41:130;-1.4939818;11.434708;0.51714754
11:59:41:210;11:59:41:130;-1.4939818;11.434708;0.51714754
11:59:41:218;11:59:41:130;-1.4939818;11.434708;0.51714754
11:59:41:226;11:59:41:130;-1.4939818;11.434708;0.51714754
11:59:41:234;11:59:41:233;-0.51714754;10.304645;0.4405331
11:59:41:242;11:59:41:233;-0.51714754;10.304645;0.4405331
11:59:41:250;11:59:41:233;-0.51714754;10.304645;0.4405331
11:59:41:257;11:59:41:233;-0.51714754;10.304645;0.4405331
11:59:41:265;11:59:41:233;-0.51714754;10.304645;0.4405331
11:59:41:273;11:59:41:233;-0.51714754;10.304645;0.4405331
11:59:41:281;11:59:41:233;-0.51714754;10.304645;0.4405331
11:59:41:289;11:59:41:233;-0.51714754;10.304645;0.4405331
11:59:41:296;11:59:41:233;-0.51714754;10.304645;0.4405331
11:59:41:304;11:59:41:233;-0.51714754;10.304645;0.4405331
11:59:41:312;11:59:41:233;-0.51714754;10.304645;0.4405331
11:59:41:320;11:59:41:233;-0.51714754;10.304645;0.4405331
11:59:41:328;11:59:41:233;-0.51714754;10.304645;0.4405331
11:59:41:335;11:59:41:233;-0.51714754;10.304645;0.4405331
11:59:41:343;11:59:41:233;-0.51714754;10.304645;0.4405331
11:59:41:351;11:59:41:233;-0.51714754;10.304645;0.4405331
11:59:41:359;11:59:41:233;-0.51714754;10.304645;0.4405331
11:59:41:367;11:59:41:233;-0.51714754;10.304645;0.4405331
11:59:41:375;11:59:41:233;-0.51714754;10.304645;0.4405331
11:59:41:382;11:59:41:376;0.076614454;10.553641;0.61291564
11:59:41:390;11:59:41:376;0.076614454;10.553641;0.61291564
11:59:41:398;11:59:41:376;0.076614454;10.553641;0.61291564
11:59:41:406;11:59:41:376;0.076614454;10.553641;0.61291564
11:59:41:414;11:59:41:376;0.076614454;10.553641;0.61291564
11:59:41:421;11:59:41:376;0.076614454;10.553641;0.61291564
11:59:41:429;11:59:41:376;0.076614454;10.553641;0.61291564
11:59:41:437;11:59:41:376;0.076614454;10.553641;0.61291564
11:59:41:445;11:59:41:376;0.076614454;10.553641;0.61291564
11:59:41:453;11:59:41:376;0.076614454;10.553641;0.61291564
11:59:41:460;11:59:41:376;0.076614454;10.553641;0.61291564
11:59:41:468;11:59:41:376;0.076614454;10.553641;0.61291564
11:59:41:476;11:59:41:376;0.076614454;10.553641;0.61291564
11:59:41:484;11:59:41:376;0.076614454;10.553641;0.61291564
11:59:41:492;11:59:41:490;0.51714754;7.1251445;1.0534488
11:59:41:500;11:59:41:490;0.51714754;7.1251445;1.0534488
11:59:41:507;11:59:41:490;0.51714754;7.1251445;1.0534488
11:59:41:515;11:59:41:490;0.51714754;7.1251445;1.0534488
11:59:41:523;11:59:41:490;0.51714754;7.1251445;1.0534488
11:59:41:531;11:59:41:490;0.51714754;7.1251445;1.0534488
11:59:41:539;11:59:41:490;0.51714754;7.1251445;1.0534488
11:59:41:546;11:59:41:490;0.51714754;7.1251445;1.0534488
11:59:41:554;11:59:41:490;0.51714754;7.1251445;1.0534488
11:59:41:562;11:59:41:490;0.51714754;7.1251445;1.0534488
11:59:41:570;11:59:41:490;0.51714754;7.1251445;1.0534488
11:59:41:578;11:59:41:490;0.51714754;7.1251445;1.0534488
11:59:41:585;11:59:41:490;0.51714754;7.1251445;1.0534488
11:59:41:593;11:59:41:490;0.51714754;7.1251445;1.0534488
11:59:41:601;11:59:41:599;0.2873042;9.787497;0.38307226
11:59:41:609;11:59:41:599;0.2873042;9.787497;0.38307226
11:59:41:617;11:59:41:599;0.2873042;9.787497;0.38307226
11:59:41:625;11:59:41:599;0.2873042;9.787497;0.38307226
11:59:41:632;11:59:41:599;0.2873042;9.787497;0.38307226
11:59:41:640;11:59:41:599;0.2873042;9.787497;0.38307226
11:59:41:648;11:59:41:599;0.2873042;9.787497;0.38307226
11:59:41:656;11:59:41:599;0.2873042;9.787497;0.38307226
11:59:41:664;11:59:41:599;0.2873042;9.787497;0.38307226
11:59:41:671;11:59:41:599;0.2873042;9.787497;0.38307226
11:59:41:679;11:59:41:599;0.2873042;9.787497;0.38307226
11:59:41:687;11:59:41:599;0.2873042;9.787497;0.38307226
11:59:41:695;11:59:41:599;0.2873042;9.787497;0.38307226
11:59:41:703;11:59:41:599;0.2873042;9.787497;0.38307226
11:59:41:710;11:59:41:708;0.6512229;8.714894;1.0726024
11:59:41:718;11:59:41:708;0.6512229;8.714894;1.0726024
11:59:41:726;11:59:41:708;0.6512229;8.714894;1.0726024
11:59:41:734;11:59:41:708;0.6512229;8.714894;1.0726024
11:59:41:742;11:59:41:708;0.6512229;8.714894;1.0726024
11:59:41:750;11:59:41:708;0.6512229;8.714894;1.0726024
11:59:41:757;11:59:41:708;0.6512229;8.714894;1.0726024
11:59:41:765;11:59:41:708;0.6512229;8.714894;1.0726024
11:59:41:773;11:59:41:708;0.6512229;8.714894;1.0726024
11:59:41:781;11:59:41:708;0.6512229;8.714894;1.0726024
11:59:41:789;11:59:41:708;0.6512229;8.714894;1.0726024
11:59:41:796;11:59:41:708;0.6512229;8.714894;1.0726024
11:59:41:804;11:59:41:708;0.6512229;8.714894;1.0726024
11:59:41:812;11:59:41:708;0.6512229;8.714894;1.0726024
11:59:41:820;11:59:41:708;0.6512229;8.714894;1.0726024
11:59:41:828;11:59:41:708;0.6512229;8.714894;1.0726024
11:59:41:835;11:59:41:834;-1.2258313;10.036493;0.9768343
11:59:41:843;11:59:41:834;-1.2258313;10.036493;0.9768343
11:59:41:851;11:59:41:834;-1.2258313;10.036493;0.9768343
11:59:41:859;11:59:41:834;-1.2258313;10.036493;0.9768343
11:59:41:867;11:59:41:834;-1.2258313;10.036493;0.9768343
11:59:41:875;11:59:41:834;-1.2258313;10.036493;0.9768343
11:59:41:882;11:59:41:834;-1.2258313;10.036493;0.9768343
11:59:41:890;11:59:41:834;-1.2258313;10.036493;0.9768343
11:59:41:898;11:59:41:834;-1.2258313;10.036493;0.9768343
11:59:41:906;11:59:41:834;-1.2258313;10.036493;0.9768343
11:59:41:914;11:59:41:834;-1.2258313;10.036493;0.9768343
11:59:41:921;11:59:41:834;-1.2258313;10.036493;0.9768343
11:59:41:929;11:59:41:834;-1.2258313;10.036493;0.9768343
11:59:41:937;11:59:41:834;-1.2258313;10.036493;0.9768343
11:59:41:945;11:59:41:945;-0.22984336;10.611102;0.80445176
11:59:41:953;11:59:41:945;-0.22984336;10.611102;0.80445176
11:59:41:960;11:59:41:945;-0.22984336;10.611102;0.80445176
11:59:41:968;11:59:41:945;-0.22984336;10.611102;0.80445176
11:59:41:976;11:59:41:945;-0.22984336;10.611102;0.80445176
11:59:41:984;11:59:41:945;-0.22984336;10.611102;0.80445176
11:59:41:992;11:59:41:945;-0.22984336;10.611102;0.80445176
11:59:42:000;11:59:41:945;-0.22984336;10.611102;0.80445176
11:59:42:007;11:59:41:945;-0.22984336;10.611102;0.80445176
11:59:42:015;11:59:41:945;-0.22984336;10.611102;0.80445176
11:59:42:023;11:59:41:945;-0.22984336;10.611102;0.80445176
11:59:42:031;11:59:41:945;-0.22984336;10.611102;0.80445176
11:59:42:039;11:59:41:945;-0.22984336;10.611102;0.80445176
11:59:42:046;11:59:41:945;-0.22984336;10.611102;0.80445176
11:59:42:054;11:59:41:945;-0.22984336;10.611102;0.80445176
11:59:42:062;11:59:41:945;-0.22984336;10.611102;0.80445176
11:59:42:070;11:59:42:063;-0.32561144;10.668563;0.019153614
11:59:42:078;11:59:42:063;-0.32561144;10.668563;0.019153614
11:59:42:085;11:59:42:063;-0.32561144;10.668563;0.019153614
11:59:42:093;11:59:42:063;-0.32561144;10.668563;0.019153614
11:59:42:101;11:59:42:063;-0.32561144;10.668563;0.019153614
11:59:42:109;11:59:42:063;-0.32561144;10.668563;0.019153614
11:59:42:117;11:59:42:063;-0.32561144;10.668563;0.019153614
11:59:42:125;11:59:42:063;-0.32561144;10.668563;0.019153614
11:59:42:132;11:59:42:063;-0.32561144;10.668563;0.019153614
11:59:42:140;11:59:42:063;-0.32561144;10.668563;0.019153614
11:59:42:148;11:59:42:063;-0.32561144;10.668563;0.019153614
11:59:42:156;11:59:42:063;-0.32561144;10.668563;0.019153614
11:59:42:164;11:59:42:063;-0.32561144;10.668563;0.019153614
11:59:42:171;11:59:42:063;-0.32561144;10.668563;0.019153614
11:59:42:179;11:59:42:176;-1.283292;11.530476;-0.05746084
11:59:42:187;11:59:42:176;-1.283292;11.530476;-0.05746084
11:59:42:195;11:59:42:176;-1.283292;11.530476;-0.05746084
11:59:42:203;11:59:42:176;-1.283292;11.530476;-0.05746084
11:59:42:210;11:59:42:176;-1.283292;11.530476;-0.05746084
11:59:42:218;11:59:42:176;-1.283292;11.530476;-0.05746084
11:59:42:226;11:59:42:176;-1.283292;11.530476;-0.05746084
11:59:42:234;11:59:42:176;-1.283292;11.530476;-0.05746084
11:59:42:242;11:59:42:176;-1.283292;11.530476;-0.05746084
11:59:42:250;11:59:42:176;-1.283292;11.530476;-0.05746084
11:59:42:257;11:59:42:176;-1.283292;11.530476;-0.05746084
11:59:42:265;11:59:42:176;-1.283292;11.530476;-0.05746084
11:59:42:273;11:59:42:176;-1.283292;11.530476;-0.05746084
11:59:42:281;11:59:42:176;-1.283292;11.530476;-0.05746084
11:59:42:289;11:59:42:176;-1.283292;11.530476;-0.05746084
11:59:42:296;11:59:42:290;-0.7278373;10.01734;-0.11492168
11:59:42:304;11:59:42:290;-0.7278373;10.01734;-0.11492168
11:59:42:312;11:59:42:290;-0.7278373;10.01734;-0.11492168
11:59:42:320;11:59:42:290;-0.7278373;10.01734;-0.11492168
11:59:42:328;11:59:42:290;-0.7278373;10.01734;-0.11492168
11:59:42:335;11:59:42:290;-0.7278373;10.01734;-0.11492168
11:59:42:343;11:59:42:290;-0.7278373;10.01734;-0.11492168
11:59:42:351;11:59:42:290;-0.7278373;10.01734;-0.11492168
11:59:42:359;11:59:42:290;-0.7278373;10.01734;-0.11492168
11:59:42:367;11:59:42:290;-0.7278373;10.01734;-0.11492168
11:59:42:375;11:59:42:290;-0.7278373;10.01734;-0.11492168
11:59:42:382;11:59:42:290;-0.7278373;10.01734;-0.11492168
11:59:42:390;11:59:42:290;-0.7278373;10.01734;-0.11492168
11:59:42:398;11:59:42:290;-0.7278373;10.01734;-0.11492168
11:59:42:406;11:59:42:290;-0.7278373;10.01734;-0.11492168
11:59:42:414;11:59:42:408;-0.7469909;11.147403;-0.05746084
11:59:42:421;11:59:42:408;-0.7469909;11.147403;-0.05746084
11:59:42:429;11:59:42:408;-0.7469909;11.147403;-0.05746084
11:59:42:437;11:59:42:408;-0.7469909;11.147403;-0.05746084
11:59:42:445;11:59:42:408;-0.7469909;11.147403;-0.05746084
11:59:42:453;11:59:42:408;-0.7469909;11.147403;-0.05746084
11:59:42:460;11:59:42:408;-0.7469909;11.147403;-0.05746084
11:59:42:468;11:59:42:408;-0.7469909;11.147403;-0.05746084
11:59:42:476;11:59:42:408;-0.7469909;11.147403;-0.05746084
11:59:42:484;11:59:42:408;-0.7469909;11.147403;-0.05746084
11:59:42:492;11:59:42:408;-0.7469909;11.147403;-0.05746084
11:59:42:500;11:59:42:408;-0.7469909;11.147403;-0.05746084
11:59:42:507;11:59:42:408;-0.7469909;11.147403;-0.05746084
11:59:42:515;11:59:42:512;-0.34476504;10.304645;0.59376204
11:59:42:523;11:59:42:512;-0.34476504;10.304645;0.59376204
11:59:42:531;11:59:42:512;-0.34476504;10.304645;0.59376204
11:59:42:539;11:59:42:512;-0.34476504;10.304645;0.59376204
11:59:42:546;11:59:42:512;-0.34476504;10.304645;0.59376204
11:59:42:554;11:59:42:512;-0.34476504;10.304645;0.59376204
11:59:42:562;11:59:42:512;-0.34476504;10.304645;0.59376204
11:59:42:570;11:59:42:512;-0.34476504;10.304645;0.59376204
11:59:42:578;11:59:42:512;-0.34476504;10.304645;0.59376204
11:59:42:585;11:59:42:512;-0.34476504;10.304645;0.59376204
11:59:42:593;11:59:42:512;-0.34476504;10.304645;0.59376204
11:59:42:601;11:59:42:512;-0.34476504;10.304645;0.59376204
11:59:42:609;11:59:42:512;-0.34476504;10.304645;0.59376204
11:59:42:617;11:59:42:512;-0.34476504;10.304645;0.59376204
11:59:42:625;11:59:42:512;-0.34476504;10.304645;0.59376204
11:59:42:632;11:59:42:631;-0.6703765;8.389283;0.5554548
11:59:42:640;11:59:42:631;-0.6703765;8.389283;0.5554548
11:59:42:648;11:59:42:631;-0.6703765;8.389283;0.5554548
11:59:42:656;11:59:42:631;-0.6703765;8.389283;0.5554548
11:59:42:664;11:59:42:631;-0.6703765;8.389283;0.5554548
11:59:42:671;11:59:42:631;-0.6703765;8.389283;0.5554548
11:59:42:679;11:59:42:631;-0.6703765;8.389283;0.5554548
11:59:42:687;11:59:42:631;-0.6703765;8.389283;0.5554548
11:59:42:695;11:59:42:631;-0.6703765;8.389283;0.5554548
11:59:42:703;11:59:42:631;-0.6703765;8.389283;0.5554548
11:59:42:710;11:59:42:631;-0.6703765;8.389283;0.5554548
11:59:42:718;11:59:42:631;-0.6703765;8.389283;0.5554548
11:59:42:726;11:59:42:631;-0.6703765;8.389283;0.5554548
11:59:42:734;11:59:42:631;-0.6703765;8.389283;0.5554548
11:59:42:742;11:59:42:631;-0.6703765;8.389283;0.5554548
11:59:42:750;11:59:42:747;-1.091756;11.894394;-0.40222588
11:59:42:757;11:59:42:747;-1.091756;11.894394;-0.40222588
11:59:42:765;11:59:42:747;-1.091756;11.894394;-0.40222588
11:59:42:773;11:59:42:747;-1.091756;11.894394;-0.40222588
11:59:42:781;11:59:42:747;-1.091756;11.894394;-0.40222588
11:59:42:789;11:59:42:747;-1.091756;11.894394;-0.40222588
11:59:42:796;11:59:42:747;-1.091756;11.894394;-0.40222588
11:59:42:804;11:59:42:747;-1.091756;11.894394;-0.40222588
11:59:42:812;11:59:42:747;-1.091756;11.894394;-0.40222588
11:59:42:820;11:59:42:747;-1.091756;11.894394;-0.40222588
11:59:42:828;11:59:42:747;-1.091756;11.894394;-0.40222588
11:59:42:835;11:59:42:747;-1.091756;11.894394;-0.40222588
11:59:42:843;11:59:42:747;-1.091756;11.894394;-0.40222588
11:59:42:851;11:59:42:849;-1.3024458;11.60709;0.49799395
11:59:42:859;11:59:42:849;-1.3024458;11.60709;0.49799395
11:59:42:867;11:59:42:849;-1.3024458;11.60709;0.49799395
11:59:42:875;11:59:42:849;-1.3024458;11.60709;0.49799395
11:59:42:882;11:59:42:849;-1.3024458;11.60709;0.49799395
11:59:42:890;11:59:42:849;-1.3024458;11.60709;0.49799395
11:59:42:898;11:59:42:849;-1.3024458;11.60709;0.49799395
11:59:42:906;11:59:42:849;-1.3024458;11.60709;0.49799395
11:59:42:914;11:59:42:849;-1.3024458;11.60709;0.49799395
11:59:42:921;11:59:42:849;-1.3024458;11.60709;0.49799395
11:59:42:929;11:59:42:849;-1.3024458;11.60709;0.49799395
11:59:42:937;11:59:42:849;-1.3024458;11.60709;0.49799395
11:59:42:945;11:59:42:849;-1.3024458;11.60709;0.49799395
11:59:42:953;11:59:42:849;-1.3024458;11.60709;0.49799395
11:59:42:960;11:59:42:849;-1.3024458;11.60709;0.49799395
11:59:42:968;11:59:42:967;-0.21068975;8.944737;1.1875241
11:59:42:976;11:59:42:967;-0.21068975;8.944737;1.1875241
11:59:42:984;11:59:42:967;-0.21068975;8.944737;1.1875241
11:59:42:992;11:59:42:967;-0.21068975;8.944737;1.1875241
11:59:43:000;11:59:42:967;-0.21068975;8.944737;1.1875241
11:59:43:007;11:59:42:967;-0.21068975;8.944737;1.1875241
11:59:43:015;11:59:42:967;-0.21068975;8.944737;1.1875241
11:59:43:023;11:59:42:967;-0.21068975;8.944737;1.1875241
11:59:43:031;11:59:42:967;-0.21068975;8.944737;1.1875241
11:59:43:039;11:59:42:967;-0.21068975;8.944737;1.1875241
11:59:43:046;11:59:42:967;-0.21068975;8.944737;1.1875241
11:59:43:054;11:59:42:967;-0.21068975;8.944737;1.1875241
11:59:43:062;11:59:42:967;-0.21068975;8.944737;1.1875241
11:59:43:070;11:59:43:068;-0.9768343;11.3964;0.21068975
11:59:43:078;11:59:43:068;-0.9768343;11.3964;0.21068975
11:59:43:085;11:59:43:068;-0.9768343;11.3964;0.21068975
11:59:43:093;11:59:43:068;-0.9768343;11.3964;0.21068975
11:59:43:101;11:59:43:068;-0.9768343;11.3964;0.21068975
11:59:43:109;11:59:43:068;-0.9768343;11.3964;0.21068975
11:59:43:117;11:59:43:068;-0.9768343;11.3964;0.21068975
11:59:43:125;11:59:43:068;-0.9768343;11.3964;0.21068975
11:59:43:132;11:59:43:068;-0.9768343;11.3964;0.21068975
11:59:43:140;11:59:43:068;-0.9768343;11.3964;0.21068975
11:59:43:148;11:59:43:068;-0.9768343;11.3964;0.21068975
11:59:43:156;11:59:43:068;-0.9768343;11.3964;0.21068975
11:59:43:164;11:59:43:068;-0.9768343;11.3964;0.21068975
11:59:43:171;11:59:43:169;0.32561144;8.714894;-0.4405331
11:59:43:179;11:59:43:169;0.32561144;8.714894;-0.4405331
11:59:43:187;11:59:43:169;0.32561144;8.714894;-0.4405331
11:59:43:195;11:59:43:169;0.32561144;8.714894;-0.4405331
11:59:43:203;11:59:43:169;0.32561144;8.714894;-0.4405331
11:59:43:210;11:59:43:169;0.32561144;8.714894;-0.4405331
11:59:43:218;11:59:43:169;0.32561144;8.714894;-0.4405331
11:59:43:226;11:59:43:169;0.32561144;8.714894;-0.4405331
11:59:43:234;11:59:43:169;0.32561144;8.714894;-0.4405331
11:59:43:242;11:59:43:169;0.32561144;8.714894;-0.4405331
11:59:43:250;11:59:43:169;0.32561144;8.714894;-0.4405331
11:59:43:257;11:59:43:169;0.32561144;8.714894;-0.4405331
11:59:43:265;11:59:43:169;0.32561144;8.714894;-0.4405331
11:59:43:273;11:59:43:169;0.32561144;8.714894;-0.4405331
11:59:43:281;11:59:43:169;0.32561144;8.714894;-0.4405331
11:59:43:289;11:59:43:286;-0.7278373;11.18571;0.9576807
11:59:43:296;11:59:43:286;-0.7278373;11.18571;0.9576807
11:59:43:304;11:59:43:286;-0.7278373;11.18571;0.9576807
11:59:43:312;11:59:43:286;-0.7278373;11.18571;0.9576807
11:59:43:320;11:59:43:286;-0.7278373;11.18571;0.9576807
11:59:43:328;11:59:43:286;-0.7278373;11.18571;0.9576807
11:59:43:335;11:59:43:286;-0.7278373;11.18571;0.9576807
11:59:43:343;11:59:43:286;-0.7278373;11.18571;0.9576807
11:59:43:351;11:59:43:286;-0.7278373;11.18571;0.9576807
11:59:43:359;11:59:43:286;-0.7278373;11.18571;0.9576807
11:59:43:367;11:59:43:286;-0.7278373;11.18571;0.9576807
11:59:43:375;11:59:43:286;-0.7278373;11.18571;0.9576807
11:59:43:382;11:59:43:286;-0.7278373;11.18571;0.9576807
11:59:43:390;11:59:43:286;-0.7278373;11.18571;0.9576807
11:59:43:398;11:59:43:286;-0.7278373;11.18571;0.9576807
11:59:43:406;11:59:43:286;-0.7278373;11.18571;0.9576807
11:59:43:414;11:59:43:286;-0.7278373;11.18571;0.9576807
11:59:43:421;11:59:43:286;-0.7278373;11.18571;0.9576807
11:59:43:429;11:59:43:429;-0.47884035;10.055647;0.15322891
11:59:43:437;11:59:43:429;-0.47884035;10.055647;0.15322891
11:59:43:445;11:59:43:429;-0.47884035;10.055647;0.15322891
11:59:43:453;11:59:43:429;-0.47884035;10.055647;0.15322891
11:59:43:460;11:59:43:429;-0.47884035;10.055647;0.15322891
11:59:43:468;11:59:43:429;-0.47884035;10.055647;0.15322891
11:59:43:476;11:59:43:429;-0.47884035;10.055647;0.15322891
11:59:43:484;11:59:43:429;-0.47884035;10.055647;0.15322891
11:59:43:492;11:59:43:429;-0.47884035;10.055647;0.15322891
11:59:43:500;11:59:43:429;-0.47884035;10.055647;0.15322891
11:59:43:507;11:59:43:429;-0.47884035;10.055647;0.15322891
11:59:43:515;11:59:43:429;-0.47884035;10.055647;0.15322891
11:59:43:523;11:59:43:429;-0.47884035;10.055647;0.15322891
11:59:43:531;11:59:43:429;-0.47884035;10.055647;0.15322891
11:59:43:539;11:59:43:429;-0.47884035;10.055647;0.15322891
11:59:43:546;11:59:43:545;-0.6512229;10.534488;0.2681506
11:59:43:554;11:59:43:545;-0.6512229;10.534488;0.2681506
11:59:43:562;11:59:43:545;-0.6512229;10.534488;0.2681506
11:59:43:570;11:59:43:545;-0.6512229;10.534488;0.2681506
11:59:43:578;11:59:43:545;-0.6512229;10.534488;0.2681506
11:59:43:585;11:59:43:545;-0.6512229;10.534488;0.2681506
11:59:43:593;11:59:43:545;-0.6512229;10.534488;0.2681506
11:59:43:601;11:59:43:545;-0.6512229;10.534488;0.2681506
11:59:43:609;11:59:43:545;-0.6512229;10.534488;0.2681506
11:59:43:617;11:59:43:545;-0.6512229;10.534488;0.2681506
11:59:43:625;11:59:43:545;-0.6512229;10.534488;0.2681506
11:59:43:632;11:59:43:545;-0.6512229;10.534488;0.2681506
11:59:43:640;11:59:43:545;-0.6512229;10.534488;0.2681506
11:59:43:648;11:59:43:648;-0.19153613;10.726024;-0.9576807
11:59:43:656;11:59:43:648;-0.19153613;10.726024;-0.9576807
11:59:43:664;11:59:43:648;-0.19153613;10.726024;-0.9576807
11:59:43:671;11:59:43:648;-0.19153613;10.726024;-0.9576807
11:59:43:679;11:59:43:648;-0.19153613;10.726024;-0.9576807
11:59:43:687;11:59:43:648;-0.19153613;10.726024;-0.9576807
11:59:43:695;11:59:43:648;-0.19153613;10.726024;-0.9576807
11:59:43:703;11:59:43:648;-0.19153613;10.726024;-0.9576807
11:59:43:710;11:59:43:648;-0.19153613;10.726024;-0.9576807
11:59:43:718;11:59:43:648;-0.19153613;10.726024;-0.9576807
11:59:43:726;11:59:43:648;-0.19153613;10.726024;-0.9576807
11:59:43:734;11:59:43:648;-0.19153613;10.726024;-0.9576807
11:59:43:742;11:59:43:648;-0.19153613;10.726024;-0.9576807
11:59:43:750;11:59:43:648;-0.19153613;10.726024;-0.9576807
11:59:43:757;11:59:43:648;-0.19153613;10.726024;-0.9576807
11:59:43:765;11:59:43:648;-0.19153613;10.726024;-0.9576807
11:59:43:773;11:59:43:648;-0.19153613;10.726024;-0.9576807
11:59:43:781;11:59:43:648;-0.19153613;10.726024;-0.9576807
11:59:43:789;11:59:43:783;-0.7278373;10.170568;1.2066777
11:59:43:796;11:59:43:783;-0.7278373;10.170568;1.2066777
11:59:43:804;11:59:43:783;-0.7278373;10.170568;1.2066777
11:59:43:812;11:59:43:783;-0.7278373;10.170568;1.2066777
11:59:43:820;11:59:43:783;-0.7278373;10.170568;1.2066777
11:59:43:828;11:59:43:783;-0.7278373;10.170568;1.2066777
11:59:43:835;11:59:43:783;-0.7278373;10.170568;1.2066777
11:59:43:843;11:59:43:783;-0.7278373;10.170568;1.2066777
11:59:43:851;11:59:43:783;-0.7278373;10.170568;1.2066777
11:59:43:859;11:59:43:783;-0.7278373;10.170568;1.2066777
11:59:43:867;11:59:43:783;-0.7278373;10.170568;1.2066777
11:59:43:875;11:59:43:783;-0.7278373;10.170568;1.2066777
11:59:43:882;11:59:43:783;-0.7278373;10.170568;1.2066777
11:59:43:890;11:59:43:886;-0.8810662;9.11712;1.0151415
11:59:43:898;11:59:43:886;-0.8810662;9.11712;1.0151415
11:59:43:906;11:59:43:886;-0.8810662;9.11712;1.0151415
11:59:43:914;11:59:43:886;-0.8810662;9.11712;1.0151415
11:59:43:921;11:59:43:886;-0.8810662;9.11712;1.0151415
11:59:43:929;11:59:43:886;-0.8810662;9.11712;1.0151415
11:59:43:937;11:59:43:886;-0.8810662;9.11712;1.0151415
11:59:43:945;11:59:43:886;-0.8810662;9.11712;1.0151415
11:59:43:953;11:59:43:886;-0.8810662;9.11712;1.0151415
11:59:43:960;11:59:43:886;-0.8810662;9.11712;1.0151415
11:59:43:968;11:59:43:886;-0.8810662;9.11712;1.0151415
11:59:43:976;11:59:43:886;-0.8810662;9.11712;1.0151415
11:59:43:984;11:59:43:886;-0.8810662;9.11712;1.0151415
11:59:43:992;11:59:43:886;-0.8810662;9.11712;1.0151415
11:59:44:000;11:59:43:886;-0.8810662;9.11712;1.0151415
11:59:44:007;11:59:43:886;-0.8810662;9.11712;1.0151415
11:59:44:015;11:59:43:886;-0.8810662;9.11712;1.0151415
11:59:44:023;11:59:43:886;-0.8810662;9.11712;1.0151415
11:59:44:031;11:59:43:886;-0.8810662;9.11712;1.0151415
11:59:44:039;11:59:44:033;-0.1340753;10.01734;0.7469909
11:59:44:046;11:59:44:033;-0.1340753;10.01734;0.7469909
11:59:44:054;11:59:44:033;-0.1340753;10.01734;0.7469909
11:59:44:062;11:59:44:033;-0.1340753;10.01734;0.7469909
11:59:44:070;11:59:44:033;-0.1340753;10.01734;0.7469909
11:59:44:078;11:59:44:033;-0.1340753;10.01734;0.7469909
11:59:44:085;11:59:44:033;-0.1340753;10.01734;0.7469909
11:59:44:093;11:59:44:033;-0.1340753;10.01734;0.7469909
11:59:44:101;11:59:44:033;-0.1340753;10.01734;0.7469909
11:59:44:109;11:59:44:033;-0.1340753;10.01734;0.7469909
11:59:44:117;11:59:44:033;-0.1340753;10.01734;0.7469909
11:59:44:125;11:59:44:033;-0.1340753;10.01734;0.7469909
11:59:44:132;11:59:44:033;-0.1340753;10.01734;0.7469909
11:59:44:140;11:59:44:033;-0.1340753;10.01734;0.7469909
11:59:44:148;11:59:44:147;-0.095768064;11.18571;0.4213795
11:59:44:156;11:59:44:147;-0.095768064;11.18571;0.4213795
11:59:44:164;11:59:44:147;-0.095768064;11.18571;0.4213795
11:59:44:171;11:59:44:147;-0.095768064;11.18571;0.4213795
11:59:44:179;11:59:44:147;-0.095768064;11.18571;0.4213795
11:59:44:187;11:59:44:147;-0.095768064;11.18571;0.4213795
11:59:44:195;11:59:44:147;-0.095768064;11.18571;0.4213795
11:59:44:203;11:59:44:147;-0.095768064;11.18571;0.4213795
11:59:44:210;11:59:44:147;-0.095768064;11.18571;0.4213795
11:59:44:218;11:59:44:147;-0.095768064;11.18571;0.4213795
11:59:44:226;11:59:44:147;-0.095768064;11.18571;0.4213795
11:59:44:234;11:59:44:147;-0.095768064;11.18571;0.4213795
11:59:44:242;11:59:44:147;-0.095768064;11.18571;0.4213795
11:59:44:250;11:59:44:147;-0.095768064;11.18571;0.4213795
11:59:44:257;11:59:44:147;-0.095768064;11.18571;0.4213795
11:59:44:265;11:59:44:147;-0.095768064;11.18571;0.4213795
11:59:44:273;11:59:44:268;0.038307227;10.304645;0.11492168
11:59:44:281;11:59:44:268;0.038307227;10.304645;0.11492168
11:59:44:289;11:59:44:268;0.038307227;10.304645;0.11492168
11:59:44:296;11:59:44:268;0.038307227;10.304645;0.11492168
11:59:44:304;11:59:44:268;0.038307227;10.304645;0.11492168
11:59:44:312;11:59:44:268;0.038307227;10.304645;0.11492168
11:59:44:320;11:59:44:268;0.038307227;10.304645;0.11492168
11:59:44:328;11:59:44:268;0.038307227;10.304645;0.11492168
11:59:44:335;11:59:44:268;0.038307227;10.304645;0.11492168
11:59:44:343;11:59:44:268;0.038307227;10.304645;0.11492168
11:59:44:351;11:59:44:268;0.038307227;10.304645;0.11492168
11:59:44:359;11:59:44:268;0.038307227;10.304645;0.11492168
11:59:44:367;11:59:44:268;0.038307227;10.304645;0.11492168
11:59:44:375;11:59:44:268;0.038307227;10.304645;0.11492168
11:59:44:382;11:59:44:268;0.038307227;10.304645;0.11492168
11:59:44:390;11:59:44:384;-0.5746084;8.848969;1.2258313
11:59:44:398;11:59:44:384;-0.5746084;8.848969;1.2258313
11:59:44:406;11:59:44:384;-0.5746084;8.848969;1.2258313
11:59:44:414;11:59:44:384;-0.5746084;8.848969;1.2258313
11:59:44:421;11:59:44:384;-0.5746084;8.848969;1.2258313
11:59:44:429;11:59:44:384;-0.5746084;8.848969;1.2258313
11:59:44:437;11:59:44:384;-0.5746084;8.848969;1.2258313
11:59:44:445;11:59:44:384;-0.5746084;8.848969;1.2258313
11:59:44:453;11:59:44:384;-0.5746084;8.848969;1.2258313
11:59:44:460;11:59:44:384;-0.5746084;8.848969;1.2258313
11:59:44:468;11:59:44:384;-0.5746084;8.848969;1.2258313
11:59:44:476;11:59:44:384;-0.5746084;8.848969;1.2258313
11:59:44:484;11:59:44:384;-0.5746084;8.848969;1.2258313
11:59:44:492;11:59:44:384;-0.5746084;8.848969;1.2258313
11:59:44:500;11:59:44:384;-0.5746084;8.848969;1.2258313
11:59:44:507;11:59:44:384;-0.5746084;8.848969;1.2258313
11:59:44:515;11:59:44:384;-0.5746084;8.848969;1.2258313
11:59:44:523;11:59:44:517;-0.019153614;9.270349;0.8810662
11:59:44:531;11:59:44:517;-0.019153614;9.270349;0.8810662
11:59:44:539;11:59:44:517;-0.019153614;9.270349;0.8810662
11:59:44:546;11:59:44:517;-0.019153614;9.270349;0.8810662
11:59:44:554;11:59:44:517;-0.019153614;9.270349;0.8810662
11:59:44:562;11:59:44:517;-0.019153614;9.270349;0.8810662
11:59:44:570;11:59:44:517;-0.019153614;9.270349;0.8810662
11:59:44:578;11:59:44:517;-0.019153614;9.270349;0.8810662
11:59:44:585;11:59:44:517;-0.019153614;9.270349;0.8810662
11:59:44:593;11:59:44:517;-0.019153614;9.270349;0.8810662
11:59:44:601;11:59:44:517;-0.019153614;9.270349;0.8810662
11:59:44:609;11:59:44:517;-0.019153614;9.270349;0.8810662
11:59:44:617;11:59:44:517;-0.019153614;9.270349;0.8810662
11:59:44:625;11:59:44:624;-0.4405331;10.151415;0.82360536
11:59:44:632;11:59:44:624;-0.4405331;10.151415;0.82360536
11:59:44:640;11:59:44:624;-0.4405331;10.151415;0.82360536
11:59:44:648;11:59:44:624;-0.4405331;10.151415;0.82360536
11:59:44:656;11:59:44:624;-0.4405331;10.151415;0.82360536
11:59:44:664;11:59:44:624;-0.4405331;10.151415;0.82360536
11:59:44:671;11:59:44:624;-0.4405331;10.151415;0.82360536
11:59:44:679;11:59:44:624;-0.4405331;10.151415;0.82360536
11:59:44:687;11:59:44:624;-0.4405331;10.151415;0.82360536
11:59:44:695;11:59:44:624;-0.4405331;10.151415;0.82360536
11:59:44:703;11:59:44:624;-0.4405331;10.151415;0.82360536
11:59:44:710;11:59:44:624;-0.4405331;10.151415;0.82360536
11:59:44:718;11:59:44:624;-0.4405331;10.151415;0.82360536
11:59:44:726;11:59:44:624;-0.4405331;10.151415;0.82360536
11:59:44:734;11:59:44:624;-0.4405331;10.151415;0.82360536
11:59:44:742;11:59:44:624;-0.4405331;10.151415;0.82360536
11:59:44:750;11:59:44:743;-0.38307226;10.860099;0.15322891
11:59:44:757;11:59:44:743;-0.38307226;10.860099;0.15322891
11:59:44:765;11:59:44:743;-0.38307226;10.860099;0.15322891
11:59:44:773;11:59:44:743;-0.38307226;10.860099;0.15322891
11:59:44:781;11:59:44:743;-0.38307226;10.860099;0.15322891
11:59:44:789;11:59:44:743;-0.38307226;10.860099;0.15322891
11:59:44:796;11:59:44:743;-0.38307226;10.860099;0.15322891
11:59:44:804;11:59:44:743;-0.38307226;10.860099;0.15322891
11:59:44:812;11:59:44:743;-0.38307226;10.860099;0.15322891
11:59:44:820;11:59:44:743;-0.38307226;10.860099;0.15322891
11:59:44:828;11:59:44:743;-0.38307226;10.860099;0.15322891
11:59:44:835;11:59:44:743;-0.38307226;10.860099;0.15322891
11:59:44:843;11:59:44:743;-0.38307226;10.860099;0.15322891
11:59:44:851;11:59:44:743;-0.38307226;10.860099;0.15322891
11:59:44:859;11:59:44:858;-0.34476504;9.576807;0.61291564
11:59:44:867;11:59:44:858;-0.34476504;9.576807;0.61291564
11:59:44:875;11:59:44:858;-0.34476504;9.576807;0.61291564
11:59:44:882;11:59:44:858;-0.34476504;9.576807;0.61291564
11:59:44:890;11:59:44:858;-0.34476504;9.576807;0.61291564
11:59:44:898;11:59:44:858;-0.34476504;9.576807;0.61291564
11:59:44:906;11:59:44:858;-0.34476504;9.576807;0.61291564
11:59:44:914;11:59:44:858;-0.34476504;9.576807;0.61291564
11:59:44:921;11:59:44:858;-0.34476504;9.576807;0.61291564
11:59:44:929;11:59:44:858;-0.34476504;9.576807;0.61291564
11:59:44:937;11:59:44:858;-0.34476504;9.576807;0.61291564
11:59:44:945;11:59:44:858;-0.34476504;9.576807;0.61291564
11:59:44:953;11:59:44:858;-0.34476504;9.576807;0.61291564
11:59:44:960;11:59:44:858;-0.34476504;9.576807;0.61291564
11:59:44:968;11:59:44:858;-0.34476504;9.576807;0.61291564
11:59:44:976;11:59:44:858;-0.34476504;9.576807;0.61291564
11:59:44:984;11:59:44:978;-0.93852705;9.040505;1.3599066
11:59:44:992;11:59:44:978;-0.93852705;9.040505;1.3599066
11:59:45:000;11:59:44:978;-0.93852705;9.040505;1.3599066
11:59:45:007;11:59:44:978;-0.93852705;9.040505;1.3599066
11:59:45:015;11:59:44:978;-0.93852705;9.040505;1.3599066
11:59:45:023;11:59:44:978;-0.93852705;9.040505;1.3599066
11:59:45:031;11:59:44:978;-0.93852705;9.040505;1.3599066
11:59:45:039;11:59:44:978;-0.93852705;9.040505;1.3599066
11:59:45:046;11:59:44:978;-0.93852705;9.040505;1.3599066
11:59:45:054;11:59:44:978;-0.93852705;9.040505;1.3599066
11:59:45:062;11:59:44:978;-0.93852705;9.040505;1.3599066
11:59:45:070;11:59:44:978;-0.93852705;9.040505;1.3599066
11:59:45:078;11:59:44:978;-0.93852705;9.040505;1.3599066
11:59:45:085;11:59:45:084;-0.19153613;10.28549;0.842759
11:59:45:093;11:59:45:084;-0.19153613;10.28549;0.842759
11:59:45:101;11:59:45:084;-0.19153613;10.28549;0.842759
11:59:45:109;11:59:45:084;-0.19153613;10.28549;0.842759
11:59:45:117;11:59:45:084;-0.19153613;10.28549;0.842759
11:59:45:125;11:59:45:084;-0.19153613;10.28549;0.842759
11:59:45:132;11:59:45:084;-0.19153613;10.28549;0.842759
11:59:45:140;11:59:45:084;-0.19153613;10.28549;0.842759
11:59:45:148;11:59:45:084;-0.19153613;10.28549;0.842759
11:59:45:156;11:59:45:084;-0.19153613;10.28549;0.842759
11:59:45:164;11:59:45:084;-0.19153613;10.28549;0.842759
11:59:45:171;11:59:45:084;-0.19153613;10.28549;0.842759
11:59:45:179;11:59:45:084;-0.19153613;10.28549;0.842759
11:59:45:187;11:59:45:084;-0.19153613;10.28549;0.842759
11:59:45:195;11:59:45:084;-0.19153613;10.28549;0.842759
11:59:45:203;11:59:45:201;-0.5363012;9.576807;1.7812861
11:59:45:210;11:59:45:201;-0.5363012;9.576807;1.7812861
11:59:45:218;11:59:45:201;-0.5363012;9.576807;1.7812861
11:59:45:226;11:59:45:201;-0.5363012;9.576807;1.7812861
11:59:45:234;11:59:45:201;-0.5363012;9.576807;1.7812861
11:59:45:242;11:59:45:201;-0.5363012;9.576807;1.7812861
11:59:45:250;11:59:45:201;-0.5363012;9.576807;1.7812861
11:59:45:257;11:59:45:201;-0.5363012;9.576807;1.7812861
11:59:45:265;11:59:45:201;-0.5363012;9.576807;1.7812861
11:59:45:273;11:59:45:201;-0.5363012;9.576807;1.7812861
11:59:45:281;11:59:45:201;-0.5363012;9.576807;1.7812861
11:59:45:289;11:59:45:201;-0.5363012;9.576807;1.7812861
11:59:45:296;11:59:45:201;-0.5363012;9.576807;1.7812861
11:59:45:304;11:59:45:201;-0.5363012;9.576807;1.7812861
11:59:45:312;11:59:45:201;-0.5363012;9.576807;1.7812861
11:59:45:320;11:59:45:319;-0.2873042;9.404425;0.5554548
11:59:45:328;11:59:45:319;-0.2873042;9.404425;0.5554548
11:59:45:335;11:59:45:319;-0.2873042;9.404425;0.5554548
11:59:45:343;11:59:45:319;-0.2873042;9.404425;0.5554548
11:59:45:351;11:59:45:319;-0.2873042;9.404425;0.5554548
11:59:45:359;11:59:45:319;-0.2873042;9.404425;0.5554548
11:59:45:367;11:59:45:319;-0.2873042;9.404425;0.5554548
11:59:45:375;11:59:45:319;-0.2873042;9.404425;0.5554548
11:59:45:382;11:59:45:319;-0.2873042;9.404425;0.5554548
11:59:45:390;11:59:45:319;-0.2873042;9.404425;0.5554548
11:59:45:398;11:59:45:319;-0.2873042;9.404425;0.5554548
11:59:45:406;11:59:45:319;-0.2873042;9.404425;0.5554548
11:59:45:414;11:59:45:319;-0.2873042;9.404425;0.5554548
11:59:45:421;11:59:45:319;-0.2873042;9.404425;0.5554548
11:59:45:429;11:59:45:319;-0.2873042;9.404425;0.5554548
11:59:45:437;11:59:45:437;-0.9576807;10.745177;0.19153613
11:59:45:445;11:59:45:437;-0.9576807;10.745177;0.19153613
11:59:45:453;11:59:45:437;-0.9576807;10.745177;0.19153613
11:59:45:460;11:59:45:437;-0.9576807;10.745177;0.19153613
11:59:45:468;11:59:45:437;-0.9576807;10.745177;0.19153613
11:59:45:476;11:59:45:437;-0.9576807;10.745177;0.19153613
11:59:45:484;11:59:45:437;-0.9576807;10.745177;0.19153613
11:59:45:492;11:59:45:437;-0.9576807;10.745177;0.19153613
11:59:45:500;11:59:45:437;-0.9576807;10.745177;0.19153613
11:59:45:507;11:59:45:437;-0.9576807;10.745177;0.19153613
11:59:45:515;11:59:45:437;-0.9576807;10.745177;0.19153613
11:59:45:523;11:59:45:437;-0.9576807;10.745177;0.19153613
11:59:45:531;11:59:45:437;-0.9576807;10.745177;0.19153613
11:59:45:539;11:59:45:437;-0.9576807;10.745177;0.19153613
11:59:45:546;11:59:45:540;-0.7469909;9.32781;1.4556746
11:59:45:554;11:59:45:540;-0.7469909;9.32781;1.4556746
11:59:45:562;11:59:45:540;-0.7469909;9.32781;1.4556746
11:59:45:570;11:59:45:540;-0.7469909;9.32781;1.4556746
11:59:45:578;11:59:45:540;-0.7469909;9.32781;1.4556746
11:59:45:585;11:59:45:540;-0.7469909;9.32781;1.4556746
11:59:45:593;11:59:45:540;-0.7469909;9.32781;1.4556746
11:59:45:601;11:59:45:540;-0.7469909;9.32781;1.4556746
11:59:45:609;11:59:45:540;-0.7469909;9.32781;1.4556746
11:59:45:617;11:59:45:540;-0.7469909;9.32781;1.4556746
11:59:45:625;11:59:45:540;-0.7469909;9.32781;1.4556746
11:59:45:632;11:59:45:540;-0.7469909;9.32781;1.4556746
11:59:45:640;11:59:45:540;-0.7469909;9.32781;1.4556746
11:59:45:648;11:59:45:540;-0.7469909;9.32781;1.4556746
11:59:45:656;11:59:45:654;0.15322891;9.270349;0.34476504
11:59:45:664;11:59:45:654;0.15322891;9.270349;0.34476504
11:59:45:671;11:59:45:654;0.15322891;9.270349;0.34476504
11:59:45:679;11:59:45:654;0.15322891;9.270349;0.34476504
11:59:45:687;11:59:45:654;0.15322891;9.270349;0.34476504
11:59:45:695;11:59:45:654;0.15322891;9.270349;0.34476504
11:59:45:703;11:59:45:654;0.15322891;9.270349;0.34476504
11:59:45:710;11:59:45:654;0.15322891;9.270349;0.34476504
11:59:45:718;11:59:45:654;0.15322891;9.270349;0.34476504
11:59:45:726;11:59:45:654;0.15322891;9.270349;0.34476504
11:59:45:734;11:59:45:654;0.15322891;9.270349;0.34476504
11:59:45:742;11:59:45:654;0.15322891;9.270349;0.34476504
11:59:45:750;11:59:45:654;0.15322891;9.270349;0.34476504
11:59:45:757;11:59:45:654;0.15322891;9.270349;0.34476504
11:59:45:765;11:59:45:654;0.15322891;9.270349;0.34476504
11:59:45:773;11:59:45:772;0.11492168;9.500193;1.1875241
11:59:45:781;11:59:45:772;0.11492168;9.500193;1.1875241
11:59:45:789;11:59:45:772;0.11492168;9.500193;1.1875241
11:59:45:796;11:59:45:772;0.11492168;9.500193;1.1875241
11:59:45:804;11:59:45:772;0.11492168;9.500193;1.1875241
11:59:45:812;11:59:45:772;0.11492168;9.500193;1.1875241
11:59:45:820;11:59:45:772;0.11492168;9.500193;1.1875241
11:59:45:828;11:59:45:772;0.11492168;9.500193;1.1875241
11:59:45:835;11:59:45:772;0.11492168;9.500193;1.1875241
11:59:45:843;11:59:45:772;0.11492168;9.500193;1.1875241
11:59:45:851;11:59:45:772;0.11492168;9.500193;1.1875241
11:59:45:859;11:59:45:772;0.11492168;9.500193;1.1875241
11:59:45:867;11:59:45:772;0.11492168;9.500193;1.1875241
11:59:45:875;11:59:45:772;0.11492168;9.500193;1.1875241
11:59:45:882;11:59:45:772;0.11492168;9.500193;1.1875241
11:59:45:890;11:59:45:890;-0.076614454;10.304645;0.59376204
11:59:45:898;11:59:45:890;-0.076614454;10.304645;0.59376204
11:59:45:906;11:59:45:890;-0.076614454;10.304645;0.59376204
11:59:45:914;11:59:45:890;-0.076614454;10.304645;0.59376204
11:59:45:921;11:59:45:890;-0.076614454;10.304645;0.59376204
11:59:45:929;11:59:45:890;-0.076614454;10.304645;0.59376204
11:59:45:937;11:59:45:890;-0.076614454;10.304645;0.59376204
11:59:45:945;11:59:45:890;-0.076614454;10.304645;0.59376204
11:59:45:953;11:59:45:890;-0.076614454;10.304645;0.59376204
11:59:45:960;11:59:45:890;-0.076614454;10.304645;0.59376204
11:59:45:968;11:59:45:890;-0.076614454;10.304645;0.59376204
11:59:45:976;11:59:45:890;-0.076614454;10.304645;0.59376204
11:59:45:984;11:59:45:890;-0.076614454;10.304645;0.59376204
11:59:45:992;11:59:45:890;-0.076614454;10.304645;0.59376204
11:59:46:000;11:59:45:890;-0.076614454;10.304645;0.59376204
11:59:46:007;11:59:46:007;-0.40222588;11.147403;0.49799395
11:59:46:015;11:59:46:007;-0.40222588;11.147403;0.49799395
11:59:46:023;11:59:46:007;-0.40222588;11.147403;0.49799395
11:59:46:031;11:59:46:007;-0.40222588;11.147403;0.49799395
11:59:46:039;11:59:46:007;-0.40222588;11.147403;0.49799395
11:59:46:046;11:59:46:007;-0.40222588;11.147403;0.49799395
11:59:46:054;11:59:46:007;-0.40222588;11.147403;0.49799395
11:59:46:062;11:59:46:007;-0.40222588;11.147403;0.49799395
11:59:46:070;11:59:46:007;-0.40222588;11.147403;0.49799395
11:59:46:078;11:59:46:007;-0.40222588;11.147403;0.49799395
11:59:46:085;11:59:46:007;-0.40222588;11.147403;0.49799395
11:59:46:093;11:59:46:007;-0.40222588;11.147403;0.49799395
11:59:46:101;11:59:46:007;-0.40222588;11.147403;0.49799395
11:59:46:109;11:59:46:007;-0.40222588;11.147403;0.49799395
11:59:46:117;11:59:46:111;-0.7086837;10.496181;0.7661445
11:59:46:125;11:59:46:111;-0.7086837;10.496181;0.7661445
11:59:46:132;11:59:46:111;-0.7086837;10.496181;0.7661445
11:59:46:140;11:59:46:111;-0.7086837;10.496181;0.7661445
11:59:46:148;11:59:46:111;-0.7086837;10.496181;0.7661445
11:59:46:156;11:59:46:111;-0.7086837;10.496181;0.7661445
11:59:46:164;11:59:46:111;-0.7086837;10.496181;0.7661445
11:59:46:171;11:59:46:111;-0.7086837;10.496181;0.7661445
11:59:46:179;11:59:46:111;-0.7086837;10.496181;0.7661445
11:59:46:187;11:59:46:111;-0.7086837;10.496181;0.7661445
11:59:46:195;11:59:46:111;-0.7086837;10.496181;0.7661445
11:59:46:203;11:59:46:111;-0.7086837;10.496181;0.7661445
11:59:46:210;11:59:46:111;-0.7086837;10.496181;0.7661445
11:59:46:218;11:59:46:214;0.19153613;8.791509;1.2066777
11:59:46:226;11:59:46:214;0.19153613;8.791509;1.2066777
11:59:46:234;11:59:46:214;0.19153613;8.791509;1.2066777
11:59:46:242;11:59:46:214;0.19153613;8.791509;1.2066777
11:59:46:250;11:59:46:214;0.19153613;8.791509;1.2066777
11:59:46:257;11:59:46:214;0.19153613;8.791509;1.2066777
11:59:46:265;11:59:46:214;0.19153613;8.791509;1.2066777
11:59:46:273;11:59:46:214;0.19153613;8.791509;1.2066777
11:59:46:281;11:59:46:214;0.19153613;8.791509;1.2066777
11:59:46:289;11:59:46:214;0.19153613;8.791509;1.2066777
11:59:46:296;11:59:46:214;0.19153613;8.791509;1.2066777
11:59:46:304;11:59:46:214;0.19153613;8.791509;1.2066777
11:59:46:312;11:59:46:214;0.19153613;8.791509;1.2066777
11:59:46:320;11:59:46:214;0.19153613;8.791509;1.2066777
11:59:46:328;11:59:46:214;0.19153613;8.791509;1.2066777
11:59:46:335;11:59:46:332;-0.038307227;10.342952;-0.11492168
11:59:46:343;11:59:46:332;-0.038307227;10.342952;-0.11492168
11:59:46:351;11:59:46:332;-0.038307227;10.342952;-0.11492168
11:59:46:359;11:59:46:332;-0.038307227;10.342952;-0.11492168
11:59:46:367;11:59:46:332;-0.038307227;10.342952;-0.11492168
11:59:46:375;11:59:46:332;-0.038307227;10.342952;-0.11492168
11:59:46:382;11:59:46:332;-0.038307227;10.342952;-0.11492168
11:59:46:390;11:59:46:332;-0.038307227;10.342952;-0.11492168
11:59:46:398;11:59:46:332;-0.038307227;10.342952;-0.11492168
11:59:46:406;11:59:46:332;-0.038307227;10.342952;-0.11492168
11:59:46:414;11:59:46:332;-0.038307227;10.342952;-0.11492168
11:59:46:421;11:59:46:332;-0.038307227;10.342952;-0.11492168
11:59:46:429;11:59:46:332;-0.038307227;10.342952;-0.11492168
11:59:46:437;11:59:46:433;-0.22984336;9.021352;0.9576807
11:59:46:445;11:59:46:433;-0.22984336;9.021352;0.9576807
11:59:46:453;11:59:46:433;-0.22984336;9.021352;0.9576807
11:59:46:460;11:59:46:433;-0.22984336;9.021352;0.9576807
11:59:46:468;11:59:46:433;-0.22984336;9.021352;0.9576807
11:59:46:476;11:59:46:433;-0.22984336;9.021352;0.9576807
11:59:46:484;11:59:46:433;-0.22984336;9.021352;0.9576807
11:59:46:492;11:59:46:433;-0.22984336;9.021352;0.9576807
11:59:46:500;11:59:46:433;-0.22984336;9.021352;0.9576807
11:59:46:507;11:59:46:433;-0.22984336;9.021352;0.9576807
11:59:46:515;11:59:46:433;-0.22984336;9.021352;0.9576807
11:59:46:523;11:59:46:433;-0.22984336;9.021352;0.9576807
11:59:46:531;11:59:46:433;-0.22984336;9.021352;0.9576807
11:59:46:539;11:59:46:433;-0.22984336;9.021352;0.9576807
11:59:46:546;11:59:46:433;-0.22984336;9.021352;0.9576807
11:59:46:554;11:59:46:549;-0.36391866;8.963891;1.2641385
11:59:46:562;11:59:46:549;-0.36391866;8.963891;1.2641385
11:59:46:570;11:59:46:549;-0.36391866;8.963891;1.2641385
11:59:46:578;11:59:46:549;-0.36391866;8.963891;1.2641385
11:59:46:585;11:59:46:549;-0.36391866;8.963891;1.2641385
11:59:46:593;11:59:46:549;-0.36391866;8.963891;1.2641385
11:59:46:601;11:59:46:549;-0.36391866;8.963891;1.2641385
11:59:46:609;11:59:46:549;-0.36391866;8.963891;1.2641385
11:59:46:617;11:59:46:549;-0.36391866;8.963891;1.2641385
11:59:46:625;11:59:46:549;-0.36391866;8.963891;1.2641385
11:59:46:632;11:59:46:549;-0.36391866;8.963891;1.2641385
11:59:46:640;11:59:46:549;-0.36391866;8.963891;1.2641385
11:59:46:648;11:59:46:549;-0.36391866;8.963891;1.2641385
11:59:46:656;11:59:46:650;-1.0342951;9.557653;1.4939818
11:59:46:664;11:59:46:650;-1.0342951;9.557653;1.4939818
11:59:46:671;11:59:46:650;-1.0342951;9.557653;1.4939818
11:59:46:679;11:59:46:650;-1.0342951;9.557653;1.4939818
11:59:46:687;11:59:46:650;-1.0342951;9.557653;1.4939818
11:59:46:695;11:59:46:650;-1.0342951;9.557653;1.4939818
11:59:46:703;11:59:46:650;-1.0342951;9.557653;1.4939818
11:59:46:710;11:59:46:650;-1.0342951;9.557653;1.4939818
11:59:46:718;11:59:46:650;-1.0342951;9.557653;1.4939818
11:59:46:726;11:59:46:650;-1.0342951;9.557653;1.4939818
11:59:46:734;11:59:46:650;-1.0342951;9.557653;1.4939818
11:59:46:742;11:59:46:650;-1.0342951;9.557653;1.4939818
11:59:46:750;11:59:46:650;-1.0342951;9.557653;1.4939818
11:59:46:757;11:59:46:754;-0.5554548;10.955867;-0.038307227
11:59:46:765;11:59:46:754;-0.5554548;10.955867;-0.038307227
11:59:46:773;11:59:46:754;-0.5554548;10.955867;-0.038307227
11:59:46:781;11:59:46:754;-0.5554548;10.955867;-0.038307227
11:59:46:789;11:59:46:754;-0.5554548;10.955867;-0.038307227
11:59:46:796;11:59:46:754;-0.5554548;10.955867;-0.038307227
11:59:46:804;11:59:46:754;-0.5554548;10.955867;-0.038307227
11:59:46:812;11:59:46:754;-0.5554548;10.955867;-0.038307227
11:59:46:820;11:59:46:754;-0.5554548;10.955867;-0.038307227
11:59:46:828;11:59:46:754;-0.5554548;10.955867;-0.038307227
11:59:46:835;11:59:46:754;-0.5554548;10.955867;-0.038307227
11:59:46:843;11:59:46:754;-0.5554548;10.955867;-0.038307227
11:59:46:851;11:59:46:754;-0.5554548;10.955867;-0.038307227
11:59:46:859;11:59:46:754;-0.5554548;10.955867;-0.038307227
11:59:46:867;11:59:46:754;-0.5554548;10.955867;-0.038307227
11:59:46:875;11:59:46:873;-0.34476504;10.649409;0.63206923
11:59:46:882;11:59:46:873;-0.34476504;10.649409;0.63206923
11:59:46:890;11:59:46:873;-0.34476504;10.649409;0.63206923
11:59:46:898;11:59:46:873;-0.34476504;10.649409;0.63206923
11:59:46:906;11:59:46:873;-0.34476504;10.649409;0.63206923
11:59:46:914;11:59:46:873;-0.34476504;10.649409;0.63206923
11:59:46:921;11:59:46:873;-0.34476504;10.649409;0.63206923
11:59:46:929;11:59:46:873;-0.34476504;10.649409;0.63206923
11:59:46:937;11:59:46:873;-0.34476504;10.649409;0.63206923
11:59:46:945;11:59:46:873;-0.34476504;10.649409;0.63206923
11:59:46:953;11:59:46:873;-0.34476504;10.649409;0.63206923
11:59:46:960;11:59:46:873;-0.34476504;10.649409;0.63206923
11:59:46:968;11:59:46:873;-0.34476504;10.649409;0.63206923
11:59:46:976;11:59:46:873;-0.34476504;10.649409;0.63206923
11:59:46:984;11:59:46:873;-0.34476504;10.649409;0.63206923
11:59:46:992;11:59:46:989;-0.21068975;10.362105;-0.05746084
11:59:47:000;11:59:46:989;-0.21068975;10.362105;-0.05746084
11:59:47:007;11:59:46:989;-0.21068975;10.362105;-0.05746084
11:59:47:015;11:59:46:989;-0.21068975;10.362105;-0.05746084
11:59:47:023;11:59:46:989;-0.21068975;10.362105;-0.05746084
11:59:47:031;11:59:46:989;-0.21068975;10.362105;-0.05746084
11:59:47:039;11:59:46:989;-0.21068975;10.362105;-0.05746084
11:59:47:046;11:59:46:989;-0.21068975;10.362105;-0.05746084
11:59:47:054;11:59:46:989;-0.21068975;10.362105;-0.05746084
11:59:47:062;11:59:46:989;-0.21068975;10.362105;-0.05746084
11:59:47:070;11:59:46:989;-0.21068975;10.362105;-0.05746084
11:59:47:078;11:59:46:989;-0.21068975;10.362105;-0.05746084
11:59:47:085;11:59:46:989;-0.21068975;10.362105;-0.05746084
11:59:47:093;11:59:46:989;-0.21068975;10.362105;-0.05746084
11:59:47:101;11:59:47:094;-0.17238252;9.002198;0.05746084
11:59:47:109;11:59:47:094;-0.17238252;9.002198;0.05746084
11:59:47:117;11:59:47:094;-0.17238252;9.002198;0.05746084
11:59:47:125;11:59:47:094;-0.17238252;9.002198;0.05746084
11:59:47:132;11:59:47:094;-0.17238252;9.002198;0.05746084
11:59:47:140;11:59:47:094;-0.17238252;9.002198;0.05746084
11:59:47:148;11:59:47:094;-0.17238252;9.002198;0.05746084
11:59:47:156;11:59:47:094;-0.17238252;9.002198;0.05746084
11:59:47:164;11:59:47:094;-0.17238252;9.002198;0.05746084
11:59:47:171;11:59:47:094;-0.17238252;9.002198;0.05746084
11:59:47:179;11:59:47:094;-0.17238252;9.002198;0.05746084
11:59:47:187;11:59:47:094;-0.17238252;9.002198;0.05746084
11:59:47:195;11:59:47:094;-0.17238252;9.002198;0.05746084
11:59:47:203;11:59:47:094;-0.17238252;9.002198;0.05746084
11:59:47:210;11:59:47:094;-0.17238252;9.002198;0.05746084
11:59:47:218;11:59:47:214;-0.1340753;10.534488;0.5746084
11:59:47:226;11:59:47:214;-0.1340753;10.534488;0.5746084
11:59:47:234;11:59:47:214;-0.1340753;10.534488;0.5746084
11:59:47:242;11:59:47:214;-0.1340753;10.534488;0.5746084
11:59:47:250;11:59:47:214;-0.1340753;10.534488;0.5746084
11:59:47:257;11:59:47:214;-0.1340753;10.534488;0.5746084
11:59:47:265;11:59:47:214;-0.1340753;10.534488;0.5746084
11:59:47:273;11:59:47:214;-0.1340753;10.534488;0.5746084
11:59:47:281;11:59:47:214;-0.1340753;10.534488;0.5746084
11:59:47:289;11:59:47:214;-0.1340753;10.534488;0.5746084
11:59:47:296;11:59:47:214;-0.1340753;10.534488;0.5746084
11:59:47:304;11:59:47:214;-0.1340753;10.534488;0.5746084
11:59:47:312;11:59:47:214;-0.1340753;10.534488;0.5746084
11:59:47:320;11:59:47:316;-0.90021986;10.764331;0.19153613
11:59:47:328;11:59:47:316;-0.90021986;10.764331;0.19153613
11:59:47:335;11:59:47:316;-0.90021986;10.764331;0.19153613
11:59:47:343;11:59:47:316;-0.90021986;10.764331;0.19153613
11:59:47:351;11:59:47:316;-0.90021986;10.764331;0.19153613
11:59:47:359;11:59:47:316;-0.90021986;10.764331;0.19153613
11:59:47:367;11:59:47:316;-0.90021986;10.764331;0.19153613
11:59:47:375;11:59:47:316;-0.90021986;10.764331;0.19153613
11:59:47:382;11:59:47:316;-0.90021986;10.764331;0.19153613
11:59:47:390;11:59:47:316;-0.90021986;10.764331;0.19153613
11:59:47:398;11:59:47:316;-0.90021986;10.764331;0.19153613
11:59:47:406;11:59:47:316;-0.90021986;10.764331;0.19153613
11:59:47:414;11:59:47:316;-0.90021986;10.764331;0.19153613
11:59:47:421;11:59:47:316;-0.90021986;10.764331;0.19153613
11:59:47:429;11:59:47:316;-0.90021986;10.764331;0.19153613
11:59:47:437;11:59:47:431;-0.7086837;10.113108;0.5746084
11:59:47:445;11:59:47:431;-0.7086837;10.113108;0.5746084
11:59:47:453;11:59:47:431;-0.7086837;10.113108;0.5746084
11:59:47:460;11:59:47:431;-0.7086837;10.113108;0.5746084
11:59:47:468;11:59:47:431;-0.7086837;10.113108;0.5746084
11:59:47:476;11:59:47:431;-0.7086837;10.113108;0.5746084
11:59:47:484;11:59:47:431;-0.7086837;10.113108;0.5746084
11:59:47:492;11:59:47:431;-0.7086837;10.113108;0.5746084
11:59:47:500;11:59:47:431;-0.7086837;10.113108;0.5746084
11:59:47:507;11:59:47:431;-0.7086837;10.113108;0.5746084
11:59:47:515;11:59:47:431;-0.7086837;10.113108;0.5746084
11:59:47:523;11:59:47:431;-0.7086837;10.113108;0.5746084
11:59:47:531;11:59:47:431;-0.7086837;10.113108;0.5746084
11:59:47:539;11:59:47:539;0.019153614;9.615114;0.38307226
11:59:47:546;11:59:47:539;0.019153614;9.615114;0.38307226
11:59:47:554;11:59:47:539;0.019153614;9.615114;0.38307226
11:59:47:562;11:59:47:539;0.019153614;9.615114;0.38307226
11:59:47:570;11:59:47:539;0.019153614;9.615114;0.38307226
11:59:47:578;11:59:47:539;0.019153614;9.615114;0.38307226
11:59:47:585;11:59:47:539;0.019153614;9.615114;0.38307226
11:59:47:593;11:59:47:539;0.019153614;9.615114;0.38307226
11:59:47:601;11:59:47:539;0.019153614;9.615114;0.38307226
11:59:47:609;11:59:47:539;0.019153614;9.615114;0.38307226
11:59:47:617;11:59:47:539;0.019153614;9.615114;0.38307226
11:59:47:625;11:59:47:539;0.019153614;9.615114;0.38307226
11:59:47:632;11:59:47:539;0.019153614;9.615114;0.38307226
11:59:47:640;11:59:47:539;0.019153614;9.615114;0.38307226
11:59:47:648;11:59:47:646;-0.45968673;9.864111;-0.05746084
11:59:47:656;11:59:47:646;-0.45968673;9.864111;-0.05746084
11:59:47:664;11:59:47:646;-0.45968673;9.864111;-0.05746084
11:59:47:671;11:59:47:646;-0.45968673;9.864111;-0.05746084
11:59:47:679;11:59:47:646;-0.45968673;9.864111;-0.05746084
11:59:47:687;11:59:47:646;-0.45968673;9.864111;-0.05746084
11:59:47:695;11:59:47:646;-0.45968673;9.864111;-0.05746084
11:59:47:703;11:59:47:646;-0.45968673;9.864111;-0.05746084
11:59:47:710;11:59:47:646;-0.45968673;9.864111;-0.05746084
11:59:47:718;11:59:47:646;-0.45968673;9.864111;-0.05746084
11:59:47:726;11:59:47:646;-0.45968673;9.864111;-0.05746084
11:59:47:734;11:59:47:646;-0.45968673;9.864111;-0.05746084
11:59:47:742;11:59:47:646;-0.45968673;9.864111;-0.05746084
11:59:47:750;11:59:47:747;-0.5746084;10.515334;-0.4213795
11:59:47:757;11:59:47:747;-0.5746084;10.515334;-0.4213795
11:59:47:765;11:59:47:747;-0.5746084;10.515334;-0.4213795
11:59:47:773;11:59:47:747;-0.5746084;10.515334;-0.4213795
11:59:47:781;11:59:47:747;-0.5746084;10.515334;-0.4213795
11:59:47:789;11:59:47:747;-0.5746084;10.515334;-0.4213795
11:59:47:796;11:59:47:747;-0.5746084;10.515334;-0.4213795
11:59:47:804;11:59:47:747;-0.5746084;10.515334;-0.4213795
11:59:47:812;11:59:47:747;-0.5746084;10.515334;-0.4213795
11:59:47:820;11:59:47:747;-0.5746084;10.515334;-0.4213795
11:59:47:828;11:59:47:747;-0.5746084;10.515334;-0.4213795
11:59:47:835;11:59:47:747;-0.5746084;10.515334;-0.4213795
11:59:47:843;11:59:47:747;-0.5746084;10.515334;-0.4213795
11:59:47:851;11:59:47:850;-0.24899697;10.228029;0.21068975
11:59:47:859;11:59:47:850;-0.24899697;10.228029;0.21068975
11:59:47:867;11:59:47:850;-0.24899697;10.228029;0.21068975
11:59:47:875;11:59:47:850;-0.24899697;10.228029;0.21068975
11:59:47:882;11:59:47:850;-0.24899697;10.228029;0.21068975
11:59:47:890;11:59:47:850;-0.24899697;10.228029;0.21068975
11:59:47:898;11:59:47:850;-0.24899697;10.228029;0.21068975
11:59:47:906;11:59:47:850;-0.24899697;10.228029;0.21068975
11:59:47:914;11:59:47:850;-0.24899697;10.228029;0.21068975
11:59:47:921;11:59:47:850;-0.24899697;10.228029;0.21068975
11:59:47:929;11:59:47:850;-0.24899697;10.228029;0.21068975
11:59:47:937;11:59:47:850;-0.24899697;10.228029;0.21068975
11:59:47:945;11:59:47:850;-0.24899697;10.228029;0.21068975
11:59:47:953;11:59:47:952;-0.21068975;9.80665;0.095768064
11:59:47:960;11:59:47:952;-0.21068975;9.80665;0.095768064
11:59:47:968;11:59:47:952;-0.21068975;9.80665;0.095768064
11:59:47:976;11:59:47:952;-0.21068975;9.80665;0.095768064
11:59:47:984;11:59:47:952;-0.21068975;9.80665;0.095768064
11:59:47:992;11:59:47:952;-0.21068975;9.80665;0.095768064
11:59:48:000;11:59:47:952;-0.21068975;9.80665;0.095768064
11:59:48:007;11:59:47:952;-0.21068975;9.80665;0.095768064
11:59:48:015;11:59:47:952;-0.21068975;9.80665;0.095768064
11:59:48:023;11:59:47:952;-0.21068975;9.80665;0.095768064
11:59:48:031;11:59:47:952;-0.21068975;9.80665;0.095768064
11:59:48:039;11:59:47:952;-0.21068975;9.80665;0.095768064
11:59:48:046;11:59:47:952;-0.21068975;9.80665;0.095768064
11:59:48:054;11:59:47:952;-0.21068975;9.80665;0.095768064
11:59:48:062;11:59:47:952;-0.21068975;9.80665;0.095768064
11:59:48:070;11:59:48:069;-0.5746084;10.055647;0.4405331
11:59:48:078;11:59:48:069;-0.5746084;10.055647;0.4405331
11:59:48:085;11:59:48:069;-0.5746084;10.055647;0.4405331
11:59:48:093;11:59:48:069;-0.5746084;10.055647;0.4405331
11:59:48:101;11:59:48:069;-0.5746084;10.055647;0.4405331
11:59:48:109;11:59:48:069;-0.5746084;10.055647;0.4405331
11:59:48:117;11:59:48:069;-0.5746084;10.055647;0.4405331
11:59:48:125;11:59:48:069;-0.5746084;10.055647;0.4405331
11:59:48:132;11:59:48:069;-0.5746084;10.055647;0.4405331
11:59:48:140;11:59:48:069;-0.5746084;10.055647;0.4405331
11:59:48:148;11:59:48:069;-0.5746084;10.055647;0.4405331
11:59:48:156;11:59:48:069;-0.5746084;10.055647;0.4405331
11:59:48:164;11:59:48:069;-0.5746084;10.055647;0.4405331
11:59:48:171;11:59:48:069;-0.5746084;10.055647;0.4405331
11:59:48:179;11:59:48:175;-0.38307226;11.070788;-0.095768064
11:59:48:187;11:59:48:175;-0.38307226;11.070788;-0.095768064
11:59:48:195;11:59:48:175;-0.38307226;11.070788;-0.095768064
11:59:48:203;11:59:48:175;-0.38307226;11.070788;-0.095768064
11:59:48:210;11:59:48:175;-0.38307226;11.070788;-0.095768064
11:59:48:218;11:59:48:175;-0.38307226;11.070788;-0.095768064
11:59:48:226;11:59:48:175;-0.38307226;11.070788;-0.095768064
11:59:48:234;11:59:48:175;-0.38307226;11.070788;-0.095768064
11:59:48:242;11:59:48:175;-0.38307226;11.070788;-0.095768064
11:59:48:250;11:59:48:175;-0.38307226;11.070788;-0.095768064
11:59:48:257;11:59:48:175;-0.38307226;11.070788;-0.095768064
11:59:48:265;11:59:48:175;-0.38307226;11.070788;-0.095768064
11:59:48:273;11:59:48:175;-0.38307226;11.070788;-0.095768064
11:59:48:281;11:59:48:175;-0.38307226;11.070788;-0.095768064
11:59:48:289;11:59:48:175;-0.38307226;11.070788;-0.095768064
11:59:48:296;11:59:48:294;-0.63206923;9.212888;0.47884035
11:59:48:304;11:59:48:294;-0.63206923;9.212888;0.47884035
11:59:48:312;11:59:48:294;-0.63206923;9.212888;0.47884035
11:59:48:320;11:59:48:294;-0.63206923;9.212888;0.47884035
11:59:48:328;11:59:48:294;-0.63206923;9.212888;0.47884035
11:59:48:335;11:59:48:294;-0.63206923;9.212888;0.47884035
11:59:48:343;11:59:48:294;-0.63206923;9.212888;0.47884035
11:59:48:351;11:59:48:294;-0.63206923;9.212888;0.47884035
11:59:48:359;11:59:48:294;-0.63206923;9.212888;0.47884035
11:59:48:367;11:59:48:294;-0.63206923;9.212888;0.47884035
11:59:48:375;11:59:48:294;-0.63206923;9.212888;0.47884035
11:59:48:382;11:59:48:294;-0.63206923;9.212888;0.47884035
11:59:48:390;11:59:48:294;-0.63206923;9.212888;0.47884035
11:59:48:398;11:59:48:294;-0.63206923;9.212888;0.47884035
11:59:48:406;11:59:48:400;-0.6703765;10.97502;-0.22984336
11:59:48:414;11:59:48:400;-0.6703765;10.97502;-0.22984336
11:59:48:421;11:59:48:400;-0.6703765;10.97502;-0.22984336
11:59:48:429;11:59:48:400;-0.6703765;10.97502;-0.22984336
11:59:48:437;11:59:48:400;-0.6703765;10.97502;-0.22984336
11:59:48:445;11:59:48:400;-0.6703765;10.97502;-0.22984336
11:59:48:453;11:59:48:400;-0.6703765;10.97502;-0.22984336
11:59:48:460;11:59:48:400;-0.6703765;10.97502;-0.22984336
11:59:48:468;11:59:48:400;-0.6703765;10.97502;-0.22984336
11:59:48:476;11:59:48:400;-0.6703765;10.97502;-0.22984336
11:59:48:484;11:59:48:400;-0.6703765;10.97502;-0.22984336
11:59:48:492;11:59:48:400;-0.6703765;10.97502;-0.22984336
11:59:48:500;11:59:48:400;-0.6703765;10.97502;-0.22984336
11:59:48:507;11:59:48:400;-0.6703765;10.97502;-0.22984336
11:59:48:515;11:59:48:400;-0.6703765;10.97502;-0.22984336
11:59:48:523;11:59:48:518;-0.4405331;9.059659;0.93852705
11:59:48:531;11:59:48:518;-0.4405331;9.059659;0.93852705
11:59:48:539;11:59:48:518;-0.4405331;9.059659;0.93852705
11:59:48:546;11:59:48:518;-0.4405331;9.059659;0.93852705
11:59:48:554;11:59:48:518;-0.4405331;9.059659;0.93852705
11:59:48:562;11:59:48:518;-0.4405331;9.059659;0.93852705
11:59:48:570;11:59:48:518;-0.4405331;9.059659;0.93852705
11:59:48:578;11:59:48:518;-0.4405331;9.059659;0.93852705
11:59:48:585;11:59:48:518;-0.4405331;9.059659;0.93852705
11:59:48:593;11:59:48:518;-0.4405331;9.059659;0.93852705
11:59:48:601;11:59:48:518;-0.4405331;9.059659;0.93852705
11:59:48:609;11:59:48:518;-0.4405331;9.059659;0.93852705
11:59:48:617;11:59:48:518;-0.4405331;9.059659;0.93852705
11:59:48:625;11:59:48:620;-0.45968673;8.485051;1.2066777
11:59:48:632;11:59:48:620;-0.45968673;8.485051;1.2066777
11:59:48:640;11:59:48:620;-0.45968673;8.485051;1.2066777
11:59:48:648;11:59:48:620;-0.45968673;8.485051;1.2066777
11:59:48:656;11:59:48:620;-0.45968673;8.485051;1.2066777
11:59:48:664;11:59:48:620;-0.45968673;8.485051;1.2066777
11:59:48:671;11:59:48:620;-0.45968673;8.485051;1.2066777
11:59:48:679;11:59:48:620;-0.45968673;8.485051;1.2066777
11:59:48:687;11:59:48:620;-0.45968673;8.485051;1.2066777
11:59:48:695;11:59:48:620;-0.45968673;8.485051;1.2066777
11:59:48:703;11:59:48:620;-0.45968673;8.485051;1.2066777
11:59:48:710;11:59:48:620;-0.45968673;8.485051;1.2066777
11:59:48:718;11:59:48:620;-0.45968673;8.485051;1.2066777
11:59:48:726;11:59:48:620;-0.45968673;8.485051;1.2066777
11:59:48:734;11:59:48:620;-0.45968673;8.485051;1.2066777
11:59:48:742;11:59:48:737;-0.45968673;10.994174;-0.80445176
11:59:48:750;11:59:48:737;-0.45968673;10.994174;-0.80445176
11:59:48:757;11:59:48:737;-0.45968673;10.994174;-0.80445176
11:59:48:765;11:59:48:737;-0.45968673;10.994174;-0.80445176
11:59:48:773;11:59:48:737;-0.45968673;10.994174;-0.80445176
11:59:48:781;11:59:48:737;-0.45968673;10.994174;-0.80445176
11:59:48:789;11:59:48:737;-0.45968673;10.994174;-0.80445176
11:59:48:796;11:59:48:737;-0.45968673;10.994174;-0.80445176
11:59:48:804;11:59:48:737;-0.45968673;10.994174;-0.80445176
11:59:48:812;11:59:48:737;-0.45968673;10.994174;-0.80445176
11:59:48:820;11:59:48:737;-0.45968673;10.994174;-0.80445176
11:59:48:828;11:59:48:737;-0.45968673;10.994174;-0.80445176
11:59:48:835;11:59:48:737;-0.45968673;10.994174;-0.80445176
11:59:48:843;11:59:48:737;-0.45968673;10.994174;-0.80445176
11:59:48:851;11:59:48:737;-0.45968673;10.994174;-0.80445176
11:59:48:859;11:59:48:737;-0.45968673;10.994174;-0.80445176
11:59:48:867;11:59:48:737;-0.45968673;10.994174;-0.80445176
11:59:48:875;11:59:48:737;-0.45968673;10.994174;-0.80445176
11:59:48:882;11:59:48:737;-0.45968673;10.994174;-0.80445176
11:59:48:890;11:59:48:883;-0.7086837;10.381259;0.17238252
11:59:48:898;11:59:48:883;-0.7086837;10.381259;0.17238252
11:59:48:906;11:59:48:883;-0.7086837;10.381259;0.17238252
11:59:48:914;11:59:48:883;-0.7086837;10.381259;0.17238252
11:59:48:921;11:59:48:883;-0.7086837;10.381259;0.17238252
11:59:48:929;11:59:48:883;-0.7086837;10.381259;0.17238252
11:59:48:937;11:59:48:883;-0.7086837;10.381259;0.17238252
11:59:48:945;11:59:48:883;-0.7086837;10.381259;0.17238252
11:59:48:953;11:59:48:883;-0.7086837;10.381259;0.17238252
11:59:48:960;11:59:48:883;-0.7086837;10.381259;0.17238252
11:59:48:968;11:59:48:883;-0.7086837;10.381259;0.17238252
11:59:48:976;11:59:48:883;-0.7086837;10.381259;0.17238252
11:59:48:984;11:59:48:883;-0.7086837;10.381259;0.17238252
11:59:48:992;11:59:48:988;0.36391866;10.228029;-0.59376204
11:59:49:000;11:59:48:988;0.36391866;10.228029;-0.59376204
11:59:49:007;11:59:48:988;0.36391866;10.228029;-0.59376204
11:59:49:015;11:59:48:988;0.36391866;10.228029;-0.59376204
11:59:49:023;11:59:48:988;0.36391866;10.228029;-0.59376204
11:59:49:031;11:59:48:988;0.36391866;10.228029;-0.59376204
11:59:49:039;11:59:48:988;0.36391866;10.228029;-0.59376204
11:59:49:046;11:59:48:988;0.36391866;10.228029;-0.59376204
11:59:49:054;11:59:48:988;0.36391866;10.228029;-0.59376204
11:59:49:062;11:59:48:988;0.36391866;10.228029;-0.59376204
11:59:49:070;11:59:48:988;0.36391866;10.228029;-0.59376204
11:59:49:078;11:59:48:988;0.36391866;10.228029;-0.59376204
11:59:49:085;11:59:48:988;0.36391866;10.228029;-0.59376204
11:59:49:093;11:59:49:089;-1.1300632;9.9790325;-0.842759
11:59:49:101;11:59:49:089;-1.1300632;9.9790325;-0.842759
11:59:49:109;11:59:49:089;-1.1300632;9.9790325;-0.842759
11:59:49:117;11:59:49:089;-1.1300632;9.9790325;-0.842759
11:59:49:125;11:59:49:089;-1.1300632;9.9790325;-0.842759
11:59:49:132;11:59:49:089;-1.1300632;9.9790325;-0.842759
11:59:49:140;11:59:49:089;-1.1300632;9.9790325;-0.842759
11:59:49:148;11:59:49:089;-1.1300632;9.9790325;-0.842759
11:59:49:156;11:59:49:089;-1.1300632;9.9790325;-0.842759
11:59:49:164;11:59:49:089;-1.1300632;9.9790325;-0.842759
11:59:49:171;11:59:49:089;-1.1300632;9.9790325;-0.842759
11:59:49:179;11:59:49:089;-1.1300632;9.9790325;-0.842759
11:59:49:187;11:59:49:089;-1.1300632;9.9790325;-0.842759
11:59:49:195;11:59:49:193;-0.1340753;9.710882;0.4405331
11:59:49:203;11:59:49:193;-0.1340753;9.710882;0.4405331
11:59:49:210;11:59:49:193;-0.1340753;9.710882;0.4405331
11:59:49:218;11:59:49:193;-0.1340753;9.710882;0.4405331
11:59:49:226;11:59:49:193;-0.1340753;9.710882;0.4405331
11:59:49:234;11:59:49:193;-0.1340753;9.710882;0.4405331
11:59:49:242;11:59:49:193;-0.1340753;9.710882;0.4405331
11:59:49:250;11:59:49:193;-0.1340753;9.710882;0.4405331
11:59:49:257;11:59:49:193;-0.1340753;9.710882;0.4405331
11:59:49:265;11:59:49:193;-0.1340753;9.710882;0.4405331
11:59:49:273;11:59:49:193;-0.1340753;9.710882;0.4405331
11:59:49:281;11:59:49:193;-0.1340753;9.710882;0.4405331
11:59:49:289;11:59:49:193;-0.1340753;9.710882;0.4405331
11:59:49:296;11:59:49:193;-0.1340753;9.710882;0.4405331
11:59:49:304;11:59:49:193;-0.1340753;9.710882;0.4405331
11:59:49:312;11:59:49:311;0.90021986;8.925584;0.51714754
11:59:49:320;11:59:49:311;0.90021986;8.925584;0.51714754
11:59:49:328;11:59:49:311;0.90021986;8.925584;0.51714754
11:59:49:335;11:59:49:311;0.90021986;8.925584;0.51714754
11:59:49:343;11:59:49:311;0.90021986;8.925584;0.51714754
11:59:49:351;11:59:49:311;0.90021986;8.925584;0.51714754
11:59:49:359;11:59:49:311;0.90021986;8.925584;0.51714754
11:59:49:367;11:59:49:311;0.90021986;8.925584;0.51714754
11:59:49:375;11:59:49:311;0.90021986;8.925584;0.51714754
11:59:49:382;11:59:49:311;0.90021986;8.925584;0.51714754
11:59:49:390;11:59:49:311;0.90021986;8.925584;0.51714754
11:59:49:398;11:59:49:311;0.90021986;8.925584;0.51714754
11:59:49:406;11:59:49:311;0.90021986;8.925584;0.51714754
11:59:49:414;11:59:49:311;0.90021986;8.925584;0.51714754
11:59:49:421;11:59:49:311;0.90021986;8.925584;0.51714754
11:59:49:429;11:59:49:311;0.90021986;8.925584;0.51714754
11:59:49:437;11:59:49:430;-1.1683705;12.813767;-1.8770541
11:59:49:445;11:59:49:430;-1.1683705;12.813767;-1.8770541
11:59:49:453;11:59:49:430;-1.1683705;12.813767;-1.8770541
11:59:49:460;11:59:49:430;-1.1683705;12.813767;-1.8770541
11:59:49:468;11:59:49:430;-1.1683705;12.813767;-1.8770541
11:59:49:476;11:59:49:430;-1.1683705;12.813767;-1.8770541
11:59:49:484;11:59:49:430;-1.1683705;12.813767;-1.8770541
11:59:49:492;11:59:49:430;-1.1683705;12.813767;-1.8770541
11:59:49:500;11:59:49:430;-1.1683705;12.813767;-1.8770541
11:59:49:507;11:59:49:430;-1.1683705;12.813767;-1.8770541
11:59:49:515;11:59:49:430;-1.1683705;12.813767;-1.8770541
11:59:49:523;11:59:49:430;-1.1683705;12.813767;-1.8770541
11:59:49:531;11:59:49:430;-1.1683705;12.813767;-1.8770541
11:59:49:539;11:59:49:533;-0.7086837;11.779472;-1.4173675
11:59:49:546;11:59:49:533;-0.7086837;11.779472;-1.4173675
11:59:49:554;11:59:49:533;-0.7086837;11.779472;-1.4173675
11:59:49:562;11:59:49:533;-0.7086837;11.779472;-1.4173675
11:59:49:570;11:59:49:533;-0.7086837;11.779472;-1.4173675
11:59:49:578;11:59:49:533;-0.7086837;11.779472;-1.4173675
11:59:49:585;11:59:49:533;-0.7086837;11.779472;-1.4173675
11:59:49:593;11:59:49:533;-0.7086837;11.779472;-1.4173675
11:59:49:601;11:59:49:533;-0.7086837;11.779472;-1.4173675
11:59:49:609;11:59:49:533;-0.7086837;11.779472;-1.4173675
11:59:49:617;11:59:49:533;-0.7086837;11.779472;-1.4173675
11:59:49:625;11:59:49:533;-0.7086837;11.779472;-1.4173675
11:59:49:632;11:59:49:533;-0.7086837;11.779472;-1.4173675
11:59:49:640;11:59:49:533;-0.7086837;11.779472;-1.4173675
11:59:49:648;11:59:49:533;-0.7086837;11.779472;-1.4173675
11:59:49:656;11:59:49:651;-0.22984336;10.534488;-0.63206923
11:59:49:664;11:59:49:651;-0.22984336;10.534488;-0.63206923
11:59:49:671;11:59:49:651;-0.22984336;10.534488;-0.63206923
11:59:49:679;11:59:49:651;-0.22984336;10.534488;-0.63206923
11:59:49:687;11:59:49:651;-0.22984336;10.534488;-0.63206923
11:59:49:695;11:59:49:651;-0.22984336;10.534488;-0.63206923
11:59:49:703;11:59:49:651;-0.22984336;10.534488;-0.63206923
11:59:49:710;11:59:49:651;-0.22984336;10.534488;-0.63206923
11:59:49:718;11:59:49:651;-0.22984336;10.534488;-0.63206923
11:59:49:726;11:59:49:651;-0.22984336;10.534488;-0.63206923
11:59:49:734;11:59:49:651;-0.22984336;10.534488;-0.63206923
11:59:49:742;11:59:49:651;-0.22984336;10.534488;-0.63206923
11:59:49:750;11:59:49:651;-0.22984336;10.534488;-0.63206923
11:59:49:757;11:59:49:651;-0.22984336;10.534488;-0.63206923
11:59:49:765;11:59:49:651;-0.22984336;10.534488;-0.63206923
11:59:49:773;11:59:49:770;-0.30645782;8.561666;1.0534488
11:59:49:781;11:59:49:770;-0.30645782;8.561666;1.0534488
11:59:49:789;11:59:49:770;-0.30645782;8.561666;1.0534488
11:59:49:796;11:59:49:770;-0.30645782;8.561666;1.0534488
11:59:49:804;11:59:49:770;-0.30645782;8.561666;1.0534488
11:59:49:812;11:59:49:770;-0.30645782;8.561666;1.0534488
11:59:49:820;11:59:49:770;-0.30645782;8.561666;1.0534488
11:59:49:828;11:59:49:770;-0.30645782;8.561666;1.0534488
11:59:49:835;11:59:49:770;-0.30645782;8.561666;1.0534488
11:59:49:843;11:59:49:770;-0.30645782;8.561666;1.0534488
11:59:49:851;11:59:49:770;-0.30645782;8.561666;1.0534488
11:59:49:859;11:59:49:770;-0.30645782;8.561666;1.0534488
11:59:49:867;11:59:49:770;-0.30645782;8.561666;1.0534488
11:59:49:875;11:59:49:770;-0.30645782;8.561666;1.0534488
11:59:49:882;11:59:49:770;-0.30645782;8.561666;1.0534488
11:59:49:890;11:59:49:888;0.21068975;10.572795;-0.80445176
11:59:49:898;11:59:49:888;0.21068975;10.572795;-0.80445176
11:59:49:906;11:59:49:888;0.21068975;10.572795;-0.80445176
11:59:49:914;11:59:49:888;0.21068975;10.572795;-0.80445176
11:59:49:921;11:59:49:888;0.21068975;10.572795;-0.80445176
11:59:49:929;11:59:49:888;0.21068975;10.572795;-0.80445176
11:59:49:937;11:59:49:888;0.21068975;10.572795;-0.80445176
11:59:49:945;11:59:49:888;0.21068975;10.572795;-0.80445176
11:59:49:953;11:59:49:888;0.21068975;10.572795;-0.80445176
11:59:49:960;11:59:49:888;0.21068975;10.572795;-0.80445176
11:59:49:968;11:59:49:888;0.21068975;10.572795;-0.80445176
11:59:49:976;11:59:49:888;0.21068975;10.572795;-0.80445176
11:59:49:984;11:59:49:888;0.21068975;10.572795;-0.80445176
11:59:49:992;11:59:49:888;0.21068975;10.572795;-0.80445176
11:59:50:000;11:59:49:888;0.21068975;10.572795;-0.80445176
11:59:50:007;11:59:49:888;0.21068975;10.572795;-0.80445176
11:59:50:015;11:59:50:009;-0.2681506;10.170568;-0.2681506
11:59:50:023;11:59:50:009;-0.2681506;10.170568;-0.2681506
11:59:50:031;11:59:50:009;-0.2681506;10.170568;-0.2681506
11:59:50:039;11:59:50:009;-0.2681506;10.170568;-0.2681506
11:59:50:046;11:59:50:009;-0.2681506;10.170568;-0.2681506
11:59:50:054;11:59:50:009;-0.2681506;10.170568;-0.2681506
11:59:50:062;11:59:50:009;-0.2681506;10.170568;-0.2681506
11:59:50:070;11:59:50:009;-0.2681506;10.170568;-0.2681506
11:59:50:078;11:59:50:009;-0.2681506;10.170568;-0.2681506
11:59:50:085;11:59:50:009;-0.2681506;10.170568;-0.2681506
11:59:50:093;11:59:50:009;-0.2681506;10.170568;-0.2681506
11:59:50:101;11:59:50:009;-0.2681506;10.170568;-0.2681506
11:59:50:109;11:59:50:009;-0.2681506;10.170568;-0.2681506
11:59:50:117;11:59:50:115;-0.49799395;10.266336;-0.32561144
11:59:50:125;11:59:50:115;-0.49799395;10.266336;-0.32561144
11:59:50:132;11:59:50:115;-0.49799395;10.266336;-0.32561144
11:59:50:140;11:59:50:115;-0.49799395;10.266336;-0.32561144
11:59:50:148;11:59:50:115;-0.49799395;10.266336;-0.32561144
11:59:50:156;11:59:50:115;-0.49799395;10.266336;-0.32561144
11:59:50:164;11:59:50:115;-0.49799395;10.266336;-0.32561144
11:59:50:171;11:59:50:115;-0.49799395;10.266336;-0.32561144
11:59:50:179;11:59:50:115;-0.49799395;10.266336;-0.32561144
11:59:50:187;11:59:50:115;-0.49799395;10.266336;-0.32561144
11:59:50:195;11:59:50:115;-0.49799395;10.266336;-0.32561144
11:59:50:203;11:59:50:115;-0.49799395;10.266336;-0.32561144
11:59:50:210;11:59:50:115;-0.49799395;10.266336;-0.32561144
11:59:50:218;11:59:50:218;-0.6895301;9.634268;0.2681506
11:59:50:226;11:59:50:218;-0.6895301;9.634268;0.2681506
11:59:50:234;11:59:50:218;-0.6895301;9.634268;0.2681506
11:59:50:242;11:59:50:218;-0.6895301;9.634268;0.2681506
11:59:50:250;11:59:50:218;-0.6895301;9.634268;0.2681506
11:59:50:257;11:59:50:218;-0.6895301;9.634268;0.2681506
11:59:50:265;11:59:50:218;-0.6895301;9.634268;0.2681506
11:59:50:273;11:59:50:218;-0.6895301;9.634268;0.2681506
11:59:50:281;11:59:50:218;-0.6895301;9.634268;0.2681506
11:59:50:289;11:59:50:218;-0.6895301;9.634268;0.2681506
11:59:50:296;11:59:50:218;-0.6895301;9.634268;0.2681506
11:59:50:304;11:59:50:218;-0.6895301;9.634268;0.2681506
11:59:50:312;11:59:50:218;-0.6895301;9.634268;0.2681506
11:59:50:320;11:59:50:218;-0.6895301;9.634268;0.2681506
11:59:50:328;11:59:50:218;-0.6895301;9.634268;0.2681506
11:59:50:335;11:59:50:218;-0.6895301;9.634268;0.2681506
11:59:50:343;11:59:50:336;0.038307227;10.821792;-0.6703765
11:59:50:351;11:59:50:336;0.038307227;10.821792;-0.6703765
11:59:50:359;11:59:50:336;0.038307227;10.821792;-0.6703765
11:59:50:367;11:59:50:336;0.038307227;10.821792;-0.6703765
11:59:50:375;11:59:50:336;0.038307227;10.821792;-0.6703765
11:59:50:382;11:59:50:336;0.038307227;10.821792;-0.6703765
11:59:50:390;11:59:50:336;0.038307227;10.821792;-0.6703765
11:59:50:398;11:59:50:336;0.038307227;10.821792;-0.6703765
11:59:50:406;11:59:50:336;0.038307227;10.821792;-0.6703765
11:59:50:414;11:59:50:336;0.038307227;10.821792;-0.6703765
11:59:50:421;11:59:50:336;0.038307227;10.821792;-0.6703765
11:59:50:429;11:59:50:336;0.038307227;10.821792;-0.6703765
11:59:50:437;11:59:50:336;0.038307227;10.821792;-0.6703765
11:59:50:445;11:59:50:441;0.30645782;10.630256;-0.21068975
11:59:50:453;11:59:50:441;0.30645782;10.630256;-0.21068975
11:59:50:460;11:59:50:441;0.30645782;10.630256;-0.21068975
11:59:50:468;11:59:50:441;0.30645782;10.630256;-0.21068975
11:59:50:476;11:59:50:441;0.30645782;10.630256;-0.21068975
11:59:50:484;11:59:50:441;0.30645782;10.630256;-0.21068975
11:59:50:492;11:59:50:441;0.30645782;10.630256;-0.21068975
11:59:50:500;11:59:50:441;0.30645782;10.630256;-0.21068975
11:59:50:507;11:59:50:441;0.30645782;10.630256;-0.21068975
11:59:50:515;11:59:50:441;0.30645782;10.630256;-0.21068975
11:59:50:523;11:59:50:441;0.30645782;10.630256;-0.21068975
11:59:50:531;11:59:50:441;0.30645782;10.630256;-0.21068975
11:59:50:539;11:59:50:441;0.30645782;10.630256;-0.21068975
11:59:50:546;11:59:50:441;0.30645782;10.630256;-0.21068975
11:59:50:554;11:59:50:441;0.30645782;10.630256;-0.21068975
11:59:50:562;11:59:50:441;0.30645782;10.630256;-0.21068975
11:59:50:570;11:59:50:441;0.30645782;10.630256;-0.21068975
11:59:50:578;11:59:50:441;0.30645782;10.630256;-0.21068975
11:59:50:585;11:59:50:441;0.30645782;10.630256;-0.21068975
11:59:50:593;11:59:50:441;0.30645782;10.630256;-0.21068975
11:59:50:601;11:59:50:441;0.30645782;10.630256;-0.21068975
11:59:50:609;11:59:50:441;0.30645782;10.630256;-0.21068975
11:59:50:617;11:59:50:441;0.30645782;10.630256;-0.21068975
11:59:50:625;11:59:50:622;-0.38307226;10.0748005;-0.05746084
11:59:50:632;11:59:50:622;-0.38307226;10.0748005;-0.05746084
11:59:50:640;11:59:50:622;-0.38307226;10.0748005;-0.05746084
11:59:50:648;11:59:50:622;-0.38307226;10.0748005;-0.05746084
11:59:50:656;11:59:50:622;-0.38307226;10.0748005;-0.05746084
11:59:50:664;11:59:50:622;-0.38307226;10.0748005;-0.05746084
11:59:50:671;11:59:50:622;-0.38307226;10.0748005;-0.05746084
11:59:50:679;11:59:50:622;-0.38307226;10.0748005;-0.05746084
11:59:50:687;11:59:50:622;-0.38307226;10.0748005;-0.05746084
11:59:50:695;11:59:50:622;-0.38307226;10.0748005;-0.05746084
11:59:50:703;11:59:50:622;-0.38307226;10.0748005;-0.05746084
11:59:50:710;11:59:50:622;-0.38307226;10.0748005;-0.05746084
11:59:50:718;11:59:50:622;-0.38307226;10.0748005;-0.05746084
11:59:50:726;11:59:50:622;-0.38307226;10.0748005;-0.05746084
11:59:50:734;11:59:50:732;-0.5554548;10.630256;-0.11492168
11:59:50:742;11:59:50:732;-0.5554548;10.630256;-0.11492168
11:59:50:750;11:59:50:732;-0.5554548;10.630256;-0.11492168
11:59:50:757;11:59:50:732;-0.5554548;10.630256;-0.11492168
11:59:50:765;11:59:50:732;-0.5554548;10.630256;-0.11492168
11:59:50:773;11:59:50:732;-0.5554548;10.630256;-0.11492168
11:59:50:781;11:59:50:732;-0.5554548;10.630256;-0.11492168
11:59:50:789;11:59:50:732;-0.5554548;10.630256;-0.11492168
11:59:50:796;11:59:50:732;-0.5554548;10.630256;-0.11492168
11:59:50:804;11:59:50:732;-0.5554548;10.630256;-0.11492168
11:59:50:812;11:59:50:732;-0.5554548;10.630256;-0.11492168
11:59:50:820;11:59:50:732;-0.5554548;10.630256;-0.11492168
11:59:50:828;11:59:50:732;-0.5554548;10.630256;-0.11492168
11:59:50:835;11:59:50:732;-0.5554548;10.630256;-0.11492168
11:59:50:843;11:59:50:732;-0.5554548;10.630256;-0.11492168
11:59:50:851;11:59:50:851;-0.17238252;9.710882;0.24899697
11:59:50:859;11:59:50:851;-0.17238252;9.710882;0.24899697
11:59:50:867;11:59:50:851;-0.17238252;9.710882;0.24899697
11:59:50:875;11:59:50:851;-0.17238252;9.710882;0.24899697
11:59:50:882;11:59:50:851;-0.17238252;9.710882;0.24899697
11:59:50:890;11:59:50:851;-0.17238252;9.710882;0.24899697
11:59:50:898;11:59:50:851;-0.17238252;9.710882;0.24899697
11:59:50:906;11:59:50:851;-0.17238252;9.710882;0.24899697
11:59:50:914;11:59:50:851;-0.17238252;9.710882;0.24899697
11:59:50:921;11:59:50:851;-0.17238252;9.710882;0.24899697
11:59:50:929;11:59:50:851;-0.17238252;9.710882;0.24899697
11:59:50:937;11:59:50:851;-0.17238252;9.710882;0.24899697
11:59:50:945;11:59:50:851;-0.17238252;9.710882;0.24899697
11:59:50:953;11:59:50:953;-0.4405331;10.093954;-0.63206923
11:59:50:960;11:59:50:953;-0.4405331;10.093954;-0.63206923
11:59:50:968;11:59:50:953;-0.4405331;10.093954;-0.63206923
11:59:50:976;11:59:50:953;-0.4405331;10.093954;-0.63206923
11:59:50:984;11:59:50:953;-0.4405331;10.093954;-0.63206923
11:59:50:992;11:59:50:953;-0.4405331;10.093954;-0.63206923
11:59:51:000;11:59:50:953;-0.4405331;10.093954;-0.63206923
11:59:51:007;11:59:50:953;-0.4405331;10.093954;-0.63206923
11:59:51:015;11:59:50:953;-0.4405331;10.093954;-0.63206923
11:59:51:023;11:59:50:953;-0.4405331;10.093954;-0.63206923
11:59:51:031;11:59:50:953;-0.4405331;10.093954;-0.63206923
11:59:51:039;11:59:50:953;-0.4405331;10.093954;-0.63206923
11:59:51:046;11:59:50:953;-0.4405331;10.093954;-0.63206923
11:59:51:054;11:59:50:953;-0.4405331;10.093954;-0.63206923
11:59:51:062;11:59:50:953;-0.4405331;10.093954;-0.63206923
11:59:51:070;11:59:50:953;-0.4405331;10.093954;-0.63206923
11:59:51:078;11:59:51:075;-0.80445176;9.749189;0.11492168
11:59:51:085;11:59:51:075;-0.80445176;9.749189;0.11492168
11:59:51:093;11:59:51:075;-0.80445176;9.749189;0.11492168
11:59:51:101;11:59:51:075;-0.80445176;9.749189;0.11492168
11:59:51:109;11:59:51:075;-0.80445176;9.749189;0.11492168
11:59:51:117;11:59:51:075;-0.80445176;9.749189;0.11492168
11:59:51:125;11:59:51:075;-0.80445176;9.749189;0.11492168
11:59:51:132;11:59:51:075;-0.80445176;9.749189;0.11492168
11:59:51:140;11:59:51:075;-0.80445176;9.749189;0.11492168
11:59:51:148;11:59:51:075;-0.80445176;9.749189;0.11492168
11:59:51:156;11:59:51:075;-0.80445176;9.749189;0.11492168
11:59:51:164;11:59:51:075;-0.80445176;9.749189;0.11492168
11:59:51:171;11:59:51:075;-0.80445176;9.749189;0.11492168
11:59:51:179;11:59:51:075;-0.80445176;9.749189;0.11492168
11:59:51:187;11:59:51:075;-0.80445176;9.749189;0.11492168
11:59:51:195;11:59:51:192;0.4405331;10.496181;-0.59376204
11:59:51:203;11:59:51:192;0.4405331;10.496181;-0.59376204
11:59:51:210;11:59:51:192;0.4405331;10.496181;-0.59376204
11:59:51:218;11:59:51:192;0.4405331;10.496181;-0.59376204
11:59:51:226;11:59:51:192;0.4405331;10.496181;-0.59376204
11:59:51:234;11:59:51:192;0.4405331;10.496181;-0.59376204
11:59:51:242;11:59:51:192;0.4405331;10.496181;-0.59376204
11:59:51:250;11:59:51:192;0.4405331;10.496181;-0.59376204
11:59:51:257;11:59:51:192;0.4405331;10.496181;-0.59376204
11:59:51:265;11:59:51:192;0.4405331;10.496181;-0.59376204
11:59:51:273;11:59:51:192;0.4405331;10.496181;-0.59376204
11:59:51:281;11:59:51:192;0.4405331;10.496181;-0.59376204
11:59:51:289;11:59:51:192;0.4405331;10.496181;-0.59376204
11:59:51:296;11:59:51:192;0.4405331;10.496181;-0.59376204
11:59:51:304;11:59:51:192;0.4405331;10.496181;-0.59376204
11:59:51:312;11:59:51:309;-0.6703765;9.672575;0.5363012
11:59:51:320;11:59:51:309;-0.6703765;9.672575;0.5363012
11:59:51:328;11:59:51:309;-0.6703765;9.672575;0.5363012
11:59:51:335;11:59:51:309;-0.6703765;9.672575;0.5363012
11:59:51:343;11:59:51:309;-0.6703765;9.672575;0.5363012
11:59:51:351;11:59:51:309;-0.6703765;9.672575;0.5363012
11:59:51:359;11:59:51:309;-0.6703765;9.672575;0.5363012
11:59:51:367;11:59:51:309;-0.6703765;9.672575;0.5363012
11:59:51:375;11:59:51:309;-0.6703765;9.672575;0.5363012
11:59:51:382;11:59:51:309;-0.6703765;9.672575;0.5363012
11:59:51:390;11:59:51:309;-0.6703765;9.672575;0.5363012
11:59:51:398;11:59:51:309;-0.6703765;9.672575;0.5363012
11:59:51:406;11:59:51:309;-0.6703765;9.672575;0.5363012
11:59:51:414;11:59:51:410;-0.63206923;9.634268;0.24899697
11:59:51:421;11:59:51:410;-0.63206923;9.634268;0.24899697
11:59:51:429;11:59:51:410;-0.63206923;9.634268;0.24899697
11:59:51:437;11:59:51:410;-0.63206923;9.634268;0.24899697
11:59:51:445;11:59:51:410;-0.63206923;9.634268;0.24899697
11:59:51:453;11:59:51:410;-0.63206923;9.634268;0.24899697
11:59:51:460;11:59:51:410;-0.63206923;9.634268;0.24899697
11:59:51:468;11:59:51:410;-0.63206923;9.634268;0.24899697
11:59:51:476;11:59:51:410;-0.63206923;9.634268;0.24899697
11:59:51:484;11:59:51:410;-0.63206923;9.634268;0.24899697
11:59:51:492;11:59:51:410;-0.63206923;9.634268;0.24899697
11:59:51:500;11:59:51:410;-0.63206923;9.634268;0.24899697
11:59:51:507;11:59:51:410;-0.63206923;9.634268;0.24899697
11:59:51:515;11:59:51:410;-0.63206923;9.634268;0.24899697
11:59:51:523;11:59:51:410;-0.63206923;9.634268;0.24899697
11:59:51:531;11:59:51:527;0.21068975;9.615114;0.4405331
11:59:51:539;11:59:51:527;0.21068975;9.615114;0.4405331
11:59:51:546;11:59:51:527;0.21068975;9.615114;0.4405331
11:59:51:554;11:59:51:527;0.21068975;9.615114;0.4405331
11:59:51:562;11:59:51:527;0.21068975;9.615114;0.4405331
11:59:51:570;11:59:51:527;0.21068975;9.615114;0.4405331
11:59:51:578;11:59:51:527;0.21068975;9.615114;0.4405331
11:59:51:585;11:59:51:527;0.21068975;9.615114;0.4405331
11:59:51:593;11:59:51:527;0.21068975;9.615114;0.4405331
11:59:51:601;11:59:51:527;0.21068975;9.615114;0.4405331
11:59:51:609;11:59:51:527;0.21068975;9.615114;0.4405331
11:59:51:617;11:59:51:527;0.21068975;9.615114;0.4405331
11:59:51:625;11:59:51:527;0.21068975;9.615114;0.4405331
11:59:51:632;11:59:51:527;0.21068975;9.615114;0.4405331
11:59:51:640;11:59:51:527;0.21068975;9.615114;0.4405331
11:59:51:648;11:59:51:647;-0.40222588;10.668563;-0.30645782
11:59:51:656;11:59:51:647;-0.40222588;10.668563;-0.30645782
11:59:51:664;11:59:51:647;-0.40222588;10.668563;-0.30645782
11:59:51:671;11:59:51:647;-0.40222588;10.668563;-0.30645782
11:59:51:679;11:59:51:647;-0.40222588;10.668563;-0.30645782
11:59:51:687;11:59:51:647;-0.40222588;10.668563;-0.30645782
11:59:51:695;11:59:51:647;-0.40222588;10.668563;-0.30645782
11:59:51:703;11:59:51:647;-0.40222588;10.668563;-0.30645782
11:59:51:710;11:59:51:647;-0.40222588;10.668563;-0.30645782
11:59:51:718;11:59:51:647;-0.40222588;10.668563;-0.30645782
11:59:51:726;11:59:51:647;-0.40222588;10.668563;-0.30645782
11:59:51:734;11:59:51:647;-0.40222588;10.668563;-0.30645782
11:59:51:742;11:59:51:647;-0.40222588;10.668563;-0.30645782
11:59:51:750;11:59:51:749;0.45968673;10.496181;-0.5363012
11:59:51:757;11:59:51:749;0.45968673;10.496181;-0.5363012
11:59:51:765;11:59:51:749;0.45968673;10.496181;-0.5363012
11:59:51:773;11:59:51:749;0.45968673;10.496181;-0.5363012
11:59:51:781;11:59:51:749;0.45968673;10.496181;-0.5363012
11:59:51:789;11:59:51:749;0.45968673;10.496181;-0.5363012
11:59:51:796;11:59:51:749;0.45968673;10.496181;-0.5363012
11:59:51:804;11:59:51:749;0.45968673;10.496181;-0.5363012
11:59:51:812;11:59:51:749;0.45968673;10.496181;-0.5363012
11:59:51:820;11:59:51:749;0.45968673;10.496181;-0.5363012
11:59:51:828;11:59:51:749;0.45968673;10.496181;-0.5363012
11:59:51:835;11:59:51:749;0.45968673;10.496181;-0.5363012
11:59:51:843;11:59:51:749;0.45968673;10.496181;-0.5363012
11:59:51:851;11:59:51:749;0.45968673;10.496181;-0.5363012
11:59:51:859;11:59:51:852;-0.1340753;10.70687;-0.38307226
11:59:51:867;11:59:51:852;-0.1340753;10.70687;-0.38307226
11:59:51:875;11:59:51:852;-0.1340753;10.70687;-0.38307226
11:59:51:882;11:59:51:852;-0.1340753;10.70687;-0.38307226
11:59:51:890;11:59:51:852;-0.1340753;10.70687;-0.38307226
11:59:51:898;11:59:51:852;-0.1340753;10.70687;-0.38307226
11:59:51:906;11:59:51:852;-0.1340753;10.70687;-0.38307226
11:59:51:914;11:59:51:852;-0.1340753;10.70687;-0.38307226
11:59:51:921;11:59:51:852;-0.1340753;10.70687;-0.38307226
11:59:51:929;11:59:51:852;-0.1340753;10.70687;-0.38307226
11:59:51:937;11:59:51:852;-0.1340753;10.70687;-0.38307226
11:59:51:945;11:59:51:852;-0.1340753;10.70687;-0.38307226
11:59:51:953;11:59:51:852;-0.1340753;10.70687;-0.38307226
11:59:51:960;11:59:51:852;-0.1340753;10.70687;-0.38307226
11:59:51:968;11:59:51:967;-0.78529817;9.691729;0.63206923
11:59:51:976;11:59:51:967;-0.78529817;9.691729;0.63206923
11:59:51:984;11:59:51:967;-0.78529817;9.691729;0.63206923
11:59:51:992;11:59:51:967;-0.78529817;9.691729;0.63206923
11:59:52:000;11:59:51:967;-0.78529817;9.691729;0.63206923
11:59:52:007;11:59:51:967;-0.78529817;9.691729;0.63206923
11:59:52:015;11:59:51:967;-0.78529817;9.691729;0.63206923
11:59:52:023;11:59:51:967;-0.78529817;9.691729;0.63206923
11:59:52:031;11:59:51:967;-0.78529817;9.691729;0.63206923
11:59:52:039;11:59:51:967;-0.78529817;9.691729;0.63206923
11:59:52:046;11:59:51:967;-0.78529817;9.691729;0.63206923
11:59:52:054;11:59:51:967;-0.78529817;9.691729;0.63206923
11:59:52:062;11:59:51:967;-0.78529817;9.691729;0.63206923
11:59:52:070;11:59:51:967;-0.78529817;9.691729;0.63206923
11:59:52:078;11:59:51:967;-0.78529817;9.691729;0.63206923
11:59:52:085;11:59:52:079;-0.5746084;10.821792;-0.36391866
11:59:52:093;11:59:52:079;-0.5746084;10.821792;-0.36391866
11:59:52:101;11:59:52:079;-0.5746084;10.821792;-0.36391866
11:59:52:109;11:59:52:079;-0.5746084;10.821792;-0.36391866
11:59:52:117;11:59:52:079;-0.5746084;10.821792;-0.36391866
11:59:52:125;11:59:52:079;-0.5746084;10.821792;-0.36391866
11:59:52:132;11:59:52:079;-0.5746084;10.821792;-0.36391866
11:59:52:140;11:59:52:079;-0.5746084;10.821792;-0.36391866
11:59:52:148;11:59:52:079;-0.5746084;10.821792;-0.36391866
11:59:52:156;11:59:52:079;-0.5746084;10.821792;-0.36391866
11:59:52:164;11:59:52:079;-0.5746084;10.821792;-0.36391866
11:59:52:171;11:59:52:079;-0.5746084;10.821792;-0.36391866
11:59:52:179;11:59:52:079;-0.5746084;10.821792;-0.36391866
11:59:52:187;11:59:52:079;-0.5746084;10.821792;-0.36391866
11:59:52:195;11:59:52:188;-0.7278373;9.710882;0.51714754
11:59:52:203;11:59:52:188;-0.7278373;9.710882;0.51714754
11:59:52:210;11:59:52:188;-0.7278373;9.710882;0.51714754
11:59:52:218;11:59:52:188;-0.7278373;9.710882;0.51714754
11:59:52:226;11:59:52:188;-0.7278373;9.710882;0.51714754
11:59:52:234;11:59:52:188;-0.7278373;9.710882;0.51714754
11:59:52:242;11:59:52:188;-0.7278373;9.710882;0.51714754
11:59:52:250;11:59:52:188;-0.7278373;9.710882;0.51714754
11:59:52:257;11:59:52:188;-0.7278373;9.710882;0.51714754
11:59:52:265;11:59:52:188;-0.7278373;9.710882;0.51714754
11:59:52:273;11:59:52:188;-0.7278373;9.710882;0.51714754
11:59:52:281;11:59:52:188;-0.7278373;9.710882;0.51714754
11:59:52:289;11:59:52:188;-0.7278373;9.710882;0.51714754
11:59:52:296;11:59:52:293;0.1340753;9.730036;0.019153614
11:59:52:304;11:59:52:293;0.1340753;9.730036;0.019153614
11:59:52:312;11:59:52:293;0.1340753;9.730036;0.019153614
11:59:52:320;11:59:52:293;0.1340753;9.730036;0.019153614
11:59:52:328;11:59:52:293;0.1340753;9.730036;0.019153614
11:59:52:335;11:59:52:293;0.1340753;9.730036;0.019153614
11:59:52:343;11:59:52:293;0.1340753;9.730036;0.019153614
11:59:52:351;11:59:52:293;0.1340753;9.730036;0.019153614
11:59:52:359;11:59:52:293;0.1340753;9.730036;0.019153614
11:59:52:367;11:59:52:293;0.1340753;9.730036;0.019153614
11:59:52:375;11:59:52:293;0.1340753;9.730036;0.019153614
11:59:52:382;11:59:52:293;0.1340753;9.730036;0.019153614
11:59:52:390;11:59:52:293;0.1340753;9.730036;0.019153614
11:59:52:398;11:59:52:293;0.1340753;9.730036;0.019153614
11:59:52:406;11:59:52:405;-0.6703765;10.6877165;-0.34476504
11:59:52:414;11:59:52:405;-0.6703765;10.6877165;-0.34476504
