Time_Accel;AccelX;AccelY;AccelZ
10:42:56:985;0.2873042;10.093954;0.15322891
10:42:56:985;0.2873042;10.093954;0.15322891
10:42:56:985;0.2873042;10.093954;0.15322891
10:42:56:985;0.2873042;10.093954;0.15322891
10:42:56:985;0.2873042;10.093954;0.15322891
10:42:56:985;0.2873042;10.093954;0.15322891
10:42:56:985;0.2873042;10.093954;0.15322891
10:42:56:985;0.2873042;10.093954;0.15322891
10:42:56:985;0.2873042;10.093954;0.15322891
10:42:56:985;0.2873042;10.093954;0.15322891
10:42:56:985;0.2873042;10.093954;0.15322891
10:42:56:985;0.2873042;10.093954;0.15322891
10:42:57:097;0.15322891;10.093954;0.11492168
10:42:57:097;0.15322891;10.093954;0.11492168
10:42:57:097;0.15322891;10.093954;0.11492168
10:42:57:097;0.15322891;10.093954;0.11492168
10:42:57:097;0.15322891;10.093954;0.11492168
10:42:57:097;0.15322891;10.093954;0.11492168
10:42:57:097;0.15322891;10.093954;0.11492168
10:42:57:097;0.15322891;10.093954;0.11492168
10:42:57:097;0.15322891;10.093954;0.11492168
10:42:57:097;0.15322891;10.093954;0.11492168
10:42:57:097;0.15322891;10.093954;0.11492168
10:42:57:097;0.15322891;10.093954;0.11492168
10:42:57:097;0.15322891;10.093954;0.11492168
10:42:57:097;0.15322891;10.093954;0.11492168
10:42:57:097;0.15322891;10.093954;0.11492168
10:42:57:216;0.22984336;9.921572;0.15322891
10:42:57:216;0.22984336;9.921572;0.15322891
10:42:57:216;0.22984336;9.921572;0.15322891
10:42:57:216;0.22984336;9.921572;0.15322891
10:42:57:216;0.22984336;9.921572;0.15322891
10:42:57:216;0.22984336;9.921572;0.15322891
10:42:57:216;0.22984336;9.921572;0.15322891
10:42:57:216;0.22984336;9.921572;0.15322891
10:42:57:216;0.22984336;9.921572;0.15322891
10:42:57:216;0.22984336;9.921572;0.15322891
10:42:57:216;0.22984336;9.921572;0.15322891
10:42:57:216;0.22984336;9.921572;0.15322891
10:42:57:216;0.22984336;9.921572;0.15322891
10:42:57:216;0.22984336;9.921572;0.15322891
10:42:57:216;0.22984336;9.921572;0.15322891
10:42:57:333;0.24899697;10.113108;0.05746084
10:42:57:333;0.24899697;10.113108;0.05746084
10:42:57:333;0.24899697;10.113108;0.05746084
10:42:57:333;0.24899697;10.113108;0.05746084
10:42:57:333;0.24899697;10.113108;0.05746084
10:42:57:333;0.24899697;10.113108;0.05746084
10:42:57:333;0.24899697;10.113108;0.05746084
10:42:57:333;0.24899697;10.113108;0.05746084
10:42:57:333;0.24899697;10.113108;0.05746084
10:42:57:333;0.24899697;10.113108;0.05746084
10:42:57:333;0.24899697;10.113108;0.05746084
10:42:57:333;0.24899697;10.113108;0.05746084
10:42:57:333;0.24899697;10.113108;0.05746084
10:42:57:333;0.24899697;10.113108;0.05746084
10:42:57:333;0.24899697;10.113108;0.05746084
10:42:57:450;0.19153613;9.864111;0.038307227
10:42:57:450;0.19153613;9.864111;0.038307227
10:42:57:450;0.19153613;9.864111;0.038307227
10:42:57:450;0.19153613;9.864111;0.038307227
10:42:57:450;0.19153613;9.864111;0.038307227
10:42:57:450;0.19153613;9.864111;0.038307227
10:42:57:450;0.19153613;9.864111;0.038307227
10:42:57:450;0.19153613;9.864111;0.038307227
10:42:57:450;0.19153613;9.864111;0.038307227
10:42:57:450;0.19153613;9.864111;0.038307227
10:42:57:450;0.19153613;9.864111;0.038307227
10:42:57:450;0.19153613;9.864111;0.038307227
10:42:57:450;0.19153613;9.864111;0.038307227
10:42:57:552;0.21068975;10.01734;0.11492168
10:42:57:552;0.21068975;10.01734;0.11492168
10:42:57:552;0.21068975;10.01734;0.11492168
10:42:57:552;0.21068975;10.01734;0.11492168
10:42:57:552;0.21068975;10.01734;0.11492168
10:42:57:552;0.21068975;10.01734;0.11492168
10:42:57:552;0.21068975;10.01734;0.11492168
10:42:57:552;0.21068975;10.01734;0.11492168
10:42:57:552;0.21068975;10.01734;0.11492168
10:42:57:552;0.21068975;10.01734;0.11492168
10:42:57:552;0.21068975;10.01734;0.11492168
10:42:57:552;0.21068975;10.01734;0.11492168
10:42:57:552;0.21068975;10.01734;0.11492168
10:42:57:552;0.21068975;10.01734;0.11492168
10:42:57:552;0.21068975;10.01734;0.11492168
10:42:57:552;0.21068975;10.01734;0.11492168
10:42:57:675;0.15322891;10.01734;0.17238252
10:42:57:675;0.15322891;10.01734;0.17238252
10:42:57:675;0.15322891;10.01734;0.17238252
10:42:57:675;0.15322891;10.01734;0.17238252
10:42:57:675;0.15322891;10.01734;0.17238252
10:42:57:675;0.15322891;10.01734;0.17238252
10:42:57:675;0.15322891;10.01734;0.17238252
10:42:57:675;0.15322891;10.01734;0.17238252
10:42:57:675;0.15322891;10.01734;0.17238252
10:42:57:675;0.15322891;10.01734;0.17238252
10:42:57:675;0.15322891;10.01734;0.17238252
10:42:57:675;0.15322891;10.01734;0.17238252
10:42:57:675;0.15322891;10.01734;0.17238252
10:42:57:675;0.15322891;10.01734;0.17238252
10:42:57:675;0.15322891;10.01734;0.17238252
10:42:57:793;0.19153613;10.0748005;0.019153614
10:42:57:793;0.19153613;10.0748005;0.019153614
10:42:57:793;0.19153613;10.0748005;0.019153614
10:42:57:793;0.19153613;10.0748005;0.019153614
10:42:57:793;0.19153613;10.0748005;0.019153614
10:42:57:793;0.19153613;10.0748005;0.019153614
10:42:57:793;0.19153613;10.0748005;0.019153614
10:42:57:793;0.19153613;10.0748005;0.019153614
10:42:57:793;0.19153613;10.0748005;0.019153614
10:42:57:793;0.19153613;10.0748005;0.019153614
10:42:57:793;0.19153613;10.0748005;0.019153614
10:42:57:793;0.19153613;10.0748005;0.019153614
10:42:57:793;0.19153613;10.0748005;0.019153614
10:42:57:793;0.19153613;10.0748005;0.019153614
10:42:57:793;0.19153613;10.0748005;0.019153614
10:42:57:911;0.19153613;10.0748005;0.05746084
10:42:57:911;0.19153613;10.0748005;0.05746084
10:42:57:911;0.19153613;10.0748005;0.05746084
10:42:57:911;0.19153613;10.0748005;0.05746084
10:42:57:911;0.19153613;10.0748005;0.05746084
10:42:57:911;0.19153613;10.0748005;0.05746084
10:42:57:911;0.19153613;10.0748005;0.05746084
10:42:57:911;0.19153613;10.0748005;0.05746084
10:42:57:911;0.19153613;10.0748005;0.05746084
10:42:57:911;0.19153613;10.0748005;0.05746084
10:42:57:911;0.19153613;10.0748005;0.05746084
10:42:57:911;0.19153613;10.0748005;0.05746084
10:42:57:911;0.19153613;10.0748005;0.05746084
10:42:57:911;0.19153613;10.0748005;0.05746084
10:42:57:911;0.19153613;10.0748005;0.05746084
10:42:58:030;0.21068975;10.113108;0.11492168
10:42:58:030;0.21068975;10.113108;0.11492168
10:42:58:030;0.21068975;10.113108;0.11492168
10:42:58:030;0.21068975;10.113108;0.11492168
10:42:58:030;0.21068975;10.113108;0.11492168
10:42:58:030;0.21068975;10.113108;0.11492168
10:42:58:030;0.21068975;10.113108;0.11492168
10:42:58:030;0.21068975;10.113108;0.11492168
10:42:58:030;0.21068975;10.113108;0.11492168
10:42:58:030;0.21068975;10.113108;0.11492168
10:42:58:030;0.21068975;10.113108;0.11492168
10:42:58:030;0.21068975;10.113108;0.11492168
10:42:58:030;0.21068975;10.113108;0.11492168
10:42:58:030;0.21068975;10.113108;0.11492168
10:42:58:030;0.21068975;10.113108;0.11492168
10:42:58:148;0.15322891;9.921572;0.095768064
10:42:58:148;0.15322891;9.921572;0.095768064
10:42:58:148;0.15322891;9.921572;0.095768064
10:42:58:148;0.15322891;9.921572;0.095768064
10:42:58:148;0.15322891;9.921572;0.095768064
10:42:58:148;0.15322891;9.921572;0.095768064
10:42:58:148;0.15322891;9.921572;0.095768064
10:42:58:148;0.15322891;9.921572;0.095768064
10:42:58:148;0.15322891;9.921572;0.095768064
10:42:58:148;0.15322891;9.921572;0.095768064
10:42:58:148;0.15322891;9.921572;0.095768064
10:42:58:148;0.15322891;9.921572;0.095768064
10:42:58:148;0.15322891;9.921572;0.095768064
10:42:58:148;0.15322891;9.921572;0.095768064
10:42:58:148;0.15322891;9.921572;0.095768064
10:42:58:148;0.15322891;9.921572;0.095768064
10:42:58:268;0.24899697;10.036493;0.1340753
10:42:58:268;0.24899697;10.036493;0.1340753
10:42:58:268;0.24899697;10.036493;0.1340753
10:42:58:268;0.24899697;10.036493;0.1340753
10:42:58:268;0.24899697;10.036493;0.1340753
10:42:58:268;0.24899697;10.036493;0.1340753
10:42:58:268;0.24899697;10.036493;0.1340753
10:42:58:268;0.24899697;10.036493;0.1340753
10:42:58:268;0.24899697;10.036493;0.1340753
10:42:58:268;0.24899697;10.036493;0.1340753
10:42:58:268;0.24899697;10.036493;0.1340753
10:42:58:268;0.24899697;10.036493;0.1340753
10:42:58:268;0.24899697;10.036493;0.1340753
10:42:58:268;0.24899697;10.036493;0.1340753
10:42:58:268;0.24899697;10.036493;0.1340753
10:42:58:387;0.17238252;9.959879;0.15322891
10:42:58:387;0.17238252;9.959879;0.15322891
10:42:58:387;0.17238252;9.959879;0.15322891
10:42:58:387;0.17238252;9.959879;0.15322891
10:42:58:387;0.17238252;9.959879;0.15322891
10:42:58:387;0.17238252;9.959879;0.15322891
10:42:58:387;0.17238252;9.959879;0.15322891
10:42:58:387;0.17238252;9.959879;0.15322891
10:42:58:387;0.17238252;9.959879;0.15322891
10:42:58:387;0.17238252;9.959879;0.15322891
10:42:58:387;0.17238252;9.959879;0.15322891
10:42:58:387;0.17238252;9.959879;0.15322891
10:42:58:387;0.17238252;9.959879;0.15322891
10:42:58:387;0.17238252;9.959879;0.15322891
10:42:58:387;0.17238252;9.959879;0.15322891
10:42:58:502;0.2873042;10.151415;0.076614454
10:42:58:502;0.2873042;10.151415;0.076614454
10:42:58:502;0.2873042;10.151415;0.076614454
10:42:58:502;0.2873042;10.151415;0.076614454
10:42:58:502;0.2873042;10.151415;0.076614454
10:42:58:502;0.2873042;10.151415;0.076614454
10:42:58:502;0.2873042;10.151415;0.076614454
10:42:58:502;0.2873042;10.151415;0.076614454
10:42:58:502;0.2873042;10.151415;0.076614454
10:42:58:502;0.2873042;10.151415;0.076614454
10:42:58:502;0.2873042;10.151415;0.076614454
10:42:58:502;0.2873042;10.151415;0.076614454
10:42:58:502;0.2873042;10.151415;0.076614454
10:42:58:502;0.2873042;10.151415;0.076614454
10:42:58:502;0.2873042;10.151415;0.076614454
10:42:58:619;0.17238252;9.902418;0.095768064
10:42:58:619;0.17238252;9.902418;0.095768064
10:42:58:619;0.17238252;9.902418;0.095768064
10:42:58:619;0.17238252;9.902418;0.095768064
10:42:58:619;0.17238252;9.902418;0.095768064
10:42:58:619;0.17238252;9.902418;0.095768064
10:42:58:619;0.17238252;9.902418;0.095768064
10:42:58:619;0.17238252;9.902418;0.095768064
10:42:58:619;0.17238252;9.902418;0.095768064
10:42:58:619;0.17238252;9.902418;0.095768064
10:42:58:619;0.17238252;9.902418;0.095768064
10:42:58:619;0.17238252;9.902418;0.095768064
10:42:58:619;0.17238252;9.902418;0.095768064
10:42:58:619;0.17238252;9.902418;0.095768064
10:42:58:619;0.17238252;9.902418;0.095768064
10:42:58:739;0.24899697;9.9790325;0.076614454
10:42:58:739;0.24899697;9.9790325;0.076614454
10:42:58:739;0.24899697;9.9790325;0.076614454
10:42:58:739;0.24899697;9.9790325;0.076614454
10:42:58:739;0.24899697;9.9790325;0.076614454
10:42:58:739;0.24899697;9.9790325;0.076614454
10:42:58:739;0.24899697;9.9790325;0.076614454
10:42:58:739;0.24899697;9.9790325;0.076614454
10:42:58:739;0.24899697;9.9790325;0.076614454
10:42:58:739;0.24899697;9.9790325;0.076614454
10:42:58:739;0.24899697;9.9790325;0.076614454
10:42:58:739;0.24899697;9.9790325;0.076614454
10:42:58:739;0.24899697;9.9790325;0.076614454
10:42:58:739;0.24899697;9.9790325;0.076614454
10:42:58:739;0.24899697;9.9790325;0.076614454
10:42:58:739;0.24899697;9.9790325;0.076614454
10:42:58:739;0.24899697;9.9790325;0.076614454
10:42:58:739;0.24899697;9.9790325;0.076614454
10:42:58:879;0.21068975;10.093954;0.038307227
10:42:58:879;0.21068975;10.093954;0.038307227
10:42:58:879;0.21068975;10.093954;0.038307227
10:42:58:879;0.21068975;10.093954;0.038307227
10:42:58:879;0.21068975;10.093954;0.038307227
10:42:58:879;0.21068975;10.093954;0.038307227
10:42:58:879;0.21068975;10.093954;0.038307227
10:42:58:879;0.21068975;10.093954;0.038307227
10:42:58:879;0.21068975;10.093954;0.038307227
10:42:58:879;0.21068975;10.093954;0.038307227
10:42:58:879;0.21068975;10.093954;0.038307227
10:42:58:879;0.21068975;10.093954;0.038307227
10:42:58:879;0.21068975;10.093954;0.038307227
10:42:58:879;0.21068975;10.093954;0.038307227
10:42:58:989;0.15322891;9.998186;0.076614454
10:42:58:989;0.15322891;9.998186;0.076614454
10:42:58:989;0.15322891;9.998186;0.076614454
10:42:58:989;0.15322891;9.998186;0.076614454
10:42:58:989;0.15322891;9.998186;0.076614454
10:42:58:989;0.15322891;9.998186;0.076614454
10:42:58:989;0.15322891;9.998186;0.076614454
10:42:58:989;0.15322891;9.998186;0.076614454
10:42:58:989;0.15322891;9.998186;0.076614454
10:42:58:989;0.15322891;9.998186;0.076614454
10:42:58:989;0.15322891;9.998186;0.076614454
10:42:58:989;0.15322891;9.998186;0.076614454
10:42:58:989;0.15322891;9.998186;0.076614454
10:42:58:989;0.15322891;9.998186;0.076614454
10:42:58:989;0.15322891;9.998186;0.076614454
10:42:58:989;0.15322891;9.998186;0.076614454
10:42:58:989;0.15322891;9.998186;0.076614454
10:42:59:120;0.19153613;9.902418;0.05746084
10:42:59:120;0.19153613;9.902418;0.05746084
10:42:59:120;0.19153613;9.902418;0.05746084
10:42:59:120;0.19153613;9.902418;0.05746084
10:42:59:120;0.19153613;9.902418;0.05746084
10:42:59:120;0.19153613;9.902418;0.05746084
10:42:59:120;0.19153613;9.902418;0.05746084
10:42:59:120;0.19153613;9.902418;0.05746084
10:42:59:120;0.19153613;9.902418;0.05746084
10:42:59:120;0.19153613;9.902418;0.05746084
10:42:59:120;0.19153613;9.902418;0.05746084
10:42:59:120;0.19153613;9.902418;0.05746084
10:42:59:120;0.19153613;9.902418;0.05746084
10:42:59:120;0.19153613;9.902418;0.05746084
10:42:59:232;0.2873042;9.921572;0.05746084
10:42:59:232;0.2873042;9.921572;0.05746084
10:42:59:232;0.2873042;9.921572;0.05746084
10:42:59:232;0.2873042;9.921572;0.05746084
10:42:59:232;0.2873042;9.921572;0.05746084
10:42:59:232;0.2873042;9.921572;0.05746084
10:42:59:232;0.2873042;9.921572;0.05746084
10:42:59:232;0.2873042;9.921572;0.05746084
10:42:59:232;0.2873042;9.921572;0.05746084
10:42:59:232;0.2873042;9.921572;0.05746084
10:42:59:232;0.2873042;9.921572;0.05746084
10:42:59:232;0.2873042;9.921572;0.05746084
10:42:59:232;0.2873042;9.921572;0.05746084
10:42:59:232;0.2873042;9.921572;0.05746084
10:42:59:232;0.2873042;9.921572;0.05746084
10:42:59:232;0.2873042;9.921572;0.05746084
10:42:59:232;0.2873042;9.921572;0.05746084
10:42:59:232;0.2873042;9.921572;0.05746084
10:42:59:232;0.2873042;9.921572;0.05746084
10:42:59:232;0.2873042;9.921572;0.05746084
10:42:59:232;0.2873042;9.921572;0.05746084
10:42:59:232;0.2873042;9.921572;0.05746084
10:42:59:232;0.2873042;9.921572;0.05746084
10:42:59:232;0.2873042;9.921572;0.05746084
10:42:59:232;0.2873042;9.921572;0.05746084
10:42:59:427;0.15322891;9.998186;0.30645782
10:42:59:427;0.15322891;9.998186;0.30645782
10:42:59:427;0.15322891;9.998186;0.30645782
10:42:59:427;0.15322891;9.998186;0.30645782
10:42:59:427;0.15322891;9.998186;0.30645782
10:42:59:427;0.15322891;9.998186;0.30645782
10:42:59:427;0.15322891;9.998186;0.30645782
10:42:59:427;0.15322891;9.998186;0.30645782
10:42:59:427;0.15322891;9.998186;0.30645782
10:42:59:427;0.15322891;9.998186;0.30645782
10:42:59:427;0.15322891;9.998186;0.30645782
10:42:59:427;0.15322891;9.998186;0.30645782
10:42:59:427;0.15322891;9.998186;0.30645782
10:42:59:530;0.24899697;9.883265;0.019153614
10:42:59:530;0.24899697;9.883265;0.019153614
10:42:59:530;0.24899697;9.883265;0.019153614
10:42:59:530;0.24899697;9.883265;0.019153614
10:42:59:530;0.24899697;9.883265;0.019153614
10:42:59:530;0.24899697;9.883265;0.019153614
10:42:59:530;0.24899697;9.883265;0.019153614
10:42:59:530;0.24899697;9.883265;0.019153614
10:42:59:530;0.24899697;9.883265;0.019153614
10:42:59:530;0.24899697;9.883265;0.019153614
10:42:59:530;0.24899697;9.883265;0.019153614
10:42:59:530;0.24899697;9.883265;0.019153614
10:42:59:530;0.24899697;9.883265;0.019153614
10:42:59:530;0.24899697;9.883265;0.019153614
10:42:59:635;0.17238252;10.036493;0.19153613
10:42:59:635;0.17238252;10.036493;0.19153613
10:42:59:635;0.17238252;10.036493;0.19153613
10:42:59:635;0.17238252;10.036493;0.19153613
10:42:59:635;0.17238252;10.036493;0.19153613
10:42:59:635;0.17238252;10.036493;0.19153613
10:42:59:635;0.17238252;10.036493;0.19153613
10:42:59:635;0.17238252;10.036493;0.19153613
10:42:59:635;0.17238252;10.036493;0.19153613
10:42:59:635;0.17238252;10.036493;0.19153613
10:42:59:635;0.17238252;10.036493;0.19153613
10:42:59:635;0.17238252;10.036493;0.19153613
10:42:59:635;0.17238252;10.036493;0.19153613
10:42:59:635;0.17238252;10.036493;0.19153613
10:42:59:743;0.15322891;9.998186;0.11492168
10:42:59:743;0.15322891;9.998186;0.11492168
10:42:59:743;0.15322891;9.998186;0.11492168
10:42:59:743;0.15322891;9.998186;0.11492168
10:42:59:743;0.15322891;9.998186;0.11492168
10:42:59:743;0.15322891;9.998186;0.11492168
10:42:59:743;0.15322891;9.998186;0.11492168
10:42:59:743;0.15322891;9.998186;0.11492168
10:42:59:743;0.15322891;9.998186;0.11492168
10:42:59:743;0.15322891;9.998186;0.11492168
10:42:59:743;0.15322891;9.998186;0.11492168
10:42:59:743;0.15322891;9.998186;0.11492168
10:42:59:743;0.15322891;9.998186;0.11492168
10:42:59:743;0.15322891;9.998186;0.11492168
10:42:59:743;0.15322891;9.998186;0.11492168
10:42:59:860;0.19153613;9.998186;0.05746084
10:42:59:860;0.19153613;9.998186;0.05746084
10:42:59:860;0.19153613;9.998186;0.05746084
10:42:59:860;0.19153613;9.998186;0.05746084
10:42:59:860;0.19153613;9.998186;0.05746084
10:42:59:860;0.19153613;9.998186;0.05746084
10:42:59:860;0.19153613;9.998186;0.05746084
10:42:59:860;0.19153613;9.998186;0.05746084
10:42:59:860;0.19153613;9.998186;0.05746084
10:42:59:860;0.19153613;9.998186;0.05746084
10:42:59:860;0.19153613;9.998186;0.05746084
10:42:59:860;0.19153613;9.998186;0.05746084
10:42:59:860;0.19153613;9.998186;0.05746084
10:42:59:860;0.19153613;9.998186;0.05746084
10:42:59:860;0.19153613;9.998186;0.05746084
10:42:59:980;0.21068975;10.055647;0.05746084
10:42:59:980;0.21068975;10.055647;0.05746084
10:42:59:980;0.21068975;10.055647;0.05746084
10:42:59:980;0.21068975;10.055647;0.05746084
10:42:59:980;0.21068975;10.055647;0.05746084
10:42:59:980;0.21068975;10.055647;0.05746084
10:42:59:980;0.21068975;10.055647;0.05746084
10:42:59:980;0.21068975;10.055647;0.05746084
10:42:59:980;0.21068975;10.055647;0.05746084
10:42:59:980;0.21068975;10.055647;0.05746084
10:42:59:980;0.21068975;10.055647;0.05746084
10:42:59:980;0.21068975;10.055647;0.05746084
10:42:59:980;0.21068975;10.055647;0.05746084
10:42:59:980;0.21068975;10.055647;0.05746084
10:42:59:980;0.21068975;10.055647;0.05746084
10:43:00:098;0.21068975;10.0748005;0.11492168
10:43:00:098;0.21068975;10.0748005;0.11492168
10:43:00:098;0.21068975;10.0748005;0.11492168
10:43:00:098;0.21068975;10.0748005;0.11492168
10:43:00:098;0.21068975;10.0748005;0.11492168
10:43:00:098;0.21068975;10.0748005;0.11492168
10:43:00:098;0.21068975;10.0748005;0.11492168
10:43:00:098;0.21068975;10.0748005;0.11492168
10:43:00:098;0.21068975;10.0748005;0.11492168
10:43:00:098;0.21068975;10.0748005;0.11492168
10:43:00:098;0.21068975;10.0748005;0.11492168
10:43:00:098;0.21068975;10.0748005;0.11492168
10:43:00:098;0.21068975;10.0748005;0.11492168
10:43:00:098;0.21068975;10.0748005;0.11492168
10:43:00:098;0.21068975;10.0748005;0.11492168
10:43:00:098;0.21068975;10.0748005;0.11492168
10:43:00:098;0.21068975;10.0748005;0.11492168
10:43:00:098;0.21068975;10.0748005;0.11492168
10:43:00:098;0.21068975;10.0748005;0.11492168
10:43:00:098;0.21068975;10.0748005;0.11492168
10:43:00:098;0.21068975;10.0748005;0.11492168
10:43:00:258;0.19153613;9.883265;0.15322891
10:43:00:258;0.19153613;9.883265;0.15322891
10:43:00:258;0.19153613;9.883265;0.15322891
10:43:00:258;0.19153613;9.883265;0.15322891
10:43:00:258;0.19153613;9.883265;0.15322891
10:43:00:258;0.19153613;9.883265;0.15322891
10:43:00:258;0.19153613;9.883265;0.15322891
10:43:00:258;0.19153613;9.883265;0.15322891
10:43:00:258;0.19153613;9.883265;0.15322891
10:43:00:258;0.19153613;9.883265;0.15322891
10:43:00:258;0.19153613;9.883265;0.15322891
10:43:00:258;0.19153613;9.883265;0.15322891
10:43:00:258;0.19153613;9.883265;0.15322891
10:43:00:362;0.17238252;9.9790325;0.15322891
10:43:00:362;0.17238252;9.9790325;0.15322891
10:43:00:362;0.17238252;9.9790325;0.15322891
10:43:00:362;0.17238252;9.9790325;0.15322891
10:43:00:362;0.17238252;9.9790325;0.15322891
10:43:00:362;0.17238252;9.9790325;0.15322891
10:43:00:362;0.17238252;9.9790325;0.15322891
10:43:00:362;0.17238252;9.9790325;0.15322891
10:43:00:362;0.17238252;9.9790325;0.15322891
10:43:00:362;0.17238252;9.9790325;0.15322891
10:43:00:362;0.17238252;9.9790325;0.15322891
10:43:00:362;0.17238252;9.9790325;0.15322891
10:43:00:362;0.17238252;9.9790325;0.15322891
10:43:00:362;0.17238252;9.9790325;0.15322891
10:43:00:362;0.17238252;9.9790325;0.15322891
10:43:00:362;0.17238252;9.9790325;0.15322891
10:43:00:486;0.2873042;10.036493;0.019153614
10:43:00:486;0.2873042;10.036493;0.019153614
10:43:00:486;0.2873042;10.036493;0.019153614
10:43:00:486;0.2873042;10.036493;0.019153614
10:43:00:486;0.2873042;10.036493;0.019153614
10:43:00:486;0.2873042;10.036493;0.019153614
10:43:00:486;0.2873042;10.036493;0.019153614
10:43:00:486;0.2873042;10.036493;0.019153614
10:43:00:486;0.2873042;10.036493;0.019153614
10:43:00:486;0.2873042;10.036493;0.019153614
10:43:00:486;0.2873042;10.036493;0.019153614
10:43:00:486;0.2873042;10.036493;0.019153614
10:43:00:486;0.2873042;10.036493;0.019153614
10:43:00:486;0.2873042;10.036493;0.019153614
10:43:00:600;0.2681506;10.036493;0.21068975
10:43:00:600;0.2681506;10.036493;0.21068975
10:43:00:600;0.2681506;10.036493;0.21068975
10:43:00:600;0.2681506;10.036493;0.21068975
10:43:00:600;0.2681506;10.036493;0.21068975
10:43:00:600;0.2681506;10.036493;0.21068975
10:43:00:600;0.2681506;10.036493;0.21068975
10:43:00:600;0.2681506;10.036493;0.21068975
10:43:00:600;0.2681506;10.036493;0.21068975
10:43:00:600;0.2681506;10.036493;0.21068975
10:43:00:600;0.2681506;10.036493;0.21068975
10:43:00:600;0.2681506;10.036493;0.21068975
10:43:00:600;0.2681506;10.036493;0.21068975
10:43:00:600;0.2681506;10.036493;0.21068975
10:43:00:704;0.21068975;9.998186;0.019153614
10:43:00:704;0.21068975;9.998186;0.019153614
10:43:00:704;0.21068975;9.998186;0.019153614
10:43:00:704;0.21068975;9.998186;0.019153614
10:43:00:704;0.21068975;9.998186;0.019153614
10:43:00:704;0.21068975;9.998186;0.019153614
10:43:00:704;0.21068975;9.998186;0.019153614
10:43:00:704;0.21068975;9.998186;0.019153614
10:43:00:704;0.21068975;9.998186;0.019153614
10:43:00:704;0.21068975;9.998186;0.019153614
10:43:00:704;0.21068975;9.998186;0.019153614
10:43:00:704;0.21068975;9.998186;0.019153614
10:43:00:704;0.21068975;9.998186;0.019153614
10:43:00:810;0.24899697;9.9790325;0.21068975
10:43:00:810;0.24899697;9.9790325;0.21068975
10:43:00:810;0.24899697;9.9790325;0.21068975
10:43:00:810;0.24899697;9.9790325;0.21068975
10:43:00:810;0.24899697;9.9790325;0.21068975
10:43:00:810;0.24899697;9.9790325;0.21068975
10:43:00:810;0.24899697;9.9790325;0.21068975
10:43:00:810;0.24899697;9.9790325;0.21068975
10:43:00:810;0.24899697;9.9790325;0.21068975
10:43:00:810;0.24899697;9.9790325;0.21068975
10:43:00:810;0.24899697;9.9790325;0.21068975
10:43:00:810;0.24899697;9.9790325;0.21068975
10:43:00:810;0.24899697;9.9790325;0.21068975
10:43:00:911;0.17238252;10.170568;-0.019153614
10:43:00:911;0.17238252;10.170568;-0.019153614
10:43:00:911;0.17238252;10.170568;-0.019153614
10:43:00:911;0.17238252;10.170568;-0.019153614
10:43:00:911;0.17238252;10.170568;-0.019153614
10:43:00:911;0.17238252;10.170568;-0.019153614
10:43:00:911;0.17238252;10.170568;-0.019153614
10:43:00:911;0.17238252;10.170568;-0.019153614
10:43:00:911;0.17238252;10.170568;-0.019153614
10:43:00:911;0.17238252;10.170568;-0.019153614
10:43:00:911;0.17238252;10.170568;-0.019153614
10:43:00:911;0.17238252;10.170568;-0.019153614
10:43:00:911;0.17238252;10.170568;-0.019153614
10:43:00:911;0.17238252;10.170568;-0.019153614
10:43:00:911;0.17238252;10.170568;-0.019153614
10:43:01:028;0.21068975;10.113108;0.11492168
10:43:01:028;0.21068975;10.113108;0.11492168
10:43:01:028;0.21068975;10.113108;0.11492168
10:43:01:028;0.21068975;10.113108;0.11492168
10:43:01:028;0.21068975;10.113108;0.11492168
10:43:01:028;0.21068975;10.113108;0.11492168
10:43:01:028;0.21068975;10.113108;0.11492168
10:43:01:028;0.21068975;10.113108;0.11492168
10:43:01:028;0.21068975;10.113108;0.11492168
10:43:01:028;0.21068975;10.113108;0.11492168
10:43:01:028;0.21068975;10.113108;0.11492168
10:43:01:028;0.21068975;10.113108;0.11492168
10:43:01:028;0.21068975;10.113108;0.11492168
10:43:01:028;0.21068975;10.113108;0.11492168
10:43:01:028;0.21068975;10.113108;0.11492168
10:43:01:145;0.17238252;10.036493;0.11492168
10:43:01:145;0.17238252;10.036493;0.11492168
10:43:01:145;0.17238252;10.036493;0.11492168
10:43:01:145;0.17238252;10.036493;0.11492168
10:43:01:145;0.17238252;10.036493;0.11492168
10:43:01:145;0.17238252;10.036493;0.11492168
10:43:01:145;0.17238252;10.036493;0.11492168
10:43:01:145;0.17238252;10.036493;0.11492168
10:43:01:145;0.17238252;10.036493;0.11492168
10:43:01:145;0.17238252;10.036493;0.11492168
10:43:01:145;0.17238252;10.036493;0.11492168
10:43:01:145;0.17238252;10.036493;0.11492168
10:43:01:145;0.17238252;10.036493;0.11492168
10:43:01:145;0.17238252;10.036493;0.11492168
10:43:01:145;0.17238252;10.036493;0.11492168
10:43:01:263;0.076614454;9.998186;0.019153614
10:43:01:263;0.076614454;9.998186;0.019153614
10:43:01:263;0.076614454;9.998186;0.019153614
10:43:01:263;0.076614454;9.998186;0.019153614
10:43:01:263;0.076614454;9.998186;0.019153614
10:43:01:263;0.076614454;9.998186;0.019153614
10:43:01:263;0.076614454;9.998186;0.019153614
10:43:01:263;0.076614454;9.998186;0.019153614
10:43:01:263;0.076614454;9.998186;0.019153614
10:43:01:263;0.076614454;9.998186;0.019153614
10:43:01:263;0.076614454;9.998186;0.019153614
10:43:01:263;0.076614454;9.998186;0.019153614
10:43:01:263;0.076614454;9.998186;0.019153614
10:43:01:263;0.076614454;9.998186;0.019153614
10:43:01:263;0.076614454;9.998186;0.019153614
10:43:01:382;0.19153613;9.902418;0.15322891
10:43:01:382;0.19153613;9.902418;0.15322891
10:43:01:382;0.19153613;9.902418;0.15322891
10:43:01:382;0.19153613;9.902418;0.15322891
10:43:01:382;0.19153613;9.902418;0.15322891
10:43:01:382;0.19153613;9.902418;0.15322891
10:43:01:382;0.19153613;9.902418;0.15322891
10:43:01:382;0.19153613;9.902418;0.15322891
10:43:01:382;0.19153613;9.902418;0.15322891
10:43:01:382;0.19153613;9.902418;0.15322891
10:43:01:382;0.19153613;9.902418;0.15322891
10:43:01:382;0.19153613;9.902418;0.15322891
10:43:01:382;0.19153613;9.902418;0.15322891
10:43:01:382;0.19153613;9.902418;0.15322891
10:43:01:382;0.19153613;9.902418;0.15322891
10:43:01:382;0.19153613;9.902418;0.15322891
10:43:01:502;0.22984336;10.055647;0.076614454
10:43:01:502;0.22984336;10.055647;0.076614454
10:43:01:502;0.22984336;10.055647;0.076614454
10:43:01:502;0.22984336;10.055647;0.076614454
10:43:01:502;0.22984336;10.055647;0.076614454
10:43:01:502;0.22984336;10.055647;0.076614454
10:43:01:502;0.22984336;10.055647;0.076614454
10:43:01:502;0.22984336;10.055647;0.076614454
10:43:01:502;0.22984336;10.055647;0.076614454
10:43:01:502;0.22984336;10.055647;0.076614454
10:43:01:502;0.22984336;10.055647;0.076614454
10:43:01:502;0.22984336;10.055647;0.076614454
10:43:01:502;0.22984336;10.055647;0.076614454
10:43:01:605;0.22984336;9.940725;0.1340753
10:43:01:605;0.22984336;9.940725;0.1340753
10:43:01:605;0.22984336;9.940725;0.1340753
10:43:01:605;0.22984336;9.940725;0.1340753
10:43:01:605;0.22984336;9.940725;0.1340753
10:43:01:605;0.22984336;9.940725;0.1340753
10:43:01:605;0.22984336;9.940725;0.1340753
10:43:01:605;0.22984336;9.940725;0.1340753
10:43:01:605;0.22984336;9.940725;0.1340753
10:43:01:605;0.22984336;9.940725;0.1340753
10:43:01:605;0.22984336;9.940725;0.1340753
10:43:01:605;0.22984336;9.940725;0.1340753
10:43:01:605;0.22984336;9.940725;0.1340753
10:43:01:605;0.22984336;9.940725;0.1340753
10:43:01:605;0.22984336;9.940725;0.1340753
10:43:01:720;0.19153613;9.959879;0.019153614
10:43:01:720;0.19153613;9.959879;0.019153614
10:43:01:720;0.19153613;9.959879;0.019153614
10:43:01:720;0.19153613;9.959879;0.019153614
10:43:01:720;0.19153613;9.959879;0.019153614
10:43:01:720;0.19153613;9.959879;0.019153614
10:43:01:720;0.19153613;9.959879;0.019153614
10:43:01:720;0.19153613;9.959879;0.019153614
10:43:01:720;0.19153613;9.959879;0.019153614
10:43:01:720;0.19153613;9.959879;0.019153614
10:43:01:720;0.19153613;9.959879;0.019153614
10:43:01:720;0.19153613;9.959879;0.019153614
10:43:01:720;0.19153613;9.959879;0.019153614
10:43:01:720;0.19153613;9.959879;0.019153614
10:43:01:720;0.19153613;9.959879;0.019153614
10:43:01:841;0.2873042;9.998186;0.05746084
10:43:01:841;0.2873042;9.998186;0.05746084
10:43:01:841;0.2873042;9.998186;0.05746084
10:43:01:841;0.2873042;9.998186;0.05746084
10:43:01:841;0.2873042;9.998186;0.05746084
10:43:01:841;0.2873042;9.998186;0.05746084
10:43:01:841;0.2873042;9.998186;0.05746084
10:43:01:841;0.2873042;9.998186;0.05746084
10:43:01:841;0.2873042;9.998186;0.05746084
10:43:01:841;0.2873042;9.998186;0.05746084
10:43:01:841;0.2873042;9.998186;0.05746084
10:43:01:841;0.2873042;9.998186;0.05746084
10:43:01:841;0.2873042;9.998186;0.05746084
10:43:01:841;0.2873042;9.998186;0.05746084
10:43:01:841;0.2873042;9.998186;0.05746084
10:43:01:957;0.17238252;9.921572;0.1340753
10:43:01:957;0.17238252;9.921572;0.1340753
10:43:01:957;0.17238252;9.921572;0.1340753
10:43:01:957;0.17238252;9.921572;0.1340753
10:43:01:957;0.17238252;9.921572;0.1340753
10:43:01:957;0.17238252;9.921572;0.1340753
10:43:01:957;0.17238252;9.921572;0.1340753
10:43:01:957;0.17238252;9.921572;0.1340753
10:43:01:957;0.17238252;9.921572;0.1340753
10:43:01:957;0.17238252;9.921572;0.1340753
10:43:01:957;0.17238252;9.921572;0.1340753
10:43:01:957;0.17238252;9.921572;0.1340753
10:43:01:957;0.17238252;9.921572;0.1340753
10:43:01:957;0.17238252;9.921572;0.1340753
10:43:01:957;0.17238252;9.921572;0.1340753
10:43:02:075;0.1340753;9.998186;0.076614454
10:43:02:075;0.1340753;9.998186;0.076614454
10:43:02:075;0.1340753;9.998186;0.076614454
10:43:02:075;0.1340753;9.998186;0.076614454
10:43:02:075;0.1340753;9.998186;0.076614454
10:43:02:075;0.1340753;9.998186;0.076614454
10:43:02:075;0.1340753;9.998186;0.076614454
10:43:02:075;0.1340753;9.998186;0.076614454
10:43:02:075;0.1340753;9.998186;0.076614454
10:43:02:075;0.1340753;9.998186;0.076614454
10:43:02:075;0.1340753;9.998186;0.076614454
10:43:02:075;0.1340753;9.998186;0.076614454
10:43:02:075;0.1340753;9.998186;0.076614454
10:43:02:075;0.1340753;9.998186;0.076614454
10:43:02:075;0.1340753;9.998186;0.076614454
10:43:02:194;0.2681506;9.921572;0.17238252
10:43:02:194;0.2681506;9.921572;0.17238252
10:43:02:194;0.2681506;9.921572;0.17238252
10:43:02:194;0.2681506;9.921572;0.17238252
10:43:02:194;0.2681506;9.921572;0.17238252
10:43:02:194;0.2681506;9.921572;0.17238252
10:43:02:194;0.2681506;9.921572;0.17238252
10:43:02:194;0.2681506;9.921572;0.17238252
10:43:02:194;0.2681506;9.921572;0.17238252
10:43:02:194;0.2681506;9.921572;0.17238252
10:43:02:194;0.2681506;9.921572;0.17238252
10:43:02:194;0.2681506;9.921572;0.17238252
10:43:02:194;0.2681506;9.921572;0.17238252
10:43:02:194;0.2681506;9.921572;0.17238252
10:43:02:194;0.2681506;9.921572;0.17238252
10:43:02:310;0.2681506;9.902418;0.019153614
10:43:02:310;0.2681506;9.902418;0.019153614
10:43:02:310;0.2681506;9.902418;0.019153614
10:43:02:310;0.2681506;9.902418;0.019153614
10:43:02:310;0.2681506;9.902418;0.019153614
10:43:02:310;0.2681506;9.902418;0.019153614
10:43:02:310;0.2681506;9.902418;0.019153614
10:43:02:310;0.2681506;9.902418;0.019153614
10:43:02:310;0.2681506;9.902418;0.019153614
10:43:02:310;0.2681506;9.902418;0.019153614
10:43:02:310;0.2681506;9.902418;0.019153614
10:43:02:310;0.2681506;9.902418;0.019153614
10:43:02:310;0.2681506;9.902418;0.019153614
10:43:02:310;0.2681506;9.902418;0.019153614
10:43:02:310;0.2681506;9.902418;0.019153614
10:43:02:423;0.24899697;9.9790325;0.15322891
10:43:02:423;0.24899697;9.9790325;0.15322891
10:43:02:423;0.24899697;9.9790325;0.15322891
10:43:02:423;0.24899697;9.9790325;0.15322891
10:43:02:423;0.24899697;9.9790325;0.15322891
10:43:02:423;0.24899697;9.9790325;0.15322891
10:43:02:423;0.24899697;9.9790325;0.15322891
10:43:02:423;0.24899697;9.9790325;0.15322891
10:43:02:423;0.24899697;9.9790325;0.15322891
10:43:02:423;0.24899697;9.9790325;0.15322891
10:43:02:423;0.24899697;9.9790325;0.15322891
10:43:02:423;0.24899697;9.9790325;0.15322891
10:43:02:423;0.24899697;9.9790325;0.15322891
10:43:02:423;0.24899697;9.9790325;0.15322891
10:43:02:423;0.24899697;9.9790325;0.15322891
10:43:02:540;0.21068975;9.902418;0.1340753
10:43:02:540;0.21068975;9.902418;0.1340753
10:43:02:540;0.21068975;9.902418;0.1340753
10:43:02:540;0.21068975;9.902418;0.1340753
10:43:02:540;0.21068975;9.902418;0.1340753
10:43:02:540;0.21068975;9.902418;0.1340753
10:43:02:540;0.21068975;9.902418;0.1340753
10:43:02:540;0.21068975;9.902418;0.1340753
10:43:02:540;0.21068975;9.902418;0.1340753
10:43:02:540;0.21068975;9.902418;0.1340753
10:43:02:540;0.21068975;9.902418;0.1340753
10:43:02:540;0.21068975;9.902418;0.1340753
10:43:02:540;0.21068975;9.902418;0.1340753
10:43:02:645;0.21068975;10.0748005;0.11492168
10:43:02:645;0.21068975;10.0748005;0.11492168
10:43:02:645;0.21068975;10.0748005;0.11492168
10:43:02:645;0.21068975;10.0748005;0.11492168
10:43:02:645;0.21068975;10.0748005;0.11492168
10:43:02:645;0.21068975;10.0748005;0.11492168
10:43:02:645;0.21068975;10.0748005;0.11492168
10:43:02:645;0.21068975;10.0748005;0.11492168
10:43:02:645;0.21068975;10.0748005;0.11492168
10:43:02:645;0.21068975;10.0748005;0.11492168
10:43:02:645;0.21068975;10.0748005;0.11492168
10:43:02:645;0.21068975;10.0748005;0.11492168
10:43:02:645;0.21068975;10.0748005;0.11492168
10:43:02:645;0.21068975;10.0748005;0.11492168
10:43:02:645;0.21068975;10.0748005;0.11492168
10:43:02:645;0.21068975;10.0748005;0.11492168
10:43:02:773;0.19153613;9.940725;0.019153614
10:43:02:773;0.19153613;9.940725;0.019153614
10:43:02:773;0.19153613;9.940725;0.019153614
10:43:02:773;0.19153613;9.940725;0.019153614
10:43:02:773;0.19153613;9.940725;0.019153614
10:43:02:773;0.19153613;9.940725;0.019153614
10:43:02:773;0.19153613;9.940725;0.019153614
10:43:02:773;0.19153613;9.940725;0.019153614
10:43:02:773;0.19153613;9.940725;0.019153614
10:43:02:773;0.19153613;9.940725;0.019153614
10:43:02:773;0.19153613;9.940725;0.019153614
10:43:02:773;0.19153613;9.940725;0.019153614
10:43:02:773;0.19153613;9.940725;0.019153614
10:43:02:773;0.19153613;9.940725;0.019153614
10:43:02:773;0.19153613;9.940725;0.019153614
10:43:02:887;0.19153613;9.9790325;0.05746084
10:43:02:887;0.19153613;9.9790325;0.05746084
10:43:02:887;0.19153613;9.9790325;0.05746084
10:43:02:887;0.19153613;9.9790325;0.05746084
10:43:02:887;0.19153613;9.9790325;0.05746084
10:43:02:887;0.19153613;9.9790325;0.05746084
10:43:02:887;0.19153613;9.9790325;0.05746084
10:43:02:887;0.19153613;9.9790325;0.05746084
10:43:02:887;0.19153613;9.9790325;0.05746084
10:43:02:887;0.19153613;9.9790325;0.05746084
10:43:02:887;0.19153613;9.9790325;0.05746084
10:43:02:887;0.19153613;9.9790325;0.05746084
10:43:02:887;0.19153613;9.9790325;0.05746084
10:43:02:887;0.19153613;9.9790325;0.05746084
10:43:02:887;0.19153613;9.9790325;0.05746084
10:43:03:007;0.24899697;9.998186;0.15322891
10:43:03:007;0.24899697;9.998186;0.15322891
10:43:03:007;0.24899697;9.998186;0.15322891
10:43:03:007;0.24899697;9.998186;0.15322891
10:43:03:007;0.24899697;9.998186;0.15322891
10:43:03:007;0.24899697;9.998186;0.15322891
10:43:03:007;0.24899697;9.998186;0.15322891
10:43:03:007;0.24899697;9.998186;0.15322891
10:43:03:007;0.24899697;9.998186;0.15322891
10:43:03:007;0.24899697;9.998186;0.15322891
10:43:03:007;0.24899697;9.998186;0.15322891
10:43:03:007;0.24899697;9.998186;0.15322891
10:43:03:007;0.24899697;9.998186;0.15322891
10:43:03:007;0.24899697;9.998186;0.15322891
10:43:03:007;0.24899697;9.998186;0.15322891
10:43:03:125;0.1340753;9.998186;-0.038307227
10:43:03:125;0.1340753;9.998186;-0.038307227
10:43:03:125;0.1340753;9.998186;-0.038307227
10:43:03:125;0.1340753;9.998186;-0.038307227
10:43:03:125;0.1340753;9.998186;-0.038307227
10:43:03:125;0.1340753;9.998186;-0.038307227
10:43:03:125;0.1340753;9.998186;-0.038307227
10:43:03:125;0.1340753;9.998186;-0.038307227
10:43:03:125;0.1340753;9.998186;-0.038307227
10:43:03:125;0.1340753;9.998186;-0.038307227
10:43:03:125;0.1340753;9.998186;-0.038307227
10:43:03:125;0.1340753;9.998186;-0.038307227
10:43:03:125;0.1340753;9.998186;-0.038307227
10:43:03:125;0.1340753;9.998186;-0.038307227
10:43:03:125;0.1340753;9.998186;-0.038307227
10:43:03:125;0.1340753;9.998186;-0.038307227
10:43:03:243;0.19153613;10.01734;-0.038307227
10:43:03:243;0.19153613;10.01734;-0.038307227
10:43:03:243;0.19153613;10.01734;-0.038307227
10:43:03:243;0.19153613;10.01734;-0.038307227
10:43:03:243;0.19153613;10.01734;-0.038307227
10:43:03:243;0.19153613;10.01734;-0.038307227
10:43:03:243;0.19153613;10.01734;-0.038307227
10:43:03:243;0.19153613;10.01734;-0.038307227
10:43:03:243;0.19153613;10.01734;-0.038307227
10:43:03:243;0.19153613;10.01734;-0.038307227
10:43:03:243;0.19153613;10.01734;-0.038307227
10:43:03:243;0.19153613;10.01734;-0.038307227
10:43:03:243;0.19153613;10.01734;-0.038307227
10:43:03:243;0.19153613;10.01734;-0.038307227
10:43:03:355;0.17238252;9.998186;0.17238252
10:43:03:355;0.17238252;9.998186;0.17238252
10:43:03:355;0.17238252;9.998186;0.17238252
10:43:03:355;0.17238252;9.998186;0.17238252
10:43:03:355;0.17238252;9.998186;0.17238252
10:43:03:355;0.17238252;9.998186;0.17238252
10:43:03:355;0.17238252;9.998186;0.17238252
10:43:03:355;0.17238252;9.998186;0.17238252
10:43:03:355;0.17238252;9.998186;0.17238252
10:43:03:355;0.17238252;9.998186;0.17238252
10:43:03:355;0.17238252;9.998186;0.17238252
10:43:03:355;0.17238252;9.998186;0.17238252
10:43:03:355;0.17238252;9.998186;0.17238252
10:43:03:458;0.22984336;9.940725;-0.038307227
10:43:03:458;0.22984336;9.940725;-0.038307227
10:43:03:458;0.22984336;9.940725;-0.038307227
10:43:03:458;0.22984336;9.940725;-0.038307227
10:43:03:458;0.22984336;9.940725;-0.038307227
10:43:03:458;0.22984336;9.940725;-0.038307227
10:43:03:458;0.22984336;9.940725;-0.038307227
10:43:03:458;0.22984336;9.940725;-0.038307227
10:43:03:458;0.22984336;9.940725;-0.038307227
10:43:03:458;0.22984336;9.940725;-0.038307227
10:43:03:458;0.22984336;9.940725;-0.038307227
10:43:03:458;0.22984336;9.940725;-0.038307227
10:43:03:458;0.22984336;9.940725;-0.038307227
10:43:03:558;0.1340753;10.036493;-0.038307227
10:43:03:558;0.1340753;10.036493;-0.038307227
10:43:03:558;0.1340753;10.036493;-0.038307227
10:43:03:558;0.1340753;10.036493;-0.038307227
10:43:03:558;0.1340753;10.036493;-0.038307227
10:43:03:558;0.1340753;10.036493;-0.038307227
10:43:03:558;0.1340753;10.036493;-0.038307227
10:43:03:558;0.1340753;10.036493;-0.038307227
10:43:03:558;0.1340753;10.036493;-0.038307227
10:43:03:558;0.1340753;10.036493;-0.038307227
10:43:03:558;0.1340753;10.036493;-0.038307227
10:43:03:558;0.1340753;10.036493;-0.038307227
10:43:03:558;0.1340753;10.036493;-0.038307227
10:43:03:663;0.019153614;10.036493;0.095768064
10:43:03:663;0.019153614;10.036493;0.095768064
10:43:03:663;0.019153614;10.036493;0.095768064
10:43:03:663;0.019153614;10.036493;0.095768064
10:43:03:663;0.019153614;10.036493;0.095768064
10:43:03:663;0.019153614;10.036493;0.095768064
10:43:03:663;0.019153614;10.036493;0.095768064
10:43:03:663;0.019153614;10.036493;0.095768064
10:43:03:663;0.019153614;10.036493;0.095768064
10:43:03:663;0.019153614;10.036493;0.095768064
10:43:03:663;0.019153614;10.036493;0.095768064
10:43:03:663;0.019153614;10.036493;0.095768064
10:43:03:663;0.019153614;10.036493;0.095768064
10:43:03:663;0.019153614;10.036493;0.095768064
10:43:03:663;0.019153614;10.036493;0.095768064
10:43:03:663;0.019153614;10.036493;0.095768064
10:43:03:785;0.2873042;9.921572;0.21068975
10:43:03:785;0.2873042;9.921572;0.21068975
10:43:03:785;0.2873042;9.921572;0.21068975
10:43:03:785;0.2873042;9.921572;0.21068975
10:43:03:785;0.2873042;9.921572;0.21068975
10:43:03:785;0.2873042;9.921572;0.21068975
10:43:03:785;0.2873042;9.921572;0.21068975
10:43:03:785;0.2873042;9.921572;0.21068975
10:43:03:785;0.2873042;9.921572;0.21068975
10:43:03:785;0.2873042;9.921572;0.21068975
10:43:03:785;0.2873042;9.921572;0.21068975
10:43:03:785;0.2873042;9.921572;0.21068975
10:43:03:785;0.2873042;9.921572;0.21068975
10:43:03:785;0.2873042;9.921572;0.21068975
10:43:03:785;0.2873042;9.921572;0.21068975
10:43:03:903;0.22984336;9.940725;0.17238252
10:43:03:903;0.22984336;9.940725;0.17238252
10:43:03:903;0.22984336;9.940725;0.17238252
10:43:03:903;0.22984336;9.940725;0.17238252
10:43:03:903;0.22984336;9.940725;0.17238252
10:43:03:903;0.22984336;9.940725;0.17238252
10:43:03:903;0.22984336;9.940725;0.17238252
10:43:03:903;0.22984336;9.940725;0.17238252
10:43:03:903;0.22984336;9.940725;0.17238252
10:43:03:903;0.22984336;9.940725;0.17238252
10:43:03:903;0.22984336;9.940725;0.17238252
10:43:03:903;0.22984336;9.940725;0.17238252
10:43:03:903;0.22984336;9.940725;0.17238252
10:43:03:903;0.22984336;9.940725;0.17238252
10:43:03:903;0.22984336;9.940725;0.17238252
10:43:03:903;0.22984336;9.940725;0.17238252
10:43:04:025;0.2681506;9.9790325;-0.038307227
10:43:04:025;0.2681506;9.9790325;-0.038307227
10:43:04:025;0.2681506;9.9790325;-0.038307227
10:43:04:025;0.2681506;9.9790325;-0.038307227
10:43:04:025;0.2681506;9.9790325;-0.038307227
10:43:04:025;0.2681506;9.9790325;-0.038307227
10:43:04:025;0.2681506;9.9790325;-0.038307227
10:43:04:025;0.2681506;9.9790325;-0.038307227
10:43:04:025;0.2681506;9.9790325;-0.038307227
10:43:04:025;0.2681506;9.9790325;-0.038307227
10:43:04:025;0.2681506;9.9790325;-0.038307227
10:43:04:025;0.2681506;9.9790325;-0.038307227
10:43:04:025;0.2681506;9.9790325;-0.038307227
10:43:04:130;0.19153613;9.864111;0.05746084
10:43:04:130;0.19153613;9.864111;0.05746084
10:43:04:130;0.19153613;9.864111;0.05746084
10:43:04:130;0.19153613;9.864111;0.05746084
10:43:04:130;0.19153613;9.864111;0.05746084
10:43:04:130;0.19153613;9.864111;0.05746084
10:43:04:130;0.19153613;9.864111;0.05746084
10:43:04:130;0.19153613;9.864111;0.05746084
10:43:04:130;0.19153613;9.864111;0.05746084
10:43:04:130;0.19153613;9.864111;0.05746084
10:43:04:130;0.19153613;9.864111;0.05746084
10:43:04:130;0.19153613;9.864111;0.05746084
10:43:04:130;0.19153613;9.864111;0.05746084
10:43:04:130;0.19153613;9.864111;0.05746084
10:43:04:130;0.19153613;9.864111;0.05746084
10:43:04:130;0.19153613;9.864111;0.05746084
10:43:04:251;0.19153613;10.036493;0.076614454
10:43:04:251;0.19153613;10.036493;0.076614454
10:43:04:251;0.19153613;10.036493;0.076614454
10:43:04:251;0.19153613;10.036493;0.076614454
10:43:04:251;0.19153613;10.036493;0.076614454
10:43:04:251;0.19153613;10.036493;0.076614454
10:43:04:251;0.19153613;10.036493;0.076614454
10:43:04:251;0.19153613;10.036493;0.076614454
10:43:04:251;0.19153613;10.036493;0.076614454
10:43:04:251;0.19153613;10.036493;0.076614454
10:43:04:251;0.19153613;10.036493;0.076614454
10:43:04:251;0.19153613;10.036493;0.076614454
10:43:04:251;0.19153613;10.036493;0.076614454
10:43:04:251;0.19153613;10.036493;0.076614454
10:43:04:251;0.19153613;10.036493;0.076614454
10:43:04:369;0.17238252;10.0748005;0.038307227
10:43:04:369;0.17238252;10.0748005;0.038307227
10:43:04:369;0.17238252;10.0748005;0.038307227
10:43:04:369;0.17238252;10.0748005;0.038307227
10:43:04:369;0.17238252;10.0748005;0.038307227
10:43:04:369;0.17238252;10.0748005;0.038307227
10:43:04:369;0.17238252;10.0748005;0.038307227
10:43:04:369;0.17238252;10.0748005;0.038307227
10:43:04:369;0.17238252;10.0748005;0.038307227
10:43:04:369;0.17238252;10.0748005;0.038307227
10:43:04:369;0.17238252;10.0748005;0.038307227
10:43:04:369;0.17238252;10.0748005;0.038307227
10:43:04:369;0.17238252;10.0748005;0.038307227
10:43:04:369;0.17238252;10.0748005;0.038307227
10:43:04:369;0.17238252;10.0748005;0.038307227
10:43:04:485;0.076614454;9.998186;0.05746084
10:43:04:485;0.076614454;9.998186;0.05746084
10:43:04:485;0.076614454;9.998186;0.05746084
10:43:04:485;0.076614454;9.998186;0.05746084
10:43:04:485;0.076614454;9.998186;0.05746084
10:43:04:485;0.076614454;9.998186;0.05746084
10:43:04:485;0.076614454;9.998186;0.05746084
10:43:04:485;0.076614454;9.998186;0.05746084
10:43:04:485;0.076614454;9.998186;0.05746084
10:43:04:485;0.076614454;9.998186;0.05746084
10:43:04:485;0.076614454;9.998186;0.05746084
10:43:04:485;0.076614454;9.998186;0.05746084
10:43:04:485;0.076614454;9.998186;0.05746084
10:43:04:592;0.19153613;10.055647;0.11492168
10:43:04:592;0.19153613;10.055647;0.11492168
10:43:04:592;0.19153613;10.055647;0.11492168
10:43:04:592;0.19153613;10.055647;0.11492168
10:43:04:592;0.19153613;10.055647;0.11492168
10:43:04:592;0.19153613;10.055647;0.11492168
10:43:04:592;0.19153613;10.055647;0.11492168
10:43:04:592;0.19153613;10.055647;0.11492168
10:43:04:592;0.19153613;10.055647;0.11492168
10:43:04:592;0.19153613;10.055647;0.11492168
10:43:04:592;0.19153613;10.055647;0.11492168
10:43:04:592;0.19153613;10.055647;0.11492168
10:43:04:592;0.19153613;10.055647;0.11492168
10:43:04:592;0.19153613;10.055647;0.11492168
10:43:04:698;0.11492168;10.01734;0.15322891
10:43:04:698;0.11492168;10.01734;0.15322891
10:43:04:698;0.11492168;10.01734;0.15322891
10:43:04:698;0.11492168;10.01734;0.15322891
10:43:04:698;0.11492168;10.01734;0.15322891
10:43:04:698;0.11492168;10.01734;0.15322891
10:43:04:698;0.11492168;10.01734;0.15322891
10:43:04:698;0.11492168;10.01734;0.15322891
10:43:04:698;0.11492168;10.01734;0.15322891
10:43:04:698;0.11492168;10.01734;0.15322891
10:43:04:698;0.11492168;10.01734;0.15322891
10:43:04:698;0.11492168;10.01734;0.15322891
10:43:04:698;0.11492168;10.01734;0.15322891
10:43:04:799;0.11492168;10.132261;0.15322891
10:43:04:799;0.11492168;10.132261;0.15322891
10:43:04:799;0.11492168;10.132261;0.15322891
10:43:04:799;0.11492168;10.132261;0.15322891
10:43:04:799;0.11492168;10.132261;0.15322891
10:43:04:799;0.11492168;10.132261;0.15322891
10:43:04:799;0.11492168;10.132261;0.15322891
10:43:04:799;0.11492168;10.132261;0.15322891
10:43:04:799;0.11492168;10.132261;0.15322891
10:43:04:799;0.11492168;10.132261;0.15322891
10:43:04:799;0.11492168;10.132261;0.15322891
10:43:04:799;0.11492168;10.132261;0.15322891
10:43:04:799;0.11492168;10.132261;0.15322891
10:43:04:799;0.11492168;10.132261;0.15322891
10:43:04:914;0.21068975;9.844957;0.076614454
10:43:04:914;0.21068975;9.844957;0.076614454
10:43:04:914;0.21068975;9.844957;0.076614454
10:43:04:914;0.21068975;9.844957;0.076614454
10:43:04:914;0.21068975;9.844957;0.076614454
10:43:04:914;0.21068975;9.844957;0.076614454
10:43:04:914;0.21068975;9.844957;0.076614454
10:43:04:914;0.21068975;9.844957;0.076614454
10:43:04:914;0.21068975;9.844957;0.076614454
10:43:04:914;0.21068975;9.844957;0.076614454
10:43:04:914;0.21068975;9.844957;0.076614454
10:43:04:914;0.21068975;9.844957;0.076614454
10:43:04:914;0.21068975;9.844957;0.076614454
10:43:04:914;0.21068975;9.844957;0.076614454
10:43:04:914;0.21068975;9.844957;0.076614454
10:43:04:914;0.21068975;9.844957;0.076614454
10:43:04:914;0.21068975;9.844957;0.076614454
10:43:05:044;0.11492168;9.959879;0.095768064
10:43:05:044;0.11492168;9.959879;0.095768064
10:43:05:044;0.11492168;9.959879;0.095768064
10:43:05:044;0.11492168;9.959879;0.095768064
10:43:05:044;0.11492168;9.959879;0.095768064
10:43:05:044;0.11492168;9.959879;0.095768064
10:43:05:044;0.11492168;9.959879;0.095768064
10:43:05:044;0.11492168;9.959879;0.095768064
10:43:05:044;0.11492168;9.959879;0.095768064
10:43:05:044;0.11492168;9.959879;0.095768064
10:43:05:044;0.11492168;9.959879;0.095768064
10:43:05:044;0.11492168;9.959879;0.095768064
10:43:05:044;0.11492168;9.959879;0.095768064
10:43:05:044;0.11492168;9.959879;0.095768064
10:43:05:156;0.17238252;10.036493;0.019153614
10:43:05:156;0.17238252;10.036493;0.019153614
10:43:05:156;0.17238252;10.036493;0.019153614
10:43:05:156;0.17238252;10.036493;0.019153614
10:43:05:156;0.17238252;10.036493;0.019153614
10:43:05:156;0.17238252;10.036493;0.019153614
10:43:05:156;0.17238252;10.036493;0.019153614
10:43:05:156;0.17238252;10.036493;0.019153614
10:43:05:156;0.17238252;10.036493;0.019153614
10:43:05:156;0.17238252;10.036493;0.019153614
10:43:05:156;0.17238252;10.036493;0.019153614
10:43:05:156;0.17238252;10.036493;0.019153614
10:43:05:156;0.17238252;10.036493;0.019153614
10:43:05:156;0.17238252;10.036493;0.019153614
10:43:05:156;0.17238252;10.036493;0.019153614
10:43:05:156;0.17238252;10.036493;0.019153614
10:43:05:156;0.17238252;10.036493;0.019153614
10:43:05:156;0.17238252;10.036493;0.019153614
10:43:05:156;0.17238252;10.036493;0.019153614
10:43:05:156;0.17238252;10.036493;0.019153614
10:43:05:156;0.17238252;10.036493;0.019153614
10:43:05:156;0.17238252;10.036493;0.019153614
10:43:05:156;0.17238252;10.036493;0.019153614
10:43:05:156;0.17238252;10.036493;0.019153614
10:43:05:156;0.17238252;10.036493;0.019153614
10:43:05:156;0.17238252;10.036493;0.019153614
10:43:05:156;0.17238252;10.036493;0.019153614
10:43:05:360;0.19153613;9.921572;0.1340753
10:43:05:360;0.19153613;9.921572;0.1340753
10:43:05:360;0.19153613;9.921572;0.1340753
10:43:05:360;0.19153613;9.921572;0.1340753
10:43:05:360;0.19153613;9.921572;0.1340753
10:43:05:360;0.19153613;9.921572;0.1340753
10:43:05:360;0.19153613;9.921572;0.1340753
10:43:05:360;0.19153613;9.921572;0.1340753
10:43:05:360;0.19153613;9.921572;0.1340753
10:43:05:360;0.19153613;9.921572;0.1340753
10:43:05:360;0.19153613;9.921572;0.1340753
10:43:05:360;0.19153613;9.921572;0.1340753
10:43:05:360;0.19153613;9.921572;0.1340753
10:43:05:360;0.19153613;9.921572;0.1340753
10:43:05:474;0.2873042;9.940725;0.05746084
10:43:05:474;0.2873042;9.940725;0.05746084
10:43:05:474;0.2873042;9.940725;0.05746084
10:43:05:474;0.2873042;9.940725;0.05746084
10:43:05:474;0.2873042;9.940725;0.05746084
10:43:05:474;0.2873042;9.940725;0.05746084
10:43:05:474;0.2873042;9.940725;0.05746084
10:43:05:474;0.2873042;9.940725;0.05746084
10:43:05:474;0.2873042;9.940725;0.05746084
10:43:05:474;0.2873042;9.940725;0.05746084
10:43:05:474;0.2873042;9.940725;0.05746084
10:43:05:474;0.2873042;9.940725;0.05746084
10:43:05:474;0.2873042;9.940725;0.05746084
10:43:05:474;0.2873042;9.940725;0.05746084
10:43:05:583;0.30645782;10.093954;0.05746084
10:43:05:583;0.30645782;10.093954;0.05746084
10:43:05:583;0.30645782;10.093954;0.05746084
10:43:05:583;0.30645782;10.093954;0.05746084
10:43:05:583;0.30645782;10.093954;0.05746084
10:43:05:583;0.30645782;10.093954;0.05746084
10:43:05:583;0.30645782;10.093954;0.05746084
10:43:05:583;0.30645782;10.093954;0.05746084
10:43:05:583;0.30645782;10.093954;0.05746084
10:43:05:583;0.30645782;10.093954;0.05746084
10:43:05:583;0.30645782;10.093954;0.05746084
10:43:05:583;0.30645782;10.093954;0.05746084
10:43:05:583;0.30645782;10.093954;0.05746084
10:43:05:583;0.30645782;10.093954;0.05746084
10:43:05:583;0.30645782;10.093954;0.05746084
10:43:05:702;0.19153613;10.113108;0.076614454
10:43:05:702;0.19153613;10.113108;0.076614454
10:43:05:702;0.19153613;10.113108;0.076614454
10:43:05:702;0.19153613;10.113108;0.076614454
10:43:05:702;0.19153613;10.113108;0.076614454
10:43:05:702;0.19153613;10.113108;0.076614454
10:43:05:702;0.19153613;10.113108;0.076614454
10:43:05:702;0.19153613;10.113108;0.076614454
10:43:05:702;0.19153613;10.113108;0.076614454
10:43:05:702;0.19153613;10.113108;0.076614454
10:43:05:702;0.19153613;10.113108;0.076614454
10:43:05:702;0.19153613;10.113108;0.076614454
10:43:05:702;0.19153613;10.113108;0.076614454
10:43:05:702;0.19153613;10.113108;0.076614454
10:43:05:702;0.19153613;10.113108;0.076614454
10:43:05:820;0.1340753;9.9790325;-0.095768064
10:43:05:820;0.1340753;9.9790325;-0.095768064
10:43:05:820;0.1340753;9.9790325;-0.095768064
10:43:05:820;0.1340753;9.9790325;-0.095768064
10:43:05:820;0.1340753;9.9790325;-0.095768064
10:43:05:820;0.1340753;9.9790325;-0.095768064
10:43:05:820;0.1340753;9.9790325;-0.095768064
10:43:05:820;0.1340753;9.9790325;-0.095768064
10:43:05:820;0.1340753;9.9790325;-0.095768064
10:43:05:820;0.1340753;9.9790325;-0.095768064
10:43:05:820;0.1340753;9.9790325;-0.095768064
10:43:05:820;0.1340753;9.9790325;-0.095768064
10:43:05:820;0.1340753;9.9790325;-0.095768064
10:43:05:820;0.1340753;9.9790325;-0.095768064
10:43:05:820;0.1340753;9.9790325;-0.095768064
10:43:05:820;0.1340753;9.9790325;-0.095768064
10:43:05:939;0.19153613;9.921572;0.076614454
10:43:05:939;0.19153613;9.921572;0.076614454
10:43:05:939;0.19153613;9.921572;0.076614454
10:43:05:939;0.19153613;9.921572;0.076614454
10:43:05:939;0.19153613;9.921572;0.076614454
10:43:05:939;0.19153613;9.921572;0.076614454
10:43:05:939;0.19153613;9.921572;0.076614454
10:43:05:939;0.19153613;9.921572;0.076614454
10:43:05:939;0.19153613;9.921572;0.076614454
10:43:05:939;0.19153613;9.921572;0.076614454
10:43:05:939;0.19153613;9.921572;0.076614454
10:43:05:939;0.19153613;9.921572;0.076614454
10:43:05:939;0.19153613;9.921572;0.076614454
10:43:06:045;0.21068975;10.055647;0.095768064
10:43:06:045;0.21068975;10.055647;0.095768064
10:43:06:045;0.21068975;10.055647;0.095768064
10:43:06:045;0.21068975;10.055647;0.095768064
10:43:06:045;0.21068975;10.055647;0.095768064
10:43:06:045;0.21068975;10.055647;0.095768064
10:43:06:045;0.21068975;10.055647;0.095768064
10:43:06:045;0.21068975;10.055647;0.095768064
10:43:06:045;0.21068975;10.055647;0.095768064
10:43:06:045;0.21068975;10.055647;0.095768064
10:43:06:045;0.21068975;10.055647;0.095768064
10:43:06:045;0.21068975;10.055647;0.095768064
10:43:06:045;0.21068975;10.055647;0.095768064
10:43:06:045;0.21068975;10.055647;0.095768064
10:43:06:045;0.21068975;10.055647;0.095768064
10:43:06:162;0.05746084;10.01734;0.095768064
10:43:06:162;0.05746084;10.01734;0.095768064
10:43:06:162;0.05746084;10.01734;0.095768064
10:43:06:162;0.05746084;10.01734;0.095768064
10:43:06:162;0.05746084;10.01734;0.095768064
10:43:06:162;0.05746084;10.01734;0.095768064
10:43:06:162;0.05746084;10.01734;0.095768064
10:43:06:162;0.05746084;10.01734;0.095768064
10:43:06:162;0.05746084;10.01734;0.095768064
10:43:06:162;0.05746084;10.01734;0.095768064
10:43:06:162;0.05746084;10.01734;0.095768064
10:43:06:162;0.05746084;10.01734;0.095768064
10:43:06:162;0.05746084;10.01734;0.095768064
10:43:06:265;0.21068975;9.921572;-0.05746084
10:43:06:265;0.21068975;9.921572;-0.05746084
10:43:06:265;0.21068975;9.921572;-0.05746084
10:43:06:265;0.21068975;9.921572;-0.05746084
10:43:06:265;0.21068975;9.921572;-0.05746084
10:43:06:265;0.21068975;9.921572;-0.05746084
10:43:06:265;0.21068975;9.921572;-0.05746084
10:43:06:265;0.21068975;9.921572;-0.05746084
10:43:06:265;0.21068975;9.921572;-0.05746084
10:43:06:265;0.21068975;9.921572;-0.05746084
10:43:06:265;0.21068975;9.921572;-0.05746084
10:43:06:265;0.21068975;9.921572;-0.05746084
10:43:06:265;0.21068975;9.921572;-0.05746084
10:43:06:265;0.21068975;9.921572;-0.05746084
10:43:06:265;0.21068975;9.921572;-0.05746084
10:43:06:265;0.21068975;9.921572;-0.05746084
10:43:06:384;0.19153613;9.998186;0.076614454
10:43:06:384;0.19153613;9.998186;0.076614454
10:43:06:384;0.19153613;9.998186;0.076614454
10:43:06:384;0.19153613;9.998186;0.076614454
10:43:06:384;0.19153613;9.998186;0.076614454
10:43:06:384;0.19153613;9.998186;0.076614454
10:43:06:384;0.19153613;9.998186;0.076614454
10:43:06:384;0.19153613;9.998186;0.076614454
10:43:06:384;0.19153613;9.998186;0.076614454
10:43:06:384;0.19153613;9.998186;0.076614454
10:43:06:384;0.19153613;9.998186;0.076614454
10:43:06:384;0.19153613;9.998186;0.076614454
10:43:06:384;0.19153613;9.998186;0.076614454
10:43:06:384;0.19153613;9.998186;0.076614454
10:43:06:384;0.19153613;9.998186;0.076614454
10:43:06:503;0.2681506;10.01734;0.038307227
10:43:06:503;0.2681506;10.01734;0.038307227
10:43:06:503;0.2681506;10.01734;0.038307227
10:43:06:503;0.2681506;10.01734;0.038307227
10:43:06:503;0.2681506;10.01734;0.038307227
10:43:06:503;0.2681506;10.01734;0.038307227
10:43:06:503;0.2681506;10.01734;0.038307227
10:43:06:503;0.2681506;10.01734;0.038307227
10:43:06:503;0.2681506;10.01734;0.038307227
10:43:06:503;0.2681506;10.01734;0.038307227
10:43:06:503;0.2681506;10.01734;0.038307227
10:43:06:503;0.2681506;10.01734;0.038307227
10:43:06:503;0.2681506;10.01734;0.038307227
10:43:06:607;0.21068975;9.9790325;0.019153614
10:43:06:607;0.21068975;9.9790325;0.019153614
10:43:06:607;0.21068975;9.9790325;0.019153614
10:43:06:607;0.21068975;9.9790325;0.019153614
10:43:06:607;0.21068975;9.9790325;0.019153614
10:43:06:607;0.21068975;9.9790325;0.019153614
10:43:06:607;0.21068975;9.9790325;0.019153614
10:43:06:607;0.21068975;9.9790325;0.019153614
10:43:06:607;0.21068975;9.9790325;0.019153614
10:43:06:607;0.21068975;9.9790325;0.019153614
10:43:06:607;0.21068975;9.9790325;0.019153614
10:43:06:607;0.21068975;9.9790325;0.019153614
10:43:06:607;0.21068975;9.9790325;0.019153614
10:43:06:710;0.22984336;10.036493;0.076614454
10:43:06:710;0.22984336;10.036493;0.076614454
10:43:06:710;0.22984336;10.036493;0.076614454
10:43:06:710;0.22984336;10.036493;0.076614454
10:43:06:710;0.22984336;10.036493;0.076614454
10:43:06:710;0.22984336;10.036493;0.076614454
10:43:06:710;0.22984336;10.036493;0.076614454
10:43:06:710;0.22984336;10.036493;0.076614454
10:43:06:710;0.22984336;10.036493;0.076614454
10:43:06:710;0.22984336;10.036493;0.076614454
10:43:06:710;0.22984336;10.036493;0.076614454
10:43:06:710;0.22984336;10.036493;0.076614454
10:43:06:710;0.22984336;10.036493;0.076614454
10:43:06:710;0.22984336;10.036493;0.076614454
10:43:06:814;0.24899697;9.902418;0.11492168
10:43:06:814;0.24899697;9.902418;0.11492168
10:43:06:814;0.24899697;9.902418;0.11492168
10:43:06:814;0.24899697;9.902418;0.11492168
10:43:06:814;0.24899697;9.902418;0.11492168
10:43:06:814;0.24899697;9.902418;0.11492168
10:43:06:814;0.24899697;9.902418;0.11492168
10:43:06:814;0.24899697;9.902418;0.11492168
10:43:06:814;0.24899697;9.902418;0.11492168
10:43:06:814;0.24899697;9.902418;0.11492168
10:43:06:814;0.24899697;9.902418;0.11492168
10:43:06:814;0.24899697;9.902418;0.11492168
10:43:06:814;0.24899697;9.902418;0.11492168
10:43:06:814;0.24899697;9.902418;0.11492168
10:43:06:814;0.24899697;9.902418;0.11492168
10:43:06:931;0.2873042;9.959879;0.095768064
10:43:06:931;0.2873042;9.959879;0.095768064
10:43:06:931;0.2873042;9.959879;0.095768064
10:43:06:931;0.2873042;9.959879;0.095768064
10:43:06:931;0.2873042;9.959879;0.095768064
10:43:06:931;0.2873042;9.959879;0.095768064
10:43:06:931;0.2873042;9.959879;0.095768064
10:43:06:931;0.2873042;9.959879;0.095768064
10:43:06:931;0.2873042;9.959879;0.095768064
10:43:06:931;0.2873042;9.959879;0.095768064
10:43:06:931;0.2873042;9.959879;0.095768064
10:43:06:931;0.2873042;9.959879;0.095768064
10:43:06:931;0.2873042;9.959879;0.095768064
10:43:06:931;0.2873042;9.959879;0.095768064
10:43:06:931;0.2873042;9.959879;0.095768064
10:43:06:931;0.2873042;9.959879;0.095768064
10:43:07:061;0.11492168;9.902418;0.019153614
10:43:07:061;0.11492168;9.902418;0.019153614
10:43:07:061;0.11492168;9.902418;0.019153614
10:43:07:061;0.11492168;9.902418;0.019153614
10:43:07:061;0.11492168;9.902418;0.019153614
10:43:07:061;0.11492168;9.902418;0.019153614
10:43:07:061;0.11492168;9.902418;0.019153614
10:43:07:061;0.11492168;9.902418;0.019153614
10:43:07:061;0.11492168;9.902418;0.019153614
10:43:07:061;0.11492168;9.902418;0.019153614
10:43:07:061;0.11492168;9.902418;0.019153614
10:43:07:061;0.11492168;9.902418;0.019153614
10:43:07:061;0.11492168;9.902418;0.019153614
10:43:07:061;0.11492168;9.902418;0.019153614
10:43:07:165;0.2873042;10.036493;0.05746084
10:43:07:165;0.2873042;10.036493;0.05746084
10:43:07:165;0.2873042;10.036493;0.05746084
10:43:07:165;0.2873042;10.036493;0.05746084
10:43:07:165;0.2873042;10.036493;0.05746084
10:43:07:165;0.2873042;10.036493;0.05746084
10:43:07:165;0.2873042;10.036493;0.05746084
10:43:07:165;0.2873042;10.036493;0.05746084
10:43:07:165;0.2873042;10.036493;0.05746084
10:43:07:165;0.2873042;10.036493;0.05746084
10:43:07:165;0.2873042;10.036493;0.05746084
10:43:07:165;0.2873042;10.036493;0.05746084
10:43:07:165;0.2873042;10.036493;0.05746084
10:43:07:165;0.2873042;10.036493;0.05746084
10:43:07:165;0.2873042;10.036493;0.05746084
10:43:07:284;0.32561144;10.01734;0.05746084
10:43:07:284;0.32561144;10.01734;0.05746084
10:43:07:284;0.32561144;10.01734;0.05746084
10:43:07:284;0.32561144;10.01734;0.05746084
10:43:07:284;0.32561144;10.01734;0.05746084
10:43:07:284;0.32561144;10.01734;0.05746084
10:43:07:284;0.32561144;10.01734;0.05746084
10:43:07:284;0.32561144;10.01734;0.05746084
10:43:07:284;0.32561144;10.01734;0.05746084
10:43:07:284;0.32561144;10.01734;0.05746084
10:43:07:284;0.32561144;10.01734;0.05746084
10:43:07:284;0.32561144;10.01734;0.05746084
10:43:07:284;0.32561144;10.01734;0.05746084
10:43:07:284;0.32561144;10.01734;0.05746084
10:43:07:284;0.32561144;10.01734;0.05746084
10:43:07:403;0.11492168;9.998186;-0.019153614
10:43:07:403;0.11492168;9.998186;-0.019153614
10:43:07:403;0.11492168;9.998186;-0.019153614
10:43:07:403;0.11492168;9.998186;-0.019153614
10:43:07:403;0.11492168;9.998186;-0.019153614
10:43:07:403;0.11492168;9.998186;-0.019153614
10:43:07:403;0.11492168;9.998186;-0.019153614
10:43:07:403;0.11492168;9.998186;-0.019153614
10:43:07:403;0.11492168;9.998186;-0.019153614
10:43:07:403;0.11492168;9.998186;-0.019153614
10:43:07:403;0.11492168;9.998186;-0.019153614
10:43:07:403;0.11492168;9.998186;-0.019153614
10:43:07:403;0.11492168;9.998186;-0.019153614
10:43:07:403;0.11492168;9.998186;-0.019153614
10:43:07:403;0.11492168;9.998186;-0.019153614
10:43:07:521;0.17238252;10.01734;0.038307227
10:43:07:521;0.17238252;10.01734;0.038307227
10:43:07:521;0.17238252;10.01734;0.038307227
10:43:07:521;0.17238252;10.01734;0.038307227
10:43:07:521;0.17238252;10.01734;0.038307227
10:43:07:521;0.17238252;10.01734;0.038307227
10:43:07:521;0.17238252;10.01734;0.038307227
10:43:07:521;0.17238252;10.01734;0.038307227
10:43:07:521;0.17238252;10.01734;0.038307227
10:43:07:521;0.17238252;10.01734;0.038307227
10:43:07:521;0.17238252;10.01734;0.038307227
10:43:07:521;0.17238252;10.01734;0.038307227
10:43:07:521;0.17238252;10.01734;0.038307227
10:43:07:521;0.17238252;10.01734;0.038307227
10:43:07:628;0.24899697;9.959879;0.076614454
10:43:07:628;0.24899697;9.959879;0.076614454
10:43:07:628;0.24899697;9.959879;0.076614454
10:43:07:628;0.24899697;9.959879;0.076614454
10:43:07:628;0.24899697;9.959879;0.076614454
10:43:07:628;0.24899697;9.959879;0.076614454
10:43:07:628;0.24899697;9.959879;0.076614454
10:43:07:628;0.24899697;9.959879;0.076614454
10:43:07:628;0.24899697;9.959879;0.076614454
10:43:07:628;0.24899697;9.959879;0.076614454
10:43:07:628;0.24899697;9.959879;0.076614454
10:43:07:628;0.24899697;9.959879;0.076614454
10:43:07:628;0.24899697;9.959879;0.076614454
10:43:07:733;0.1340753;10.01734;0.038307227
10:43:07:733;0.1340753;10.01734;0.038307227
10:43:07:733;0.1340753;10.01734;0.038307227
10:43:07:733;0.1340753;10.01734;0.038307227
10:43:07:733;0.1340753;10.01734;0.038307227
10:43:07:733;0.1340753;10.01734;0.038307227
10:43:07:733;0.1340753;10.01734;0.038307227
10:43:07:733;0.1340753;10.01734;0.038307227
10:43:07:733;0.1340753;10.01734;0.038307227
10:43:07:733;0.1340753;10.01734;0.038307227
10:43:07:733;0.1340753;10.01734;0.038307227
10:43:07:733;0.1340753;10.01734;0.038307227
10:43:07:733;0.1340753;10.01734;0.038307227
10:43:07:733;0.1340753;10.01734;0.038307227
10:43:07:733;0.1340753;10.01734;0.038307227
10:43:07:851;0.24899697;10.01734;0.095768064
10:43:07:851;0.24899697;10.01734;0.095768064
10:43:07:851;0.24899697;10.01734;0.095768064
10:43:07:851;0.24899697;10.01734;0.095768064
10:43:07:851;0.24899697;10.01734;0.095768064
10:43:07:851;0.24899697;10.01734;0.095768064
10:43:07:851;0.24899697;10.01734;0.095768064
10:43:07:851;0.24899697;10.01734;0.095768064
10:43:07:851;0.24899697;10.01734;0.095768064
10:43:07:851;0.24899697;10.01734;0.095768064
10:43:07:851;0.24899697;10.01734;0.095768064
10:43:07:851;0.24899697;10.01734;0.095768064
10:43:07:851;0.24899697;10.01734;0.095768064
10:43:07:851;0.24899697;10.01734;0.095768064
10:43:07:958;0.19153613;10.036493;0.1340753
10:43:07:958;0.19153613;10.036493;0.1340753
10:43:07:958;0.19153613;10.036493;0.1340753
10:43:07:958;0.19153613;10.036493;0.1340753
10:43:07:958;0.19153613;10.036493;0.1340753
10:43:07:958;0.19153613;10.036493;0.1340753
10:43:07:958;0.19153613;10.036493;0.1340753
10:43:07:958;0.19153613;10.036493;0.1340753
10:43:07:958;0.19153613;10.036493;0.1340753
10:43:07:958;0.19153613;10.036493;0.1340753
10:43:07:958;0.19153613;10.036493;0.1340753
10:43:07:958;0.19153613;10.036493;0.1340753
10:43:07:958;0.19153613;10.036493;0.1340753
10:43:07:958;0.19153613;10.036493;0.1340753
10:43:07:958;0.19153613;10.036493;0.1340753
10:43:08:076;0.2873042;9.9790325;0.019153614
10:43:08:076;0.2873042;9.9790325;0.019153614
10:43:08:076;0.2873042;9.9790325;0.019153614
10:43:08:076;0.2873042;9.9790325;0.019153614
10:43:08:076;0.2873042;9.9790325;0.019153614
10:43:08:076;0.2873042;9.9790325;0.019153614
10:43:08:076;0.2873042;9.9790325;0.019153614
10:43:08:076;0.2873042;9.9790325;0.019153614
10:43:08:076;0.2873042;9.9790325;0.019153614
10:43:08:076;0.2873042;9.9790325;0.019153614
10:43:08:076;0.2873042;9.9790325;0.019153614
10:43:08:076;0.2873042;9.9790325;0.019153614
10:43:08:076;0.2873042;9.9790325;0.019153614
10:43:08:076;0.2873042;9.9790325;0.019153614
10:43:08:076;0.2873042;9.9790325;0.019153614
10:43:08:194;0.22984336;9.940725;0.095768064
10:43:08:194;0.22984336;9.940725;0.095768064
10:43:08:194;0.22984336;9.940725;0.095768064
10:43:08:194;0.22984336;9.940725;0.095768064
10:43:08:194;0.22984336;9.940725;0.095768064
10:43:08:194;0.22984336;9.940725;0.095768064
10:43:08:194;0.22984336;9.940725;0.095768064
10:43:08:194;0.22984336;9.940725;0.095768064
10:43:08:194;0.22984336;9.940725;0.095768064
10:43:08:194;0.22984336;9.940725;0.095768064
10:43:08:194;0.22984336;9.940725;0.095768064
10:43:08:194;0.22984336;9.940725;0.095768064
10:43:08:194;0.22984336;9.940725;0.095768064
10:43:08:194;0.22984336;9.940725;0.095768064
10:43:08:194;0.22984336;9.940725;0.095768064
10:43:08:194;0.22984336;9.940725;0.095768064
10:43:08:313;0.17238252;10.036493;0.095768064
10:43:08:313;0.17238252;10.036493;0.095768064
10:43:08:313;0.17238252;10.036493;0.095768064
10:43:08:313;0.17238252;10.036493;0.095768064
10:43:08:313;0.17238252;10.036493;0.095768064
10:43:08:313;0.17238252;10.036493;0.095768064
10:43:08:313;0.17238252;10.036493;0.095768064
10:43:08:313;0.17238252;10.036493;0.095768064
10:43:08:313;0.17238252;10.036493;0.095768064
10:43:08:313;0.17238252;10.036493;0.095768064
10:43:08:313;0.17238252;10.036493;0.095768064
10:43:08:313;0.17238252;10.036493;0.095768064
10:43:08:313;0.17238252;10.036493;0.095768064
10:43:08:313;0.17238252;10.036493;0.095768064
10:43:08:428;0.24899697;10.036493;0.2873042
10:43:08:428;0.24899697;10.036493;0.2873042
10:43:08:428;0.24899697;10.036493;0.2873042
10:43:08:428;0.24899697;10.036493;0.2873042
10:43:08:428;0.24899697;10.036493;0.2873042
10:43:08:428;0.24899697;10.036493;0.2873042
10:43:08:428;0.24899697;10.036493;0.2873042
10:43:08:428;0.24899697;10.036493;0.2873042
10:43:08:428;0.24899697;10.036493;0.2873042
10:43:08:428;0.24899697;10.036493;0.2873042
10:43:08:428;0.24899697;10.036493;0.2873042
10:43:08:428;0.24899697;10.036493;0.2873042
10:43:08:428;0.24899697;10.036493;0.2873042
10:43:08:428;0.24899697;10.036493;0.2873042
10:43:08:428;0.24899697;10.036493;0.2873042
10:43:08:540;0.15322891;9.959879;-0.076614454
10:43:08:540;0.15322891;9.959879;-0.076614454
10:43:08:540;0.15322891;9.959879;-0.076614454
10:43:08:540;0.15322891;9.959879;-0.076614454
10:43:08:540;0.15322891;9.959879;-0.076614454
10:43:08:540;0.15322891;9.959879;-0.076614454
10:43:08:540;0.15322891;9.959879;-0.076614454
10:43:08:540;0.15322891;9.959879;-0.076614454
10:43:08:540;0.15322891;9.959879;-0.076614454
10:43:08:540;0.15322891;9.959879;-0.076614454
10:43:08:540;0.15322891;9.959879;-0.076614454
10:43:08:540;0.15322891;9.959879;-0.076614454
10:43:08:540;0.15322891;9.959879;-0.076614454
10:43:08:540;0.15322891;9.959879;-0.076614454
10:43:08:540;0.15322891;9.959879;-0.076614454
10:43:08:658;0.2681506;9.9790325;0.05746084
10:43:08:658;0.2681506;9.9790325;0.05746084
10:43:08:658;0.2681506;9.9790325;0.05746084
10:43:08:658;0.2681506;9.9790325;0.05746084
10:43:08:658;0.2681506;9.9790325;0.05746084
10:43:08:658;0.2681506;9.9790325;0.05746084
10:43:08:658;0.2681506;9.9790325;0.05746084
10:43:08:658;0.2681506;9.9790325;0.05746084
10:43:08:658;0.2681506;9.9790325;0.05746084
10:43:08:658;0.2681506;9.9790325;0.05746084
10:43:08:658;0.2681506;9.9790325;0.05746084
10:43:08:658;0.2681506;9.9790325;0.05746084
10:43:08:658;0.2681506;9.9790325;0.05746084
10:43:08:658;0.2681506;9.9790325;0.05746084
10:43:08:773;0.24899697;9.902418;0.21068975
10:43:08:773;0.24899697;9.902418;0.21068975
10:43:08:773;0.24899697;9.902418;0.21068975
10:43:08:773;0.24899697;9.902418;0.21068975
10:43:08:773;0.24899697;9.902418;0.21068975
10:43:08:773;0.24899697;9.902418;0.21068975
10:43:08:773;0.24899697;9.902418;0.21068975
10:43:08:773;0.24899697;9.902418;0.21068975
10:43:08:773;0.24899697;9.902418;0.21068975
10:43:08:773;0.24899697;9.902418;0.21068975
10:43:08:773;0.24899697;9.902418;0.21068975
10:43:08:773;0.24899697;9.902418;0.21068975
10:43:08:773;0.24899697;9.902418;0.21068975
10:43:08:773;0.24899697;9.902418;0.21068975
10:43:08:773;0.24899697;9.902418;0.21068975
10:43:08:773;0.24899697;9.902418;0.21068975
10:43:08:773;0.24899697;9.902418;0.21068975
10:43:08:773;0.24899697;9.902418;0.21068975
10:43:08:773;0.24899697;9.902418;0.21068975
10:43:08:773;0.24899697;9.902418;0.21068975
10:43:08:773;0.24899697;9.902418;0.21068975
10:43:08:932;0.21068975;9.9790325;0.076614454
10:43:08:932;0.21068975;9.9790325;0.076614454
10:43:08:932;0.21068975;9.9790325;0.076614454
10:43:08:932;0.21068975;9.9790325;0.076614454
10:43:08:932;0.21068975;9.9790325;0.076614454
10:43:08:932;0.21068975;9.9790325;0.076614454
10:43:08:932;0.21068975;9.9790325;0.076614454
10:43:08:932;0.21068975;9.9790325;0.076614454
10:43:08:932;0.21068975;9.9790325;0.076614454
10:43:08:932;0.21068975;9.9790325;0.076614454
10:43:08:932;0.21068975;9.9790325;0.076614454
10:43:08:932;0.21068975;9.9790325;0.076614454
10:43:08:932;0.21068975;9.9790325;0.076614454
10:43:08:932;0.21068975;9.9790325;0.076614454
10:43:09:040;0.19153613;9.9790325;0.21068975
10:43:09:040;0.19153613;9.9790325;0.21068975
10:43:09:040;0.19153613;9.9790325;0.21068975
10:43:09:040;0.19153613;9.9790325;0.21068975
10:43:09:040;0.19153613;9.9790325;0.21068975
10:43:09:040;0.19153613;9.9790325;0.21068975
10:43:09:040;0.19153613;9.9790325;0.21068975
10:43:09:040;0.19153613;9.9790325;0.21068975
10:43:09:040;0.19153613;9.9790325;0.21068975
10:43:09:040;0.19153613;9.9790325;0.21068975
10:43:09:040;0.19153613;9.9790325;0.21068975
10:43:09:040;0.19153613;9.9790325;0.21068975
10:43:09:040;0.19153613;9.9790325;0.21068975
10:43:09:040;0.19153613;9.9790325;0.21068975
10:43:09:040;0.19153613;9.9790325;0.21068975
10:43:09:159;0.22984336;9.921572;0.11492168
10:43:09:159;0.22984336;9.921572;0.11492168
10:43:09:159;0.22984336;9.921572;0.11492168
10:43:09:159;0.22984336;9.921572;0.11492168
10:43:09:159;0.22984336;9.921572;0.11492168
10:43:09:159;0.22984336;9.921572;0.11492168
10:43:09:159;0.22984336;9.921572;0.11492168
10:43:09:159;0.22984336;9.921572;0.11492168
10:43:09:159;0.22984336;9.921572;0.11492168
10:43:09:159;0.22984336;9.921572;0.11492168
10:43:09:159;0.22984336;9.921572;0.11492168
10:43:09:159;0.22984336;9.921572;0.11492168
10:43:09:159;0.22984336;9.921572;0.11492168
10:43:09:159;0.22984336;9.921572;0.11492168
10:43:09:159;0.22984336;9.921572;0.11492168
10:43:09:275;0.17238252;10.093954;0.076614454
10:43:09:275;0.17238252;10.093954;0.076614454
10:43:09:275;0.17238252;10.093954;0.076614454
10:43:09:275;0.17238252;10.093954;0.076614454
10:43:09:275;0.17238252;10.093954;0.076614454
10:43:09:275;0.17238252;10.093954;0.076614454
10:43:09:275;0.17238252;10.093954;0.076614454
10:43:09:275;0.17238252;10.093954;0.076614454
10:43:09:275;0.17238252;10.093954;0.076614454
10:43:09:275;0.17238252;10.093954;0.076614454
10:43:09:275;0.17238252;10.093954;0.076614454
10:43:09:275;0.17238252;10.093954;0.076614454
10:43:09:275;0.17238252;10.093954;0.076614454
10:43:09:275;0.17238252;10.093954;0.076614454
10:43:09:275;0.17238252;10.093954;0.076614454
10:43:09:395;0.17238252;9.921572;0.15322891
10:43:09:395;0.17238252;9.921572;0.15322891
10:43:09:395;0.17238252;9.921572;0.15322891
10:43:09:395;0.17238252;9.921572;0.15322891
10:43:09:395;0.17238252;9.921572;0.15322891
10:43:09:395;0.17238252;9.921572;0.15322891
10:43:09:395;0.17238252;9.921572;0.15322891
10:43:09:395;0.17238252;9.921572;0.15322891
10:43:09:395;0.17238252;9.921572;0.15322891
10:43:09:395;0.17238252;9.921572;0.15322891
10:43:09:395;0.17238252;9.921572;0.15322891
10:43:09:395;0.17238252;9.921572;0.15322891
10:43:09:395;0.17238252;9.921572;0.15322891
10:43:09:395;0.17238252;9.921572;0.15322891
10:43:09:395;0.17238252;9.921572;0.15322891
10:43:09:513;0.22984336;10.036493;0.15322891
10:43:09:513;0.22984336;10.036493;0.15322891
10:43:09:513;0.22984336;10.036493;0.15322891
10:43:09:513;0.22984336;10.036493;0.15322891
10:43:09:513;0.22984336;10.036493;0.15322891
10:43:09:513;0.22984336;10.036493;0.15322891
10:43:09:513;0.22984336;10.036493;0.15322891
10:43:09:513;0.22984336;10.036493;0.15322891
10:43:09:513;0.22984336;10.036493;0.15322891
10:43:09:513;0.22984336;10.036493;0.15322891
10:43:09:513;0.22984336;10.036493;0.15322891
10:43:09:513;0.22984336;10.036493;0.15322891
10:43:09:513;0.22984336;10.036493;0.15322891
10:43:09:617;0.21068975;9.9790325;0.095768064
10:43:09:617;0.21068975;9.9790325;0.095768064
10:43:09:617;0.21068975;9.9790325;0.095768064
10:43:09:617;0.21068975;9.9790325;0.095768064
10:43:09:617;0.21068975;9.9790325;0.095768064
10:43:09:617;0.21068975;9.9790325;0.095768064
10:43:09:617;0.21068975;9.9790325;0.095768064
10:43:09:617;0.21068975;9.9790325;0.095768064
10:43:09:617;0.21068975;9.9790325;0.095768064
10:43:09:617;0.21068975;9.9790325;0.095768064
10:43:09:617;0.21068975;9.9790325;0.095768064
10:43:09:617;0.21068975;9.9790325;0.095768064
10:43:09:617;0.21068975;9.9790325;0.095768064
10:43:09:617;0.21068975;9.9790325;0.095768064
10:43:09:617;0.21068975;9.9790325;0.095768064
10:43:09:728;0.15322891;9.9790325;0.095768064
10:43:09:728;0.15322891;9.9790325;0.095768064
10:43:09:728;0.15322891;9.9790325;0.095768064
10:43:09:728;0.15322891;9.9790325;0.095768064
10:43:09:728;0.15322891;9.9790325;0.095768064
10:43:09:728;0.15322891;9.9790325;0.095768064
10:43:09:728;0.15322891;9.9790325;0.095768064
10:43:09:728;0.15322891;9.9790325;0.095768064
10:43:09:728;0.15322891;9.9790325;0.095768064
10:43:09:728;0.15322891;9.9790325;0.095768064
10:43:09:728;0.15322891;9.9790325;0.095768064
10:43:09:728;0.15322891;9.9790325;0.095768064
10:43:09:728;0.15322891;9.9790325;0.095768064
10:43:09:728;0.15322891;9.9790325;0.095768064
10:43:09:728;0.15322891;9.9790325;0.095768064
10:43:09:845;0.22984336;9.959879;0.05746084
10:43:09:845;0.22984336;9.959879;0.05746084
10:43:09:845;0.22984336;9.959879;0.05746084
10:43:09:845;0.22984336;9.959879;0.05746084
10:43:09:845;0.22984336;9.959879;0.05746084
10:43:09:845;0.22984336;9.959879;0.05746084
10:43:09:845;0.22984336;9.959879;0.05746084
10:43:09:845;0.22984336;9.959879;0.05746084
10:43:09:845;0.22984336;9.959879;0.05746084
10:43:09:845;0.22984336;9.959879;0.05746084
10:43:09:845;0.22984336;9.959879;0.05746084
10:43:09:845;0.22984336;9.959879;0.05746084
10:43:09:845;0.22984336;9.959879;0.05746084
10:43:09:949;0.22984336;9.998186;0.095768064
10:43:09:949;0.22984336;9.998186;0.095768064
10:43:09:949;0.22984336;9.998186;0.095768064
10:43:09:949;0.22984336;9.998186;0.095768064
10:43:09:949;0.22984336;9.998186;0.095768064
10:43:09:949;0.22984336;9.998186;0.095768064
10:43:09:949;0.22984336;9.998186;0.095768064
10:43:09:949;0.22984336;9.998186;0.095768064
10:43:09:949;0.22984336;9.998186;0.095768064
10:43:09:949;0.22984336;9.998186;0.095768064
10:43:09:949;0.22984336;9.998186;0.095768064
10:43:09:949;0.22984336;9.998186;0.095768064
10:43:09:949;0.22984336;9.998186;0.095768064
10:43:09:949;0.22984336;9.998186;0.095768064
10:43:09:949;0.22984336;9.998186;0.095768064
10:43:10:063;0.19153613;9.9790325;-0.076614454
10:43:10:063;0.19153613;9.9790325;-0.076614454
10:43:10:063;0.19153613;9.9790325;-0.076614454
10:43:10:063;0.19153613;9.9790325;-0.076614454
10:43:10:063;0.19153613;9.9790325;-0.076614454
10:43:10:063;0.19153613;9.9790325;-0.076614454
10:43:10:063;0.19153613;9.9790325;-0.076614454
10:43:10:063;0.19153613;9.9790325;-0.076614454
10:43:10:063;0.19153613;9.9790325;-0.076614454
10:43:10:063;0.19153613;9.9790325;-0.076614454
10:43:10:063;0.19153613;9.9790325;-0.076614454
10:43:10:063;0.19153613;9.9790325;-0.076614454
10:43:10:063;0.19153613;9.9790325;-0.076614454
10:43:10:063;0.19153613;9.9790325;-0.076614454
10:43:10:063;0.19153613;9.9790325;-0.076614454
10:43:10:063;0.19153613;9.9790325;-0.076614454
10:43:10:191;0.05746084;10.01734;0.19153613
10:43:10:191;0.05746084;10.01734;0.19153613
10:43:10:191;0.05746084;10.01734;0.19153613
10:43:10:191;0.05746084;10.01734;0.19153613
10:43:10:191;0.05746084;10.01734;0.19153613
10:43:10:191;0.05746084;10.01734;0.19153613
10:43:10:191;0.05746084;10.01734;0.19153613
10:43:10:191;0.05746084;10.01734;0.19153613
10:43:10:191;0.05746084;10.01734;0.19153613
10:43:10:191;0.05746084;10.01734;0.19153613
10:43:10:191;0.05746084;10.01734;0.19153613
10:43:10:191;0.05746084;10.01734;0.19153613
10:43:10:191;0.05746084;10.01734;0.19153613
10:43:10:191;0.05746084;10.01734;0.19153613
10:43:10:298;0.15322891;9.902418;0.19153613
10:43:10:298;0.15322891;9.902418;0.19153613
10:43:10:298;0.15322891;9.902418;0.19153613
10:43:10:298;0.15322891;9.902418;0.19153613
10:43:10:298;0.15322891;9.902418;0.19153613
10:43:10:298;0.15322891;9.902418;0.19153613
10:43:10:298;0.15322891;9.902418;0.19153613
10:43:10:298;0.15322891;9.902418;0.19153613
10:43:10:298;0.15322891;9.902418;0.19153613
10:43:10:298;0.15322891;9.902418;0.19153613
10:43:10:298;0.15322891;9.902418;0.19153613
10:43:10:298;0.15322891;9.902418;0.19153613
10:43:10:298;0.15322891;9.902418;0.19153613
10:43:10:298;0.15322891;9.902418;0.19153613
10:43:10:298;0.15322891;9.902418;0.19153613
10:43:10:415;0.32561144;9.998186;0.095768064
10:43:10:415;0.32561144;9.998186;0.095768064
10:43:10:415;0.32561144;9.998186;0.095768064
10:43:10:415;0.32561144;9.998186;0.095768064
10:43:10:415;0.32561144;9.998186;0.095768064
10:43:10:415;0.32561144;9.998186;0.095768064
10:43:10:415;0.32561144;9.998186;0.095768064
10:43:10:415;0.32561144;9.998186;0.095768064
10:43:10:415;0.32561144;9.998186;0.095768064
10:43:10:415;0.32561144;9.998186;0.095768064
10:43:10:415;0.32561144;9.998186;0.095768064
10:43:10:415;0.32561144;9.998186;0.095768064
10:43:10:415;0.32561144;9.998186;0.095768064
10:43:10:415;0.32561144;9.998186;0.095768064
10:43:10:415;0.32561144;9.998186;0.095768064
10:43:10:534;0.32561144;9.9790325;0.095768064
10:43:10:534;0.32561144;9.9790325;0.095768064
10:43:10:534;0.32561144;9.9790325;0.095768064
10:43:10:534;0.32561144;9.9790325;0.095768064
10:43:10:534;0.32561144;9.9790325;0.095768064
10:43:10:534;0.32561144;9.9790325;0.095768064
10:43:10:534;0.32561144;9.9790325;0.095768064
10:43:10:534;0.32561144;9.9790325;0.095768064
10:43:10:534;0.32561144;9.9790325;0.095768064
10:43:10:534;0.32561144;9.9790325;0.095768064
10:43:10:534;0.32561144;9.9790325;0.095768064
10:43:10:534;0.32561144;9.9790325;0.095768064
10:43:10:534;0.32561144;9.9790325;0.095768064
10:43:10:534;0.32561144;9.9790325;0.095768064
10:43:10:645;0.17238252;9.998186;0.038307227
10:43:10:645;0.17238252;9.998186;0.038307227
10:43:10:645;0.17238252;9.998186;0.038307227
10:43:10:645;0.17238252;9.998186;0.038307227
10:43:10:645;0.17238252;9.998186;0.038307227
10:43:10:645;0.17238252;9.998186;0.038307227
10:43:10:645;0.17238252;9.998186;0.038307227
10:43:10:645;0.17238252;9.998186;0.038307227
10:43:10:645;0.17238252;9.998186;0.038307227
10:43:10:645;0.17238252;9.998186;0.038307227
10:43:10:645;0.17238252;9.998186;0.038307227
10:43:10:645;0.17238252;9.998186;0.038307227
10:43:10:645;0.17238252;9.998186;0.038307227
10:43:10:747;0.19153613;9.998186;0.038307227
10:43:10:747;0.19153613;9.998186;0.038307227
10:43:10:747;0.19153613;9.998186;0.038307227
10:43:10:747;0.19153613;9.998186;0.038307227
10:43:10:747;0.19153613;9.998186;0.038307227
10:43:10:747;0.19153613;9.998186;0.038307227
10:43:10:747;0.19153613;9.998186;0.038307227
10:43:10:747;0.19153613;9.998186;0.038307227
10:43:10:747;0.19153613;9.998186;0.038307227
10:43:10:747;0.19153613;9.998186;0.038307227
10:43:10:747;0.19153613;9.998186;0.038307227
10:43:10:747;0.19153613;9.998186;0.038307227
10:43:10:747;0.19153613;9.998186;0.038307227
10:43:10:747;0.19153613;9.998186;0.038307227
10:43:10:747;0.19153613;9.998186;0.038307227
10:43:10:747;0.19153613;9.998186;0.038307227
10:43:10:870;0.15322891;9.921572;0.095768064
10:43:10:870;0.15322891;9.921572;0.095768064
10:43:10:870;0.15322891;9.921572;0.095768064
10:43:10:870;0.15322891;9.921572;0.095768064
10:43:10:870;0.15322891;9.921572;0.095768064
10:43:10:870;0.15322891;9.921572;0.095768064
10:43:10:870;0.15322891;9.921572;0.095768064
10:43:10:870;0.15322891;9.921572;0.095768064
10:43:10:870;0.15322891;9.921572;0.095768064
10:43:10:870;0.15322891;9.921572;0.095768064
10:43:10:870;0.15322891;9.921572;0.095768064
10:43:10:870;0.15322891;9.921572;0.095768064
10:43:10:870;0.15322891;9.921572;0.095768064
10:43:10:870;0.15322891;9.921572;0.095768064
10:43:10:977;0.17238252;10.036493;0.038307227
10:43:10:977;0.17238252;10.036493;0.038307227
10:43:10:977;0.17238252;10.036493;0.038307227
10:43:10:977;0.17238252;10.036493;0.038307227
10:43:10:977;0.17238252;10.036493;0.038307227
10:43:10:977;0.17238252;10.036493;0.038307227
10:43:10:977;0.17238252;10.036493;0.038307227
10:43:10:977;0.17238252;10.036493;0.038307227
10:43:10:977;0.17238252;10.036493;0.038307227
10:43:10:977;0.17238252;10.036493;0.038307227
10:43:10:977;0.17238252;10.036493;0.038307227
10:43:10:977;0.17238252;10.036493;0.038307227
10:43:10:977;0.17238252;10.036493;0.038307227
10:43:10:977;0.17238252;10.036493;0.038307227
10:43:10:977;0.17238252;10.036493;0.038307227
10:43:10:977;0.17238252;10.036493;0.038307227
10:43:10:977;0.17238252;10.036493;0.038307227
10:43:11:111;0.21068975;9.959879;0.019153614
10:43:11:111;0.21068975;9.959879;0.019153614
10:43:11:111;0.21068975;9.959879;0.019153614
10:43:11:111;0.21068975;9.959879;0.019153614
10:43:11:111;0.21068975;9.959879;0.019153614
10:43:11:111;0.21068975;9.959879;0.019153614
10:43:11:111;0.21068975;9.959879;0.019153614
10:43:11:111;0.21068975;9.959879;0.019153614
10:43:11:111;0.21068975;9.959879;0.019153614
10:43:11:111;0.21068975;9.959879;0.019153614
10:43:11:111;0.21068975;9.959879;0.019153614
10:43:11:111;0.21068975;9.959879;0.019153614
10:43:11:111;0.21068975;9.959879;0.019153614
10:43:11:111;0.21068975;9.959879;0.019153614
10:43:11:223;0.15322891;9.959879;0.05746084
10:43:11:223;0.15322891;9.959879;0.05746084
10:43:11:223;0.15322891;9.959879;0.05746084
10:43:11:223;0.15322891;9.959879;0.05746084
10:43:11:223;0.15322891;9.959879;0.05746084
10:43:11:223;0.15322891;9.959879;0.05746084
10:43:11:223;0.15322891;9.959879;0.05746084
10:43:11:223;0.15322891;9.959879;0.05746084
10:43:11:223;0.15322891;9.959879;0.05746084
10:43:11:223;0.15322891;9.959879;0.05746084
10:43:11:223;0.15322891;9.959879;0.05746084
10:43:11:223;0.15322891;9.959879;0.05746084
10:43:11:223;0.15322891;9.959879;0.05746084
10:43:11:223;0.15322891;9.959879;0.05746084
10:43:11:223;0.15322891;9.959879;0.05746084
10:43:11:223;0.15322891;9.959879;0.05746084
10:43:11:223;0.15322891;9.959879;0.05746084
10:43:11:223;0.15322891;9.959879;0.05746084
10:43:11:363;0.19153613;10.036493;0.05746084
10:43:11:363;0.19153613;10.036493;0.05746084
10:43:11:363;0.19153613;10.036493;0.05746084
10:43:11:363;0.19153613;10.036493;0.05746084
10:43:11:363;0.19153613;10.036493;0.05746084
10:43:11:363;0.19153613;10.036493;0.05746084
10:43:11:363;0.19153613;10.036493;0.05746084
10:43:11:363;0.19153613;10.036493;0.05746084
10:43:11:363;0.19153613;10.036493;0.05746084
10:43:11:363;0.19153613;10.036493;0.05746084
10:43:11:363;0.19153613;10.036493;0.05746084
10:43:11:363;0.19153613;10.036493;0.05746084
10:43:11:363;0.19153613;10.036493;0.05746084
10:43:11:363;0.19153613;10.036493;0.05746084
10:43:11:475;0.1340753;9.940725;0.076614454
10:43:11:475;0.1340753;9.940725;0.076614454
10:43:11:475;0.1340753;9.940725;0.076614454
10:43:11:475;0.1340753;9.940725;0.076614454
10:43:11:475;0.1340753;9.940725;0.076614454
10:43:11:475;0.1340753;9.940725;0.076614454
10:43:11:475;0.1340753;9.940725;0.076614454
10:43:11:475;0.1340753;9.940725;0.076614454
10:43:11:475;0.1340753;9.940725;0.076614454
10:43:11:475;0.1340753;9.940725;0.076614454
10:43:11:475;0.1340753;9.940725;0.076614454
10:43:11:475;0.1340753;9.940725;0.076614454
10:43:11:475;0.1340753;9.940725;0.076614454
10:43:11:578;0.15322891;10.036493;0.038307227
10:43:11:578;0.15322891;10.036493;0.038307227
10:43:11:578;0.15322891;10.036493;0.038307227
10:43:11:578;0.15322891;10.036493;0.038307227
10:43:11:578;0.15322891;10.036493;0.038307227
10:43:11:578;0.15322891;10.036493;0.038307227
10:43:11:578;0.15322891;10.036493;0.038307227
10:43:11:578;0.15322891;10.036493;0.038307227
10:43:11:578;0.15322891;10.036493;0.038307227
10:43:11:578;0.15322891;10.036493;0.038307227
10:43:11:578;0.15322891;10.036493;0.038307227
10:43:11:578;0.15322891;10.036493;0.038307227
10:43:11:578;0.15322891;10.036493;0.038307227
10:43:11:679;0.19153613;10.132261;0.19153613
10:43:11:679;0.19153613;10.132261;0.19153613
10:43:11:679;0.19153613;10.132261;0.19153613
10:43:11:679;0.19153613;10.132261;0.19153613
10:43:11:679;0.19153613;10.132261;0.19153613
10:43:11:679;0.19153613;10.132261;0.19153613
10:43:11:679;0.19153613;10.132261;0.19153613
10:43:11:679;0.19153613;10.132261;0.19153613
10:43:11:679;0.19153613;10.132261;0.19153613
10:43:11:679;0.19153613;10.132261;0.19153613
10:43:11:679;0.19153613;10.132261;0.19153613
10:43:11:679;0.19153613;10.132261;0.19153613
10:43:11:679;0.19153613;10.132261;0.19153613
10:43:11:679;0.19153613;10.132261;0.19153613
10:43:11:679;0.19153613;10.132261;0.19153613
10:43:11:679;0.19153613;10.132261;0.19153613
10:43:11:797;0.1340753;9.959879;-0.038307227
10:43:11:797;0.1340753;9.959879;-0.038307227
10:43:11:797;0.1340753;9.959879;-0.038307227
10:43:11:797;0.1340753;9.959879;-0.038307227
10:43:11:797;0.1340753;9.959879;-0.038307227
10:43:11:797;0.1340753;9.959879;-0.038307227
10:43:11:797;0.1340753;9.959879;-0.038307227
10:43:11:797;0.1340753;9.959879;-0.038307227
10:43:11:797;0.1340753;9.959879;-0.038307227
10:43:11:797;0.1340753;9.959879;-0.038307227
10:43:11:797;0.1340753;9.959879;-0.038307227
10:43:11:797;0.1340753;9.959879;-0.038307227
10:43:11:797;0.1340753;9.959879;-0.038307227
10:43:11:797;0.1340753;9.959879;-0.038307227
10:43:11:913;0.19153613;9.902418;0.11492168
10:43:11:913;0.19153613;9.902418;0.11492168
10:43:11:913;0.19153613;9.902418;0.11492168
10:43:11:913;0.19153613;9.902418;0.11492168
10:43:11:913;0.19153613;9.902418;0.11492168
10:43:11:913;0.19153613;9.902418;0.11492168
10:43:11:913;0.19153613;9.902418;0.11492168
10:43:11:913;0.19153613;9.902418;0.11492168
10:43:11:913;0.19153613;9.902418;0.11492168
10:43:11:913;0.19153613;9.902418;0.11492168
10:43:11:913;0.19153613;9.902418;0.11492168
10:43:11:913;0.19153613;9.902418;0.11492168
10:43:11:913;0.19153613;9.902418;0.11492168
10:43:11:913;0.19153613;9.902418;0.11492168
10:43:11:913;0.19153613;9.902418;0.11492168
10:43:11:913;0.19153613;9.902418;0.11492168
10:43:12:035;0.17238252;9.998186;0.05746084
10:43:12:035;0.17238252;9.998186;0.05746084
10:43:12:035;0.17238252;9.998186;0.05746084
10:43:12:035;0.17238252;9.998186;0.05746084
10:43:12:035;0.17238252;9.998186;0.05746084
10:43:12:035;0.17238252;9.998186;0.05746084
10:43:12:035;0.17238252;9.998186;0.05746084
10:43:12:035;0.17238252;9.998186;0.05746084
10:43:12:035;0.17238252;9.998186;0.05746084
10:43:12:035;0.17238252;9.998186;0.05746084
10:43:12:035;0.17238252;9.998186;0.05746084
10:43:12:035;0.17238252;9.998186;0.05746084
10:43:12:035;0.17238252;9.998186;0.05746084
10:43:12:035;0.17238252;9.998186;0.05746084
10:43:12:035;0.17238252;9.998186;0.05746084
10:43:12:151;0.30645782;9.864111;0.11492168
10:43:12:151;0.30645782;9.864111;0.11492168
10:43:12:151;0.30645782;9.864111;0.11492168
10:43:12:151;0.30645782;9.864111;0.11492168
10:43:12:151;0.30645782;9.864111;0.11492168
10:43:12:151;0.30645782;9.864111;0.11492168
10:43:12:151;0.30645782;9.864111;0.11492168
10:43:12:151;0.30645782;9.864111;0.11492168
10:43:12:151;0.30645782;9.864111;0.11492168
10:43:12:151;0.30645782;9.864111;0.11492168
10:43:12:151;0.30645782;9.864111;0.11492168
10:43:12:151;0.30645782;9.864111;0.11492168
10:43:12:151;0.30645782;9.864111;0.11492168
10:43:12:151;0.30645782;9.864111;0.11492168
10:43:12:151;0.30645782;9.864111;0.11492168
10:43:12:272;0.1340753;9.959879;0.05746084
10:43:12:272;0.1340753;9.959879;0.05746084
10:43:12:272;0.1340753;9.959879;0.05746084
10:43:12:272;0.1340753;9.959879;0.05746084
10:43:12:272;0.1340753;9.959879;0.05746084
10:43:12:272;0.1340753;9.959879;0.05746084
10:43:12:272;0.1340753;9.959879;0.05746084
10:43:12:272;0.1340753;9.959879;0.05746084
10:43:12:272;0.1340753;9.959879;0.05746084
10:43:12:272;0.1340753;9.959879;0.05746084
10:43:12:272;0.1340753;9.959879;0.05746084
10:43:12:272;0.1340753;9.959879;0.05746084
10:43:12:272;0.1340753;9.959879;0.05746084
10:43:12:272;0.1340753;9.959879;0.05746084
10:43:12:272;0.1340753;9.959879;0.05746084
10:43:12:388;0.21068975;10.01734;0.05746084
10:43:12:388;0.21068975;10.01734;0.05746084
10:43:12:388;0.21068975;10.01734;0.05746084
10:43:12:388;0.21068975;10.01734;0.05746084
10:43:12:388;0.21068975;10.01734;0.05746084
10:43:12:388;0.21068975;10.01734;0.05746084
10:43:12:388;0.21068975;10.01734;0.05746084
10:43:12:388;0.21068975;10.01734;0.05746084
10:43:12:388;0.21068975;10.01734;0.05746084
10:43:12:388;0.21068975;10.01734;0.05746084
10:43:12:388;0.21068975;10.01734;0.05746084
10:43:12:388;0.21068975;10.01734;0.05746084
10:43:12:388;0.21068975;10.01734;0.05746084
10:43:12:388;0.21068975;10.01734;0.05746084
10:43:12:388;0.21068975;10.01734;0.05746084
10:43:12:506;0.17238252;10.01734;0.076614454
10:43:12:506;0.17238252;10.01734;0.076614454
10:43:12:506;0.17238252;10.01734;0.076614454
10:43:12:506;0.17238252;10.01734;0.076614454
10:43:12:506;0.17238252;10.01734;0.076614454
10:43:12:506;0.17238252;10.01734;0.076614454
10:43:12:506;0.17238252;10.01734;0.076614454
10:43:12:506;0.17238252;10.01734;0.076614454
10:43:12:506;0.17238252;10.01734;0.076614454
10:43:12:506;0.17238252;10.01734;0.076614454
10:43:12:506;0.17238252;10.01734;0.076614454
10:43:12:506;0.17238252;10.01734;0.076614454
10:43:12:506;0.17238252;10.01734;0.076614454
10:43:12:506;0.17238252;10.01734;0.076614454
10:43:12:616;0.15322891;9.940725;0.19153613
10:43:12:616;0.15322891;9.940725;0.19153613
10:43:12:616;0.15322891;9.940725;0.19153613
10:43:12:616;0.15322891;9.940725;0.19153613
10:43:12:616;0.15322891;9.940725;0.19153613
10:43:12:616;0.15322891;9.940725;0.19153613
10:43:12:616;0.15322891;9.940725;0.19153613
10:43:12:616;0.15322891;9.940725;0.19153613
10:43:12:616;0.15322891;9.940725;0.19153613
10:43:12:616;0.15322891;9.940725;0.19153613
10:43:12:616;0.15322891;9.940725;0.19153613
10:43:12:616;0.15322891;9.940725;0.19153613
10:43:12:616;0.15322891;9.940725;0.19153613
10:43:12:616;0.15322891;9.940725;0.19153613
10:43:12:616;0.15322891;9.940725;0.19153613
10:43:12:616;0.15322891;9.940725;0.19153613
10:43:12:736;0.21068975;10.036493;0.05746084
10:43:12:736;0.21068975;10.036493;0.05746084
10:43:12:736;0.21068975;10.036493;0.05746084
10:43:12:736;0.21068975;10.036493;0.05746084
10:43:12:736;0.21068975;10.036493;0.05746084
10:43:12:736;0.21068975;10.036493;0.05746084
10:43:12:736;0.21068975;10.036493;0.05746084
10:43:12:736;0.21068975;10.036493;0.05746084
10:43:12:736;0.21068975;10.036493;0.05746084
10:43:12:736;0.21068975;10.036493;0.05746084
10:43:12:736;0.21068975;10.036493;0.05746084
10:43:12:736;0.21068975;10.036493;0.05746084
10:43:12:736;0.21068975;10.036493;0.05746084
10:43:12:736;0.21068975;10.036493;0.05746084
10:43:12:736;0.21068975;10.036493;0.05746084
10:43:12:854;0.1340753;9.9790325;0.15322891
10:43:12:854;0.1340753;9.9790325;0.15322891
10:43:12:854;0.1340753;9.9790325;0.15322891
10:43:12:854;0.1340753;9.9790325;0.15322891
10:43:12:854;0.1340753;9.9790325;0.15322891
10:43:12:854;0.1340753;9.9790325;0.15322891
10:43:12:854;0.1340753;9.9790325;0.15322891
10:43:12:854;0.1340753;9.9790325;0.15322891
10:43:12:854;0.1340753;9.9790325;0.15322891
10:43:12:854;0.1340753;9.9790325;0.15322891
10:43:12:854;0.1340753;9.9790325;0.15322891
10:43:12:854;0.1340753;9.9790325;0.15322891
10:43:12:854;0.1340753;9.9790325;0.15322891
10:43:12:955;0.1340753;9.864111;0.076614454
10:43:12:955;0.1340753;9.864111;0.076614454
10:43:12:955;0.1340753;9.864111;0.076614454
10:43:12:955;0.1340753;9.864111;0.076614454
10:43:12:955;0.1340753;9.864111;0.076614454
10:43:12:955;0.1340753;9.864111;0.076614454
10:43:12:955;0.1340753;9.864111;0.076614454
10:43:12:955;0.1340753;9.864111;0.076614454
10:43:12:955;0.1340753;9.864111;0.076614454
10:43:12:955;0.1340753;9.864111;0.076614454
10:43:12:955;0.1340753;9.864111;0.076614454
10:43:12:955;0.1340753;9.864111;0.076614454
10:43:12:955;0.1340753;9.864111;0.076614454
10:43:12:955;0.1340753;9.864111;0.076614454
10:43:12:955;0.1340753;9.864111;0.076614454
10:43:13:072;0.095768064;10.113108;0.019153614
10:43:13:072;0.095768064;10.113108;0.019153614
10:43:13:072;0.095768064;10.113108;0.019153614
10:43:13:072;0.095768064;10.113108;0.019153614
10:43:13:072;0.095768064;10.113108;0.019153614
10:43:13:072;0.095768064;10.113108;0.019153614
10:43:13:072;0.095768064;10.113108;0.019153614
10:43:13:072;0.095768064;10.113108;0.019153614
10:43:13:072;0.095768064;10.113108;0.019153614
10:43:13:072;0.095768064;10.113108;0.019153614
10:43:13:072;0.095768064;10.113108;0.019153614
10:43:13:072;0.095768064;10.113108;0.019153614
10:43:13:072;0.095768064;10.113108;0.019153614
10:43:13:072;0.095768064;10.113108;0.019153614
10:43:13:072;0.095768064;10.113108;0.019153614
10:43:13:189;0.19153613;10.01734;0.1340753
10:43:13:189;0.19153613;10.01734;0.1340753
10:43:13:189;0.19153613;10.01734;0.1340753
10:43:13:189;0.19153613;10.01734;0.1340753
10:43:13:189;0.19153613;10.01734;0.1340753
10:43:13:189;0.19153613;10.01734;0.1340753
10:43:13:189;0.19153613;10.01734;0.1340753
10:43:13:189;0.19153613;10.01734;0.1340753
10:43:13:189;0.19153613;10.01734;0.1340753
10:43:13:189;0.19153613;10.01734;0.1340753
10:43:13:189;0.19153613;10.01734;0.1340753
10:43:13:189;0.19153613;10.01734;0.1340753
10:43:13:189;0.19153613;10.01734;0.1340753
10:43:13:291;0.24899697;10.036493;0.15322891
10:43:13:291;0.24899697;10.036493;0.15322891
10:43:13:291;0.24899697;10.036493;0.15322891
10:43:13:291;0.24899697;10.036493;0.15322891
10:43:13:291;0.24899697;10.036493;0.15322891
10:43:13:291;0.24899697;10.036493;0.15322891
10:43:13:291;0.24899697;10.036493;0.15322891
10:43:13:291;0.24899697;10.036493;0.15322891
10:43:13:291;0.24899697;10.036493;0.15322891
10:43:13:291;0.24899697;10.036493;0.15322891
10:43:13:291;0.24899697;10.036493;0.15322891
10:43:13:291;0.24899697;10.036493;0.15322891
10:43:13:291;0.24899697;10.036493;0.15322891
10:43:13:395;0.17238252;10.208876;0.21068975
10:43:13:395;0.17238252;10.208876;0.21068975
10:43:13:395;0.17238252;10.208876;0.21068975
10:43:13:395;0.17238252;10.208876;0.21068975
10:43:13:395;0.17238252;10.208876;0.21068975
10:43:13:395;0.17238252;10.208876;0.21068975
10:43:13:395;0.17238252;10.208876;0.21068975
10:43:13:395;0.17238252;10.208876;0.21068975
10:43:13:395;0.17238252;10.208876;0.21068975
10:43:13:395;0.17238252;10.208876;0.21068975
10:43:13:395;0.17238252;10.208876;0.21068975
10:43:13:395;0.17238252;10.208876;0.21068975
10:43:13:395;0.17238252;10.208876;0.21068975
10:43:13:395;0.17238252;10.208876;0.21068975
10:43:13:395;0.17238252;10.208876;0.21068975
10:43:13:510;0.24899697;9.902418;0.17238252
10:43:13:510;0.24899697;9.902418;0.17238252
10:43:13:510;0.24899697;9.902418;0.17238252
10:43:13:510;0.24899697;9.902418;0.17238252
10:43:13:510;0.24899697;9.902418;0.17238252
10:43:13:510;0.24899697;9.902418;0.17238252
10:43:13:510;0.24899697;9.902418;0.17238252
10:43:13:510;0.24899697;9.902418;0.17238252
10:43:13:510;0.24899697;9.902418;0.17238252
10:43:13:510;0.24899697;9.902418;0.17238252
10:43:13:510;0.24899697;9.902418;0.17238252
10:43:13:510;0.24899697;9.902418;0.17238252
10:43:13:510;0.24899697;9.902418;0.17238252
10:43:13:510;0.24899697;9.902418;0.17238252
10:43:13:619;0.19153613;10.093954;0.11492168
10:43:13:619;0.19153613;10.093954;0.11492168
10:43:13:619;0.19153613;10.093954;0.11492168
10:43:13:619;0.19153613;10.093954;0.11492168
10:43:13:619;0.19153613;10.093954;0.11492168
10:43:13:619;0.19153613;10.093954;0.11492168
10:43:13:619;0.19153613;10.093954;0.11492168
10:43:13:619;0.19153613;10.093954;0.11492168
10:43:13:619;0.19153613;10.093954;0.11492168
10:43:13:619;0.19153613;10.093954;0.11492168
10:43:13:619;0.19153613;10.093954;0.11492168
10:43:13:619;0.19153613;10.093954;0.11492168
10:43:13:619;0.19153613;10.093954;0.11492168
10:43:13:724;0.22984336;9.902418;0.05746084
10:43:13:724;0.22984336;9.902418;0.05746084
10:43:13:724;0.22984336;9.902418;0.05746084
10:43:13:724;0.22984336;9.902418;0.05746084
10:43:13:724;0.22984336;9.902418;0.05746084
10:43:13:724;0.22984336;9.902418;0.05746084
10:43:13:724;0.22984336;9.902418;0.05746084
10:43:13:724;0.22984336;9.902418;0.05746084
10:43:13:724;0.22984336;9.902418;0.05746084
10:43:13:724;0.22984336;9.902418;0.05746084
10:43:13:724;0.22984336;9.902418;0.05746084
10:43:13:724;0.22984336;9.902418;0.05746084
10:43:13:724;0.22984336;9.902418;0.05746084
10:43:13:826;0.17238252;10.01734;0.095768064
10:43:13:826;0.17238252;10.01734;0.095768064
10:43:13:826;0.17238252;10.01734;0.095768064
10:43:13:826;0.17238252;10.01734;0.095768064
10:43:13:826;0.17238252;10.01734;0.095768064
10:43:13:826;0.17238252;10.01734;0.095768064
10:43:13:826;0.17238252;10.01734;0.095768064
10:43:13:826;0.17238252;10.01734;0.095768064
10:43:13:826;0.17238252;10.01734;0.095768064
10:43:13:826;0.17238252;10.01734;0.095768064
10:43:13:826;0.17238252;10.01734;0.095768064
10:43:13:826;0.17238252;10.01734;0.095768064
10:43:13:826;0.17238252;10.01734;0.095768064
10:43:13:826;0.17238252;10.01734;0.095768064
10:43:13:826;0.17238252;10.01734;0.095768064
10:43:13:826;0.17238252;10.01734;0.095768064
10:43:13:826;0.17238252;10.01734;0.095768064
10:43:13:826;0.17238252;10.01734;0.095768064
10:43:13:826;0.17238252;10.01734;0.095768064
10:43:13:970;0.15322891;9.9790325;0.11492168
10:43:13:970;0.15322891;9.9790325;0.11492168
10:43:13:970;0.15322891;9.9790325;0.11492168
10:43:13:970;0.15322891;9.9790325;0.11492168
10:43:13:970;0.15322891;9.9790325;0.11492168
10:43:13:970;0.15322891;9.9790325;0.11492168
10:43:13:970;0.15322891;9.9790325;0.11492168
10:43:13:970;0.15322891;9.9790325;0.11492168
10:43:13:970;0.15322891;9.9790325;0.11492168
10:43:13:970;0.15322891;9.9790325;0.11492168
10:43:13:970;0.15322891;9.9790325;0.11492168
10:43:13:970;0.15322891;9.9790325;0.11492168
10:43:13:970;0.15322891;9.9790325;0.11492168
10:43:13:970;0.15322891;9.9790325;0.11492168
10:43:14:079;0.21068975;10.093954;0.038307227
10:43:14:079;0.21068975;10.093954;0.038307227
10:43:14:079;0.21068975;10.093954;0.038307227
10:43:14:079;0.21068975;10.093954;0.038307227
10:43:14:079;0.21068975;10.093954;0.038307227
10:43:14:079;0.21068975;10.093954;0.038307227
10:43:14:079;0.21068975;10.093954;0.038307227
10:43:14:079;0.21068975;10.093954;0.038307227
10:43:14:079;0.21068975;10.093954;0.038307227
10:43:14:079;0.21068975;10.093954;0.038307227
10:43:14:079;0.21068975;10.093954;0.038307227
10:43:14:079;0.21068975;10.093954;0.038307227
10:43:14:079;0.21068975;10.093954;0.038307227
10:43:14:079;0.21068975;10.093954;0.038307227
10:43:14:079;0.21068975;10.093954;0.038307227
10:43:14:200;0.076614454;9.959879;-0.019153614
10:43:14:200;0.076614454;9.959879;-0.019153614
10:43:14:200;0.076614454;9.959879;-0.019153614
10:43:14:200;0.076614454;9.959879;-0.019153614
10:43:14:200;0.076614454;9.959879;-0.019153614
10:43:14:200;0.076614454;9.959879;-0.019153614
10:43:14:200;0.076614454;9.959879;-0.019153614
10:43:14:200;0.076614454;9.959879;-0.019153614
10:43:14:200;0.076614454;9.959879;-0.019153614
10:43:14:200;0.076614454;9.959879;-0.019153614
10:43:14:200;0.076614454;9.959879;-0.019153614
10:43:14:200;0.076614454;9.959879;-0.019153614
10:43:14:200;0.076614454;9.959879;-0.019153614
10:43:14:200;0.076614454;9.959879;-0.019153614
10:43:14:200;0.076614454;9.959879;-0.019153614
10:43:14:317;0.21068975;9.959879;0.038307227
10:43:14:317;0.21068975;9.959879;0.038307227
10:43:14:317;0.21068975;9.959879;0.038307227
10:43:14:317;0.21068975;9.959879;0.038307227
10:43:14:317;0.21068975;9.959879;0.038307227
10:43:14:317;0.21068975;9.959879;0.038307227
10:43:14:317;0.21068975;9.959879;0.038307227
10:43:14:317;0.21068975;9.959879;0.038307227
10:43:14:317;0.21068975;9.959879;0.038307227
10:43:14:317;0.21068975;9.959879;0.038307227
10:43:14:317;0.21068975;9.959879;0.038307227
10:43:14:317;0.21068975;9.959879;0.038307227
10:43:14:317;0.21068975;9.959879;0.038307227
10:43:14:317;0.21068975;9.959879;0.038307227
10:43:14:427;0.11492168;9.998186;0.05746084
10:43:14:427;0.11492168;9.998186;0.05746084
10:43:14:427;0.11492168;9.998186;0.05746084
10:43:14:427;0.11492168;9.998186;0.05746084
10:43:14:427;0.11492168;9.998186;0.05746084
10:43:14:427;0.11492168;9.998186;0.05746084
10:43:14:427;0.11492168;9.998186;0.05746084
10:43:14:427;0.11492168;9.998186;0.05746084
10:43:14:427;0.11492168;9.998186;0.05746084
10:43:14:427;0.11492168;9.998186;0.05746084
10:43:14:427;0.11492168;9.998186;0.05746084
10:43:14:427;0.11492168;9.998186;0.05746084
10:43:14:427;0.11492168;9.998186;0.05746084
10:43:14:427;0.11492168;9.998186;0.05746084
10:43:14:427;0.11492168;9.998186;0.05746084
10:43:14:427;0.11492168;9.998186;0.05746084
10:43:14:552;0.19153613;9.998186;-0.019153614
10:43:14:552;0.19153613;9.998186;-0.019153614
10:43:14:552;0.19153613;9.998186;-0.019153614
10:43:14:552;0.19153613;9.998186;-0.019153614
10:43:14:552;0.19153613;9.998186;-0.019153614
10:43:14:552;0.19153613;9.998186;-0.019153614
10:43:14:552;0.19153613;9.998186;-0.019153614
10:43:14:552;0.19153613;9.998186;-0.019153614
10:43:14:552;0.19153613;9.998186;-0.019153614
10:43:14:552;0.19153613;9.998186;-0.019153614
10:43:14:552;0.19153613;9.998186;-0.019153614
10:43:14:552;0.19153613;9.998186;-0.019153614
10:43:14:552;0.19153613;9.998186;-0.019153614
10:43:14:552;0.19153613;9.998186;-0.019153614
10:43:14:552;0.19153613;9.998186;-0.019153614
10:43:14:671;0.038307227;9.959879;0.095768064
10:43:14:671;0.038307227;9.959879;0.095768064
10:43:14:671;0.038307227;9.959879;0.095768064
10:43:14:671;0.038307227;9.959879;0.095768064
10:43:14:671;0.038307227;9.959879;0.095768064
10:43:14:671;0.038307227;9.959879;0.095768064
10:43:14:671;0.038307227;9.959879;0.095768064
10:43:14:671;0.038307227;9.959879;0.095768064
10:43:14:671;0.038307227;9.959879;0.095768064
10:43:14:671;0.038307227;9.959879;0.095768064
10:43:14:671;0.038307227;9.959879;0.095768064
10:43:14:671;0.038307227;9.959879;0.095768064
10:43:14:671;0.038307227;9.959879;0.095768064
10:43:14:773;0.24899697;10.01734;0.17238252
10:43:14:773;0.24899697;10.01734;0.17238252
10:43:14:773;0.24899697;10.01734;0.17238252
10:43:14:773;0.24899697;10.01734;0.17238252
10:43:14:773;0.24899697;10.01734;0.17238252
10:43:14:773;0.24899697;10.01734;0.17238252
10:43:14:773;0.24899697;10.01734;0.17238252
10:43:14:773;0.24899697;10.01734;0.17238252
10:43:14:773;0.24899697;10.01734;0.17238252
10:43:14:773;0.24899697;10.01734;0.17238252
10:43:14:773;0.24899697;10.01734;0.17238252
10:43:14:773;0.24899697;10.01734;0.17238252
10:43:14:773;0.24899697;10.01734;0.17238252
10:43:14:773;0.24899697;10.01734;0.17238252
10:43:14:773;0.24899697;10.01734;0.17238252
10:43:14:890;0.15322891;10.055647;0.095768064
10:43:14:890;0.15322891;10.055647;0.095768064
10:43:14:890;0.15322891;10.055647;0.095768064
10:43:14:890;0.15322891;10.055647;0.095768064
10:43:14:890;0.15322891;10.055647;0.095768064
10:43:14:890;0.15322891;10.055647;0.095768064
10:43:14:890;0.15322891;10.055647;0.095768064
10:43:14:890;0.15322891;10.055647;0.095768064
10:43:14:890;0.15322891;10.055647;0.095768064
10:43:14:890;0.15322891;10.055647;0.095768064
10:43:14:890;0.15322891;10.055647;0.095768064
10:43:14:890;0.15322891;10.055647;0.095768064
10:43:14:890;0.15322891;10.055647;0.095768064
10:43:14:890;0.15322891;10.055647;0.095768064
10:43:14:890;0.15322891;10.055647;0.095768064
10:43:14:890;0.15322891;10.055647;0.095768064
10:43:14:890;0.15322891;10.055647;0.095768064
10:43:14:890;0.15322891;10.055647;0.095768064
10:43:14:890;0.15322891;10.055647;0.095768064
10:43:14:890;0.15322891;10.055647;0.095768064
10:43:14:890;0.15322891;10.055647;0.095768064
10:43:15:051;0.24899697;9.902418;0.11492168
10:43:15:051;0.24899697;9.902418;0.11492168
10:43:15:051;0.24899697;9.902418;0.11492168
10:43:15:051;0.24899697;9.902418;0.11492168
10:43:15:051;0.24899697;9.902418;0.11492168
10:43:15:051;0.24899697;9.902418;0.11492168
10:43:15:051;0.24899697;9.902418;0.11492168
10:43:15:051;0.24899697;9.902418;0.11492168
10:43:15:051;0.24899697;9.902418;0.11492168
10:43:15:051;0.24899697;9.902418;0.11492168
10:43:15:051;0.24899697;9.902418;0.11492168
10:43:15:051;0.24899697;9.902418;0.11492168
10:43:15:051;0.24899697;9.902418;0.11492168
10:43:15:051;0.24899697;9.902418;0.11492168
10:43:15:051;0.24899697;9.902418;0.11492168
10:43:15:167;0.21068975;10.01734;0.038307227
10:43:15:167;0.21068975;10.01734;0.038307227
10:43:15:167;0.21068975;10.01734;0.038307227
10:43:15:167;0.21068975;10.01734;0.038307227
10:43:15:167;0.21068975;10.01734;0.038307227
10:43:15:167;0.21068975;10.01734;0.038307227
10:43:15:167;0.21068975;10.01734;0.038307227
10:43:15:167;0.21068975;10.01734;0.038307227
10:43:15:167;0.21068975;10.01734;0.038307227
10:43:15:167;0.21068975;10.01734;0.038307227
10:43:15:167;0.21068975;10.01734;0.038307227
10:43:15:167;0.21068975;10.01734;0.038307227
10:43:15:167;0.21068975;10.01734;0.038307227
10:43:15:167;0.21068975;10.01734;0.038307227
10:43:15:167;0.21068975;10.01734;0.038307227
10:43:15:167;0.21068975;10.01734;0.038307227
10:43:15:167;0.21068975;10.01734;0.038307227
10:43:15:299;0.19153613;10.151415;0.22984336
10:43:15:299;0.19153613;10.151415;0.22984336
10:43:15:299;0.19153613;10.151415;0.22984336
10:43:15:299;0.19153613;10.151415;0.22984336
10:43:15:299;0.19153613;10.151415;0.22984336
10:43:15:299;0.19153613;10.151415;0.22984336
10:43:15:299;0.19153613;10.151415;0.22984336
10:43:15:299;0.19153613;10.151415;0.22984336
10:43:15:299;0.19153613;10.151415;0.22984336
10:43:15:299;0.19153613;10.151415;0.22984336
10:43:15:299;0.19153613;10.151415;0.22984336
10:43:15:299;0.19153613;10.151415;0.22984336
10:43:15:299;0.19153613;10.151415;0.22984336
10:43:15:299;0.19153613;10.151415;0.22984336
10:43:15:408;0.2681506;10.055647;0.038307227
10:43:15:408;0.2681506;10.055647;0.038307227
10:43:15:408;0.2681506;10.055647;0.038307227
10:43:15:408;0.2681506;10.055647;0.038307227
10:43:15:408;0.2681506;10.055647;0.038307227
10:43:15:408;0.2681506;10.055647;0.038307227
10:43:15:408;0.2681506;10.055647;0.038307227
10:43:15:408;0.2681506;10.055647;0.038307227
10:43:15:408;0.2681506;10.055647;0.038307227
10:43:15:408;0.2681506;10.055647;0.038307227
10:43:15:408;0.2681506;10.055647;0.038307227
10:43:15:408;0.2681506;10.055647;0.038307227
10:43:15:408;0.2681506;10.055647;0.038307227
10:43:15:509;0.095768064;9.9790325;0.11492168
10:43:15:509;0.095768064;9.9790325;0.11492168
10:43:15:509;0.095768064;9.9790325;0.11492168
10:43:15:509;0.095768064;9.9790325;0.11492168
10:43:15:509;0.095768064;9.9790325;0.11492168
10:43:15:509;0.095768064;9.9790325;0.11492168
10:43:15:509;0.095768064;9.9790325;0.11492168
10:43:15:509;0.095768064;9.9790325;0.11492168
10:43:15:509;0.095768064;9.9790325;0.11492168
10:43:15:509;0.095768064;9.9790325;0.11492168
10:43:15:509;0.095768064;9.9790325;0.11492168
10:43:15:509;0.095768064;9.9790325;0.11492168
10:43:15:509;0.095768064;9.9790325;0.11492168
10:43:15:509;0.095768064;9.9790325;0.11492168
10:43:15:509;0.095768064;9.9790325;0.11492168
10:43:15:627;0.11492168;10.055647;0.11492168
10:43:15:627;0.11492168;10.055647;0.11492168
10:43:15:627;0.11492168;10.055647;0.11492168
10:43:15:627;0.11492168;10.055647;0.11492168
10:43:15:627;0.11492168;10.055647;0.11492168
10:43:15:627;0.11492168;10.055647;0.11492168
10:43:15:627;0.11492168;10.055647;0.11492168
10:43:15:627;0.11492168;10.055647;0.11492168
10:43:15:627;0.11492168;10.055647;0.11492168
10:43:15:627;0.11492168;10.055647;0.11492168
10:43:15:627;0.11492168;10.055647;0.11492168
10:43:15:627;0.11492168;10.055647;0.11492168
10:43:15:627;0.11492168;10.055647;0.11492168
10:43:15:729;0.24899697;9.9790325;0.05746084
10:43:15:729;0.24899697;9.9790325;0.05746084
10:43:15:729;0.24899697;9.9790325;0.05746084
10:43:15:729;0.24899697;9.9790325;0.05746084
10:43:15:729;0.24899697;9.9790325;0.05746084
10:43:15:729;0.24899697;9.9790325;0.05746084
10:43:15:729;0.24899697;9.9790325;0.05746084
10:43:15:729;0.24899697;9.9790325;0.05746084
10:43:15:729;0.24899697;9.9790325;0.05746084
10:43:15:729;0.24899697;9.9790325;0.05746084
10:43:15:729;0.24899697;9.9790325;0.05746084
10:43:15:729;0.24899697;9.9790325;0.05746084
10:43:15:729;0.24899697;9.9790325;0.05746084
10:43:15:729;0.24899697;9.9790325;0.05746084
10:43:15:729;0.24899697;9.9790325;0.05746084
10:43:15:729;0.24899697;9.9790325;0.05746084
10:43:15:857;0.15322891;9.998186;0.1340753
10:43:15:857;0.15322891;9.998186;0.1340753
10:43:15:857;0.15322891;9.998186;0.1340753
10:43:15:857;0.15322891;9.998186;0.1340753
10:43:15:857;0.15322891;9.998186;0.1340753
10:43:15:857;0.15322891;9.998186;0.1340753
10:43:15:857;0.15322891;9.998186;0.1340753
10:43:15:857;0.15322891;9.998186;0.1340753
10:43:15:857;0.15322891;9.998186;0.1340753
10:43:15:857;0.15322891;9.998186;0.1340753
10:43:15:857;0.15322891;9.998186;0.1340753
10:43:15:857;0.15322891;9.998186;0.1340753
10:43:15:857;0.15322891;9.998186;0.1340753
10:43:15:857;0.15322891;9.998186;0.1340753
10:43:15:857;0.15322891;9.998186;0.1340753
10:43:15:976;0.19153613;9.9790325;0.15322891
10:43:15:976;0.19153613;9.9790325;0.15322891
10:43:15:976;0.19153613;9.9790325;0.15322891
10:43:15:976;0.19153613;9.9790325;0.15322891
10:43:15:976;0.19153613;9.9790325;0.15322891
10:43:15:976;0.19153613;9.9790325;0.15322891
10:43:15:976;0.19153613;9.9790325;0.15322891
10:43:15:976;0.19153613;9.9790325;0.15322891
10:43:15:976;0.19153613;9.9790325;0.15322891
10:43:15:976;0.19153613;9.9790325;0.15322891
10:43:15:976;0.19153613;9.9790325;0.15322891
10:43:15:976;0.19153613;9.9790325;0.15322891
10:43:15:976;0.19153613;9.9790325;0.15322891
10:43:15:976;0.19153613;9.9790325;0.15322891
10:43:15:976;0.19153613;9.9790325;0.15322891
10:43:15:976;0.19153613;9.9790325;0.15322891
10:43:16:095;0.095768064;9.921572;0.1340753
10:43:16:095;0.095768064;9.921572;0.1340753
10:43:16:095;0.095768064;9.921572;0.1340753
10:43:16:095;0.095768064;9.921572;0.1340753
10:43:16:095;0.095768064;9.921572;0.1340753
10:43:16:095;0.095768064;9.921572;0.1340753
10:43:16:095;0.095768064;9.921572;0.1340753
10:43:16:095;0.095768064;9.921572;0.1340753
10:43:16:095;0.095768064;9.921572;0.1340753
10:43:16:095;0.095768064;9.921572;0.1340753
10:43:16:095;0.095768064;9.921572;0.1340753
10:43:16:095;0.095768064;9.921572;0.1340753
10:43:16:095;0.095768064;9.921572;0.1340753
10:43:16:197;0.24899697;9.883265;0.095768064
10:43:16:197;0.24899697;9.883265;0.095768064
10:43:16:197;0.24899697;9.883265;0.095768064
10:43:16:197;0.24899697;9.883265;0.095768064
10:43:16:197;0.24899697;9.883265;0.095768064
10:43:16:197;0.24899697;9.883265;0.095768064
10:43:16:197;0.24899697;9.883265;0.095768064
10:43:16:197;0.24899697;9.883265;0.095768064
10:43:16:197;0.24899697;9.883265;0.095768064
10:43:16:197;0.24899697;9.883265;0.095768064
10:43:16:197;0.24899697;9.883265;0.095768064
10:43:16:197;0.24899697;9.883265;0.095768064
10:43:16:197;0.24899697;9.883265;0.095768064
10:43:16:197;0.24899697;9.883265;0.095768064
10:43:16:197;0.24899697;9.883265;0.095768064
10:43:16:315;0.19153613;10.036493;0.095768064
10:43:16:315;0.19153613;10.036493;0.095768064
10:43:16:315;0.19153613;10.036493;0.095768064
10:43:16:315;0.19153613;10.036493;0.095768064
10:43:16:315;0.19153613;10.036493;0.095768064
10:43:16:315;0.19153613;10.036493;0.095768064
10:43:16:315;0.19153613;10.036493;0.095768064
10:43:16:315;0.19153613;10.036493;0.095768064
10:43:16:315;0.19153613;10.036493;0.095768064
10:43:16:315;0.19153613;10.036493;0.095768064
10:43:16:315;0.19153613;10.036493;0.095768064
10:43:16:315;0.19153613;10.036493;0.095768064
10:43:16:315;0.19153613;10.036493;0.095768064
10:43:16:315;0.19153613;10.036493;0.095768064
10:43:16:315;0.19153613;10.036493;0.095768064
10:43:16:435;0.30645782;9.9790325;0.076614454
10:43:16:435;0.30645782;9.9790325;0.076614454
10:43:16:435;0.30645782;9.9790325;0.076614454
10:43:16:435;0.30645782;9.9790325;0.076614454
10:43:16:435;0.30645782;9.9790325;0.076614454
10:43:16:435;0.30645782;9.9790325;0.076614454
10:43:16:435;0.30645782;9.9790325;0.076614454
10:43:16:435;0.30645782;9.9790325;0.076614454
10:43:16:435;0.30645782;9.9790325;0.076614454
10:43:16:435;0.30645782;9.9790325;0.076614454
10:43:16:435;0.30645782;9.9790325;0.076614454
10:43:16:435;0.30645782;9.9790325;0.076614454
10:43:16:435;0.30645782;9.9790325;0.076614454
10:43:16:435;0.30645782;9.9790325;0.076614454
10:43:16:435;0.30645782;9.9790325;0.076614454
10:43:16:552;0.11492168;10.055647;0.05746084
10:43:16:552;0.11492168;10.055647;0.05746084
10:43:16:552;0.11492168;10.055647;0.05746084
10:43:16:552;0.11492168;10.055647;0.05746084
10:43:16:552;0.11492168;10.055647;0.05746084
10:43:16:552;0.11492168;10.055647;0.05746084
10:43:16:552;0.11492168;10.055647;0.05746084
10:43:16:552;0.11492168;10.055647;0.05746084
10:43:16:552;0.11492168;10.055647;0.05746084
10:43:16:552;0.11492168;10.055647;0.05746084
10:43:16:552;0.11492168;10.055647;0.05746084
10:43:16:552;0.11492168;10.055647;0.05746084
10:43:16:552;0.11492168;10.055647;0.05746084
10:43:16:552;0.11492168;10.055647;0.05746084
10:43:16:661;0.19153613;9.959879;0.095768064
10:43:16:661;0.19153613;9.959879;0.095768064
10:43:16:661;0.19153613;9.959879;0.095768064
10:43:16:661;0.19153613;9.959879;0.095768064
10:43:16:661;0.19153613;9.959879;0.095768064
10:43:16:661;0.19153613;9.959879;0.095768064
10:43:16:661;0.19153613;9.959879;0.095768064
10:43:16:661;0.19153613;9.959879;0.095768064
10:43:16:661;0.19153613;9.959879;0.095768064
10:43:16:661;0.19153613;9.959879;0.095768064
10:43:16:661;0.19153613;9.959879;0.095768064
10:43:16:661;0.19153613;9.959879;0.095768064
10:43:16:661;0.19153613;9.959879;0.095768064
10:43:16:765;0.15322891;10.036493;0.019153614
10:43:16:765;0.15322891;10.036493;0.019153614
10:43:16:765;0.15322891;10.036493;0.019153614
10:43:16:765;0.15322891;10.036493;0.019153614
10:43:16:765;0.15322891;10.036493;0.019153614
10:43:16:765;0.15322891;10.036493;0.019153614
10:43:16:765;0.15322891;10.036493;0.019153614
10:43:16:765;0.15322891;10.036493;0.019153614
10:43:16:765;0.15322891;10.036493;0.019153614
10:43:16:765;0.15322891;10.036493;0.019153614
10:43:16:765;0.15322891;10.036493;0.019153614
10:43:16:765;0.15322891;10.036493;0.019153614
10:43:16:765;0.15322891;10.036493;0.019153614
10:43:16:765;0.15322891;10.036493;0.019153614
10:43:16:765;0.15322891;10.036493;0.019153614
10:43:16:765;0.15322891;10.036493;0.019153614
10:43:16:883;0.22984336;10.036493;0.038307227
10:43:16:883;0.22984336;10.036493;0.038307227
10:43:16:883;0.22984336;10.036493;0.038307227
10:43:16:883;0.22984336;10.036493;0.038307227
10:43:16:883;0.22984336;10.036493;0.038307227
10:43:16:883;0.22984336;10.036493;0.038307227
10:43:16:883;0.22984336;10.036493;0.038307227
10:43:16:883;0.22984336;10.036493;0.038307227
10:43:16:883;0.22984336;10.036493;0.038307227
10:43:16:883;0.22984336;10.036493;0.038307227
10:43:16:883;0.22984336;10.036493;0.038307227
10:43:16:883;0.22984336;10.036493;0.038307227
10:43:16:883;0.22984336;10.036493;0.038307227
10:43:16:987;0.21068975;10.0748005;0.11492168
10:43:16:987;0.21068975;10.0748005;0.11492168
10:43:16:987;0.21068975;10.0748005;0.11492168
10:43:16:987;0.21068975;10.0748005;0.11492168
10:43:16:987;0.21068975;10.0748005;0.11492168
10:43:16:987;0.21068975;10.0748005;0.11492168
10:43:16:987;0.21068975;10.0748005;0.11492168
10:43:16:987;0.21068975;10.0748005;0.11492168
10:43:16:987;0.21068975;10.0748005;0.11492168
10:43:16:987;0.21068975;10.0748005;0.11492168
10:43:16:987;0.21068975;10.0748005;0.11492168
10:43:16:987;0.21068975;10.0748005;0.11492168
10:43:16:987;0.21068975;10.0748005;0.11492168
10:43:16:987;0.21068975;10.0748005;0.11492168
10:43:17:095;0.22984336;9.998186;0.24899697
10:43:17:095;0.22984336;9.998186;0.24899697
10:43:17:095;0.22984336;9.998186;0.24899697
10:43:17:095;0.22984336;9.998186;0.24899697
10:43:17:095;0.22984336;9.998186;0.24899697
10:43:17:095;0.22984336;9.998186;0.24899697
10:43:17:095;0.22984336;9.998186;0.24899697
10:43:17:095;0.22984336;9.998186;0.24899697
10:43:17:095;0.22984336;9.998186;0.24899697
10:43:17:095;0.22984336;9.998186;0.24899697
10:43:17:095;0.22984336;9.998186;0.24899697
10:43:17:095;0.22984336;9.998186;0.24899697
10:43:17:095;0.22984336;9.998186;0.24899697
10:43:17:095;0.22984336;9.998186;0.24899697
10:43:17:210;0.22984336;10.151415;0.05746084
10:43:17:210;0.22984336;10.151415;0.05746084
10:43:17:210;0.22984336;10.151415;0.05746084
10:43:17:210;0.22984336;10.151415;0.05746084
10:43:17:210;0.22984336;10.151415;0.05746084
10:43:17:210;0.22984336;10.151415;0.05746084
10:43:17:210;0.22984336;10.151415;0.05746084
10:43:17:210;0.22984336;10.151415;0.05746084
10:43:17:210;0.22984336;10.151415;0.05746084
10:43:17:210;0.22984336;10.151415;0.05746084
10:43:17:210;0.22984336;10.151415;0.05746084
10:43:17:210;0.22984336;10.151415;0.05746084
10:43:17:210;0.22984336;10.151415;0.05746084
10:43:17:210;0.22984336;10.151415;0.05746084
10:43:17:210;0.22984336;10.151415;0.05746084
10:43:17:328;0.15322891;9.9790325;0.11492168
10:43:17:328;0.15322891;9.9790325;0.11492168
10:43:17:328;0.15322891;9.9790325;0.11492168
10:43:17:328;0.15322891;9.9790325;0.11492168
10:43:17:328;0.15322891;9.9790325;0.11492168
10:43:17:328;0.15322891;9.9790325;0.11492168
10:43:17:328;0.15322891;9.9790325;0.11492168
10:43:17:328;0.15322891;9.9790325;0.11492168
10:43:17:328;0.15322891;9.9790325;0.11492168
10:43:17:328;0.15322891;9.9790325;0.11492168
10:43:17:328;0.15322891;9.9790325;0.11492168
10:43:17:328;0.15322891;9.9790325;0.11492168
10:43:17:328;0.15322891;9.9790325;0.11492168
10:43:17:328;0.15322891;9.9790325;0.11492168
10:43:17:328;0.15322891;9.9790325;0.11492168
10:43:17:328;0.15322891;9.9790325;0.11492168
10:43:17:446;0.2873042;9.959879;0.019153614
10:43:17:446;0.2873042;9.959879;0.019153614
10:43:17:446;0.2873042;9.959879;0.019153614
10:43:17:446;0.2873042;9.959879;0.019153614
10:43:17:446;0.2873042;9.959879;0.019153614
10:43:17:446;0.2873042;9.959879;0.019153614
10:43:17:446;0.2873042;9.959879;0.019153614
10:43:17:446;0.2873042;9.959879;0.019153614
10:43:17:446;0.2873042;9.959879;0.019153614
10:43:17:446;0.2873042;9.959879;0.019153614
10:43:17:446;0.2873042;9.959879;0.019153614
10:43:17:446;0.2873042;9.959879;0.019153614
10:43:17:446;0.2873042;9.959879;0.019153614
10:43:17:548;0.19153613;9.9790325;0.038307227
10:43:17:548;0.19153613;9.9790325;0.038307227
10:43:17:548;0.19153613;9.9790325;0.038307227
10:43:17:548;0.19153613;9.9790325;0.038307227
10:43:17:548;0.19153613;9.9790325;0.038307227
10:43:17:548;0.19153613;9.9790325;0.038307227
10:43:17:548;0.19153613;9.9790325;0.038307227
10:43:17:548;0.19153613;9.9790325;0.038307227
10:43:17:548;0.19153613;9.9790325;0.038307227
10:43:17:548;0.19153613;9.9790325;0.038307227
10:43:17:548;0.19153613;9.9790325;0.038307227
10:43:17:548;0.19153613;9.9790325;0.038307227
10:43:17:548;0.19153613;9.9790325;0.038307227
10:43:17:548;0.19153613;9.9790325;0.038307227
10:43:17:548;0.19153613;9.9790325;0.038307227
10:43:17:548;0.19153613;9.9790325;0.038307227
10:43:17:673;0.15322891;9.959879;0.1340753
10:43:17:673;0.15322891;9.959879;0.1340753
10:43:17:673;0.15322891;9.959879;0.1340753
10:43:17:673;0.15322891;9.959879;0.1340753
10:43:17:673;0.15322891;9.959879;0.1340753
10:43:17:673;0.15322891;9.959879;0.1340753
10:43:17:673;0.15322891;9.959879;0.1340753
10:43:17:673;0.15322891;9.959879;0.1340753
10:43:17:673;0.15322891;9.959879;0.1340753
10:43:17:673;0.15322891;9.959879;0.1340753
10:43:17:673;0.15322891;9.959879;0.1340753
10:43:17:673;0.15322891;9.959879;0.1340753
10:43:17:673;0.15322891;9.959879;0.1340753
10:43:17:781;0.21068975;9.864111;-0.019153614
10:43:17:781;0.21068975;9.864111;-0.019153614
10:43:17:781;0.21068975;9.864111;-0.019153614
10:43:17:781;0.21068975;9.864111;-0.019153614
10:43:17:781;0.21068975;9.864111;-0.019153614
10:43:17:781;0.21068975;9.864111;-0.019153614
10:43:17:781;0.21068975;9.864111;-0.019153614
10:43:17:781;0.21068975;9.864111;-0.019153614
10:43:17:781;0.21068975;9.864111;-0.019153614
10:43:17:781;0.21068975;9.864111;-0.019153614
10:43:17:781;0.21068975;9.864111;-0.019153614
10:43:17:781;0.21068975;9.864111;-0.019153614
10:43:17:781;0.21068975;9.864111;-0.019153614
10:43:17:781;0.21068975;9.864111;-0.019153614
